"Time (s)","Acceleration x (m/s^2)","Acceleration y (m/s^2)","Acceleration z (m/s^2)","Absolute acceleration (m/s^2)"
2.305208334E-3,-9.249266052E-1,-2.182611237E0,2.429447937E-1,2.382919052E0
1.231320834E-2,-1.061293030E0,-2.522404633E0,6.167175293E-2,2.737274453E0
2.232120834E-2,-9.861492920E-1,-2.957849121E0,3.278182983E-2,3.118082183E0
3.233020833E-2,-8.250842285E-1,-3.431164856E0,3.716770935E-1,3.548492654E0
4.233820834E-2,-5.421725464E-1,-3.884422302E0,1.083297272E0,4.068933604E0
5.234620834E-2,-4.147874451E-1,-4.144132233E0,1.951491852E0,4.599369634E0
6.235420833E-2,-5.962101746E-1,-4.105961609E0,2.798430634E0,5.004558054E0
7.236320834E-2,-8.860075378E-1,-3.860771484E0,3.367547150E0,5.199128736E0
8.237120834E-2,-1.044976959E0,-3.261417847E0,3.369792480E0,4.804614925E0
9.237920833E-2,-9.816586304E-1,-1.867067413E0,2.941832428E0,3.619940942E0
1.023882083E-1,-7.857160950E-1,-6.081852722E-1,2.765948181E0,2.938997865E0
1.123962083E-1,-6.056405640E-1,6.186634827E-1,3.326831818E0,3.437637989E0
1.224042083E-1,3.173400879E-2,1.945803680E0,5.085674286E0,5.445295396E0
1.324122083E-1,5.032534790E-1,4.780908051E0,8.367898865E0,9.650496218E0
1.424212083E-1,4.890330505E-1,1.554786804E1,1.272818161E1,2.009930250E1
1.524292083E-1,1.181642761E0,3.229474274E1,1.486917938E1,3.557301201E1
1.624372083E-1,1.354383545E0,4.858162399E1,1.152558243E1,4.994844937E1
1.724452083E-1,9.210346985E-1,5.785528931E1,4.441264343E0,5.803281515E1
1.824542083E-1,-2.962339783E-1,5.386653397E1,-1.323682388E1,5.546985436E1
1.924622083E-1,6.743476868E-1,4.172049179E1,-3.069052872E1,5.179732361E1
2.024702083E-1,2.332150269E0,2.434911575E1,-1.019200562E1,2.649896868E1
2.124792083E-1,1.517693939E0,2.027922913E1,-3.153941345E-1,2.033838741E1
2.224872083E-1,1.835183716E0,1.708786560E1,7.470514984E0,1.873957428E1
2.324952083E-1,2.609822845E0,1.282443146E1,1.926868057E1,2.329290168E1
2.425032083E-1,-1.131497040E0,8.293952637E0,8.527167664E0,1.194916417E1
2.525122083E-1,-4.122427368E-1,1.868414612E0,-2.217668335E1,2.225907010E1
2.625202083E-1,1.757644958E0,-7.933502197E-3,-1.973196716E1,1.981009608E1
2.725282083E-1,1.612895966E0,-5.180726624E-1,-1.164248932E1,1.176509202E1
2.825372083E-1,1.001267853E0,-6.515950012E-1,-5.712420959E0,5.835997479E0
2.925452083E-1,3.824546814E-1,-5.120851135E-1,-1.521436157E0,1.650233537E0
3.025532083E-1,-1.372645569E-1,-7.009922791E-1,3.008743286E-1,7.750852182E-1
3.125612083E-1,-6.331832886E-1,-1.107696533E0,4.248165894E-1,1.344760879E0
3.225702083E-1,-8.975335693E-1,-1.395547943E0,7.355703735E-1,1.814988800E0
3.325782083E-1,-1.117575989E0,-1.556613007E0,7.851173401E-1,2.070852332E0
3.425862083E-1,-1.224902802E0,-1.575024719E0,7.647596741E-1,2.136807689E0
3.525942083E-1,-1.158291321E0,-1.597178650E0,1.214574280E0,2.316853276E0
3.626032083E-1,-1.042282562E0,-1.644180908E0,1.728156281E0,2.603115043E0
3.726112083E-1,-9.427395630E-1,-1.716630249E0,2.341730347E0,3.052749304E0
3.826192083E-1,-8.593629456E-1,-1.778451691E0,2.883902893E0,3.495467206E0
3.926282083E-1,-7.518864441E-1,-1.869761810E0,3.045267334E0,3.651711323E0
4.026362083E-1,-7.237449646E-1,-1.858684845E0,2.784210205E0,3.424958772E0
4.126442083E-1,-8.596623230E-1,-1.416204987E0,2.385589142E0,2.904426179E0
4.226522083E-1,-1.050515442E0,-7.779322815E-1,2.321073303E0,2.663858594E0
4.326612083E-1,-1.144070892E0,3.592529297E-2,2.582280121E0,2.824598990E0
4.426692083E-1,-1.067579956E0,1.039288788E0,3.064577179E0,3.407562389E0
4.526772083E-1,-9.047186279E-1,2.401007080E0,3.879931641E0,4.651582562E0
4.626852083E-1,-6.629713440E-1,4.588707733E0,5.675447845E0,7.328470366E0
4.726942083E-1,-4.155358887E-1,9.377698975E0,8.167315979E0,1.244262667E1
4.827022083E-1,-4.700225830E-2,1.970232880E1,1.104418350E1,2.258667657E1
4.927102083E-1,2.992277527E-1,3.669783646E1,1.320089859E1,3.900108282E1
5.027192083E-1,-1.607656860E-1,5.571728531E1,1.241638000E1,5.708422041E1
5.127272083E-1,-1.040635986E0,6.136219666E1,5.746699677E0,6.163948944E1
5.227352083E-1,-2.426454163E-1,5.409989868E1,-7.595056000E0,5.463096915E1
5.327432083E-1,3.757186890E0,3.815340958E1,-2.491374161E1,4.572191637E1
5.427522083E-1,3.667673035E0,2.448263809E1,-1.333906128E1,2.812084546E1
5.527602083E-1,2.602039032E0,2.017384827E1,-4.497397614E0,2.083221895E1
5.627682083E-1,2.973716125E0,1.616054398E1,3.576811981E0,1.681665107E1
5.727772083E-1,4.167184296E0,1.292502228E1,1.378333740E1,1.934947068E1
5.827852083E-1,2.478845215E0,5.942941589E0,-6.632856903E0,9.244350655E0
5.927932083E-1,3.514092407E0,1.033151550E0,-1.825663513E1,1.862044505E1
6.028012083E-1,3.748804321E0,-1.664538574E-1,-1.290735901E1,1.344176913E1
6.128102083E-1,2.706072693E0,-5.559439087E-1,-6.869365082E0,7.404058325E0
6.228182083E-1,1.399739227E0,-2.845582581E-1,-2.296374664E0,2.704363124E0
6.328262083E-1,4.029620361E-1,-4.930746460E-1,-1.282832336E-1,6.495826330E-1
6.428342083E-1,-3.323089600E-1,-9.547146606E-1,2.161505127E-1,1.033745797E0
6.528432083E-1,-7.393125916E-1,-1.278940430E0,3.306623840E-1,1.513806244E0
6.628512083E-1,-9.696835327E-1,-1.581012268E0,5.971083069E-1,1.948441499E0
6.728592083E-1,-1.016386414E0,-1.919009399E0,1.068328400E0,2.420116523E0
6.828682083E-1,-9.349557495E-1,-2.197879486E0,1.361269226E0,2.749158125E0
6.928757083E-1,-7.223977661E-1,-2.484084320E0,1.429078217E0,2.955469166E0
7.028837083E-1,-2.112107849E-1,-3.015928345E0,1.086590424E0,3.212648833E0
7.128917083E-1,2.995271301E-1,-3.510948944E0,8.566685486E-1,3.626342509E0
7.229007083E-1,6.203100586E-1,-3.819008331E0,1.442400513E0,4.129180117E0
7.329087083E-1,6.497987366E-1,-3.818409576E0,1.980381775E0,4.350218623E0
7.429167083E-1,3.495231628E-1,-3.421884155E0,1.868713989E0,3.914530570E0
7.529257083E-1,-9.565109253E-2,-2.461631012E0,1.262474670E0,2.768143541E0
7.629337083E-1,-3.272195435E-1,-1.365909576E0,1.050515442E0,1.753956754E0
7.729417083E-1,-3.457809448E-1,-4.528083801E-1,1.410816193E0,1.521513135E0
7.829497083E-1,-1.748364258E-1,3.806584167E-1,2.160307617E0,2.200544843E0
7.929587083E-1,3.378474426E-1,1.168769531E0,3.576213226E0,3.777494428E0
8.029667083E-1,1.229094086E0,2.783761139E0,6.421945496E0,7.106432459E0
8.129747083E-1,2.540217590E0,9.531878357E0,1.039228912E1,1.432861067E1
8.229837083E-1,4.252506866E0,2.449790634E1,1.432281555E1,2.869449904E1
8.329917083E-1,6.878496094E0,4.369847855E1,1.598121689E1,4.703477468E1
8.429997083E-1,7.305108948E0,6.335844543E1,1.096469879E1,6.471384585E1
8.530077083E-1,5.623954926E0,6.590180649E1,-5.434149628E0,6.636419931E1
8.630167083E-1,5.193599854E0,5.148618393E1,-3.373834076E1,6.177439803E1
8.730247083E-1,4.857249298E0,2.969300308E1,-1.489327927E1,3.357196852E1
8.830327083E-1,3.645668793E0,2.206666214E1,-1.381028137E0,2.240838499E1
8.930407083E-1,3.799548798E0,1.684566925E1,7.218289490E0,1.871675310E1
9.030497083E-1,4.026626587E0,1.156809402E1,1.427566360E1,1.881034536E1
9.130577083E-1,1.866019592E0,7.912695465E0,1.471020996E1,1.680723224E1
9.230657083E-1,-8.204438782E-1,3.818259888E0,-4.601281586E0,6.035232304E0
9.330747083E-1,1.509011993E0,-1.337468719E0,-2.078412918E1,2.088171366E1
9.430827083E-1,2.065404968E0,-2.837649078E0,-1.437999664E1,1.480210976E1
9.530907083E-1,1.130000153E0,-2.246977386E0,-7.845185852E0,8.238491899E0
9.630987083E-1,2.118095398E-1,-1.604363708E0,-2.851420441E0,3.278634582E0
9.731077083E-1,-5.022056580E-1,-1.250798950E0,-2.454895020E-2,1.348076848E0
9.831157083E-1,-1.094224548E0,-1.403780823E0,3.194357300E-1,1.808305048E0
9.931237083E-1,-1.445993042E0,-1.495689697E0,1.020577698E0,2.317231621E0
1.003132708E0,-1.487606506E0,-1.629212036E0,1.883233795E0,2.900667941E0
1.013140708E0,-1.418450317E0,-1.679357758E0,1.862726440E0,2.881318027E0
1.023148708E0,-1.074615326E0,-1.743873596E0,1.709594879E0,2.668071939E0
1.033156708E0,-7.039860535E-1,-1.910177765E0,1.102158051E0,2.314979012E0
1.043165708E0,-5.595364380E-1,-2.282902679E0,7.711962891E-1,2.473756129E0
1.053173708E0,-4.995112610E-1,-2.666554871E0,1.182391205E0,2.959404558E0
1.063181708E0,-3.866459656E-1,-3.021466827E0,1.234482880E0,3.286746852E0
1.073190708E0,-2.050735474E-1,-3.271746368E0,1.212029572E0,3.495052953E0
1.083198708E0,-1.047821045E-2,-3.280727692E0,1.281185760E0,3.522033636E0
1.093206708E0,1.782792664E-1,-2.746488647E0,1.533411255E0,3.150608428E0
1.103214708E0,2.559677124E-1,-1.875000916E0,1.918859711E0,2.695026993E0
1.113223708E0,2.191442871E-1,-9.854008484E-1,2.447709961E0,2.647701476E0
1.123231708E0,1.531315613E-1,-1.314266968E-1,3.256478119E0,3.262724627E0
1.133239708E0,2.296224976E-1,7.289840698E-1,4.605622559E0,4.668608296E0
1.143248708E0,9.078620911E-1,2.603236542E0,7.631280670E0,8.114030979E0
1.153256708E0,2.314786377E0,9.243727570E0,1.173424850E1,1.511612792E1
1.163264708E0,4.527634735E0,2.295251999E1,1.459360245E1,2.757337271E1
1.173272708E0,8.237370300E0,4.184817627E1,1.425036621E1,4.496884548E1
1.183281708E0,1.152393585E1,6.095713898E1,9.498198395E0,6.275977743E1
1.193289708E0,1.261831009E1,6.475084991E1,-2.689457245E0,6.602368889E1
1.203297708E0,1.328996338E1,4.662130051E1,-2.533900726E1,5.470131696E1
1.213306708E0,9.272767181E0,2.736699005E1,-2.092588440E1,3.567672902E1
1.223314708E0,4.856500854E0,2.063039886E1,-5.638175354E0,2.193143815E1
1.233322708E0,3.575464783E0,1.602567444E1,3.457210693E0,1.677970487E1
1.243330708E0,3.263513489E0,1.058628571E1,6.584806824E0,1.288718923E1
1.253339708E0,3.936963043E0,5.740861816E0,1.004022125E1,1.221733257E1
1.263347708E0,3.391796722E0,3.420536957E0,1.180340469E1,1.274851836E1
1.273355708E0,2.525248718E-1,1.702709198E0,4.522844696E0,4.839329661E0
1.283364708E0,-4.580474854E-1,-1.062191162E0,-5.258864136E0,5.384580723E0
1.293372708E0,8.478369141E-1,-3.932771759E0,-1.626218262E1,1.675243578E1
1.303380708E0,7.253915405E-1,-3.937262421E0,-1.345881226E1,1.404164718E1
1.313388708E0,3.510200500E-1,-2.783162384E0,-5.603148193E0,6.266137375E0
1.323397708E0,6.900650024E-2,-2.208357697E0,-7.027885437E-1,2.318516196E0
1.333405708E0,-3.888912964E-1,-1.979932709E0,7.635621643E-1,2.157405189E0
1.343413708E0,-7.240443420E-1,-1.932182007E0,1.095422058E0,2.336132916E0
1.353422708E0,-7.914042664E-1,-2.028880920E0,1.463057556E0,2.623588366E0
1.363430708E0,-8.713380432E-1,-1.871109009E0,1.384920044E0,2.485615102E0
1.373438708E0,-1.182690582E0,-1.509910126E0,1.355581055E0,2.348656126E0
1.383446708E0,-1.518741760E0,-1.115180969E0,1.408271484E0,2.352325169E0
1.393455708E0,-1.728006592E0,-5.655239868E-1,1.572629700E0,2.403952648E0
1.403463708E0,-1.826651459E0,-2.215393066E-2,1.882335663E0,2.623039057E0
1.413471708E0,-1.843865662E0,4.884342957E-1,2.185155945E0,2.900571520E0
1.423480708E0,-1.756297760E0,8.672964478E-1,2.493814087E0,3.171102908E0
1.433488708E0,-1.610650635E0,1.243763580E0,2.857407990E0,3.507980007E0
1.443496708E0,-1.453776855E0,1.814526672E0,3.231031036E0,3.980645142E0
1.453504708E0,-1.125210114E0,2.743644562E0,3.871399384E0,4.876619369E0
1.463513708E0,-5.956114197E-1,4.143832855E0,5.021457825E0,6.537671021E0
1.473521708E0,2.519261169E-1,6.420747986E0,6.689289551E0,9.275562849E0
1.483529708E0,1.362616425E0,1.019035904E1,8.344248047E0,1.324109574E1
1.493538708E0,3.196602631E0,1.622865234E1,9.963880005E0,1.930974702E1
1.503546708E0,5.602250061E0,2.462978210E1,1.140777740E1,2.771549670E1
1.513554708E0,8.556656342E0,3.344240616E1,1.138068375E1,3.634736387E1
1.523563708E0,1.236563553E1,4.035982132E1,8.291707306E0,4.301832783E1
1.533571708E0,1.563393906E1,4.125810333E1,1.422192535E0,4.414378521E1
1.543579708E0,1.773886185E1,3.475143402E1,-8.722661133E0,3.998017263E1
1.553587708E0,1.705927505E1,2.487542130E1,-1.644764694E1,3.435593893E1
1.563596708E0,1.394305527E1,1.841156296E1,-1.023481659E1,2.526155006E1
1.573604708E0,1.153291718E1,1.468521194E1,-1.905986481E0,1.876956081E1
1.583612708E0,9.928104401E0,1.167467239E1,2.764600983E0,1.557267643E1
1.593621708E0,8.821006622E0,9.174122314E0,4.057312775E0,1.335801127E1
1.603629708E0,8.151149597E0,6.585854645E0,4.941374359E0,1.158584920E1
1.613637708E0,7.980205078E0,3.651955719E0,6.794221344E0,1.109873404E1
1.623645708E0,7.675887909E0,1.347048798E0,6.871161346E0,1.038973791E1
1.633654708E0,6.698719940E0,-9.150471497E-1,-1.139430542E0,6.856271733E0
1.643662708E0,6.313421173E0,-2.897225189E0,-9.803413696E0,1.201499566E1
1.653670708E0,4.530179443E0,-2.507884827E0,-8.293353882E0,9.777102367E0
1.663679708E0,2.641107788E0,-9.910890198E-1,-4.112098846E0,4.986688753E0
1.673687708E0,1.671723633E0,2.056723022E-1,-8.924441528E-1,1.906152556E0
1.683695708E0,1.056053925E0,6.803352356E-1,9.916877747E-1,1.600484479E0
1.693703625E0,4.834945679E-1,7.162605286E-1,1.077160034E0,1.380967009E0
1.703712625E0,-1.038839722E-1,5.873785400E-1,1.136137390E0,1.283204426E0
1.713720625E0,-6.092330933E-1,5.593867493E-1,1.195114746E0,1.453402131E0
1.723728625E0,-9.066645813E-1,4.981640625E-1,1.226100311E0,1.604222575E0
1.733737625E0,-1.136885834E0,4.954696655E-1,1.105451202E0,1.661331379E0
1.743745625E0,-1.302291870E0,5.179229736E-1,1.039288788E0,1.744800707E0
1.753753625E0,-1.405726776E0,5.861810303E-1,1.164877625E0,1.917450351E0
1.763762625E0,-1.544787598E0,6.854246521E-1,1.261277161E0,2.108790116E0
1.773770625E0,-1.706451416E0,7.917036438E-1,1.348545685E0,2.314594254E0
1.783778625E0,-1.852996674E0,8.849597168E-1,1.539249115E0,2.566327768E0
1.793786625E0,-2.031425629E0,1.405876465E0,1.889520721E0,3.110219812E0
1.803795625E0,-2.079026642E0,2.233505402E0,2.762804718E0,4.116307577E0
1.813803625E0,-1.913171539E0,3.470832367E0,4.073928223E0,5.683642654E0
1.823811625E0,-1.259929962E0,5.364095306E0,4.934788055E0,7.396828720E0
1.833820625E0,-3.224295044E-1,7.828271027E0,5.793701935E0,9.744371204E0
1.843828625E0,1.069974976E0,1.105121887E1,7.183561707E0,1.322413868E1
1.853836625E0,3.434008942E0,1.619467300E1,8.455766144E0,1.858923969E1
1.863844625E0,7.018604736E0,2.475282623E1,9.714049530E0,2.750138137E1
1.873853625E0,1.215756821E1,3.652359879E1,9.942773895E0,3.975724444E1
1.883861625E0,1.765683243E1,4.678790405E1,6.976093140E0,5.049294577E1
1.893869625E0,2.078203354E1,4.700435394E1,1.679806824E0,5.142104587E1
1.903878625E0,1.927137497E1,3.614862854E1,-4.007167053E0,4.116025542E1
1.913886625E0,1.563977692E1,2.468636444E1,-1.096245346E1,3.121209056E1
1.923894625E0,1.301947586E1,1.693593155E1,-1.395024033E1,2.551355981E1
1.933903625E0,1.072848999E1,1.185654419E1,-8.970096588E0,1.833414220E1
1.943911625E0,9.306896210E0,7.866591339E0,2.140548706E-2,1.218614109E1
1.953919625E0,9.633367310E0,5.008285217E0,1.270557861E0,1.093155999E1
1.963927625E0,8.162975006E0,2.929557953E0,-8.150101776E0,1.190128689E1
1.973936625E0,6.641538849E0,7.030879211E-1,-1.151959488E1,1.331560878E1
1.983944625E0,4.067641296E0,6.771917725E-1,-8.703051910E0,9.630545518E0
1.993952625E0,2.000889130E0,1.441053314E0,-5.347629547E0,5.888746364E0
2.003961625E0,7.337741089E-1,1.761836243E0,-2.668201447E0,3.280516781E0
2.013969625E0,-1.890568542E-1,1.674118652E0,-4.281097412E-1,1.738301961E0
2.023977625E0,-6.566844177E-1,1.483564911E0,3.225791931E-1,1.654163415E0
2.033986625E0,-1.077908478E0,8.391549683E-1,2.450404358E-1,1.387844574E0
2.043994625E0,-1.178948364E0,1.007405090E-1,7.559280396E-1,1.404099390E0
2.054002625E0,-1.231638794E0,-3.983216858E-1,1.223705292E0,1.781305399E0
2.064010625E0,-1.226998444E0,-7.080276489E-1,1.822909241E0,2.308641686E0
2.074019625E0,-1.143921204E0,-1.161584473E0,2.375110931E0,2.880796095E0
2.084027625E0,-1.075962524E0,-1.492995300E0,2.978057098E0,3.500793396E0
2.094035625E0,-1.054856415E0,-1.630559235E0,2.836152191E0,3.437325228E0
2.104044625E0,-1.148561554E0,-1.614093475E0,2.406844940E0,3.117273481E0
2.114052625E0,-1.316661987E0,-1.542991333E0,2.027384033E0,2.867875008E0
2.124060625E0,-1.379680939E0,-1.476529541E0,1.801503754E0,2.707226395E0
2.134069625E0,-1.387614441E0,-1.395248566E0,1.699266357E0,2.599942028E0
2.144077625E0,-1.461261292E0,-1.234632568E0,1.962419128E0,2.740563989E0
2.154085625E0,-1.527274017E0,-6.096821594E-1,2.919678497E0,3.350940284E0
2.164093625E0,-1.217118988E0,7.526348877E-1,4.025578766E0,4.272367295E0
2.174102625E0,-5.983058167E-1,2.354453888E0,5.192552032E0,5.732714852E0
2.184110625E0,3.451821899E-1,4.214934998E0,7.250921631E0,8.394086745E0
2.194118625E0,2.248474274E0,7.910001068E0,1.018886215E1,1.309338250E1
2.204127625E0,6.565347290E0,1.666304901E1,1.246472946E1,2.182041402E1
2.214135625E0,1.497680557E1,3.259905991E1,1.334145630E1,3.827529057E1
2.224143625E0,2.530233353E1,5.231366318E1,1.136361923E1,5.921198594E1
2.234151625E0,3.102687927E1,5.587715286E1,5.469625854E-1,6.391574624E1
2.244160625E0,2.984912842E1,4.323070129E1,-1.194096863E1,5.387439775E1
2.254168625E0,2.349184845E1,2.756787231E1,-2.483710098E1,4.391737825E1
2.264176625E0,1.472472977E1,1.732661911E1,-1.676693298E1,2.825171567E1
2.274185625E0,1.138876694E1,1.293729675E1,-3.036884766E0,1.750143790E1
2.284193625E0,9.153764648E0,8.053702240E0,5.447172546E0,1.335384648E1
2.294201625E0,7.861801300E0,4.653522949E0,1.005129822E1,1.358277554E1
2.304210625E0,5.835914154E0,4.266427917E0,6.490502930E0,9.715293586E0
2.314218625E0,4.034260712E0,2.283651123E0,-1.623673553E0,4.911887392E0
2.324226625E0,2.869383087E0,-2.201921082E-1,-1.215188004E1,1.248799553E1
2.334235625E0,8.125103760E-1,-1.022523651E0,-1.367735779E1,1.373957218E1
2.344243625E0,-9.258247375E-1,-1.166374512E0,-1.129775620E1,1.139547612E1
2.354251625E0,-1.720821533E0,-1.093176727E0,-7.205116882E0,7.487988474E0
2.364259625E0,-2.315385132E0,-7.442523193E-1,-3.444487152E0,4.216563952E0
2.374268625E0,-2.802771606E0,-4.477189636E-1,-1.495390320E0,3.208141698E0
2.384276625E0,-2.737207947E0,-4.906796265E-1,-4.366419983E-1,2.814912090E0
2.394284625E0,-2.248773651E0,-5.212161255E-1,3.140469360E-1,2.329651189E0
2.404293625E0,-1.939367065E0,-6.394702148E-1,6.399192810E-1,2.139991462E0
2.414301625E0,-1.720671844E0,-7.500901794E-1,5.364843750E-1,1.952219854E0
2.424309625E0,-1.722168732E0,-7.836204529E-1,2.921923828E-1,1.914497987E0
2.434318625E0,-1.938319244E0,-9.283694458E-1,4.281097412E-1,2.191398930E0
2.444326625E0,-2.152673492E0,-1.243913269E0,7.235952759E-1,2.589384774E0
2.454334625E0,-1.983674927E0,-1.689686279E0,7.372169495E-1,2.708042608E0
2.464342625E0,-1.689536591E0,-2.141297150E0,9.283694458E-1,2.881242302E0
2.474351625E0,-1.714833984E0,-2.395917664E0,1.625170441E0,3.364856016E0
2.484359625E0,-1.792971497E0,-1.880090332E0,2.523302765E0,3.621676861E0
2.494367625E0,-1.512454834E0,-5.176235962E-1,3.619173889E0,3.956497624E0
2.504376625E0,-1.026265869E0,6.875202942E-1,5.531596985E0,5.667845357E0
2.514384625E0,-2.793191528E-1,1.976040802E0,8.121062164E0,8.362679422E0
2.524392625E0,1.012644196E0,4.339326324E0,1.155926239E1,1.238837149E1
2.534401625E0,5.003944244E0,1.155986115E1,1.629331787E1,2.059470939E1
2.544409625E0,1.256561966E1,2.399435349E1,2.030886749E1,3.385371317E1
2.554417625E0,2.298185898E1,3.691787888E1,1.150163223E1,4.498203160E1
2.564426625E0,3.588038635E1,3.886128754E1,-2.329755249E0,5.294364507E1
2.574434625E0,4.935356873E1,2.620420807E1,-1.855631195E1,5.887930010E1
2.584442625E0,5.867872696E1,5.703140259E0,-3.273228287E1,6.743234497E1
2.594450625E0,4.526137848E1,-4.386627960E0,-2.941188766E1,5.415620022E1
2.604459625E0,2.242411880E1,2.135758667E0,-7.570806427E0,2.376383132E1
2.614467625E0,1.346390167E1,4.660857697E0,5.401367798E0,1.523729034E1
2.624475625E0,6.136938171E0,3.038531342E0,1.035516632E1,1.241467488E1
2.634484625E0,4.278103638E0,1.790277100E0,1.100750977E1,1.194456086E1
2.644492625E0,3.317102051E0,1.912572784E0,5.990692291E0,7.109816791E0
2.654500625E0,1.800605621E0,9.693841553E-1,2.387535095E-1,2.058856353E0
2.664509625E0,1.127156067E-1,-1.973945160E0,-1.170086792E1,1.186673815E1
2.674517625E0,-2.249671783E0,-5.251379700E0,-1.807206894E1,1.895356662E1
2.684525625E0,-4.790039062E0,-5.082979889E0,-1.324670334E1,1.497518975E1
2.694534750E0,-5.373376007E0,-2.900069275E0,-7.320227509E0,9.532539131E0
2.704542750E0,-4.866679688E0,-1.075214081E0,-2.149829407E0,5.427929898E0
2.714550750E0,-4.088148651E0,6.256988525E-2,1.612297211E0,4.395040009E0
2.724558750E0,-3.888613586E0,7.819738770E-1,3.563938751E0,5.332397040E0
2.734567750E0,-2.986439667E0,9.776170349E-1,3.479214935E0,4.688229252E0
2.744575750E0,-2.504142609E0,8.610095215E-1,2.727777557E0,3.801688836E0
2.754583750E0,-2.113604736E0,6.248007202E-1,1.584604797E0,2.714530030E0
2.764592750E0,-1.971999207E0,3.796105957E-1,9.177415466E-1,2.207970702E0
2.774600750E0,-1.775757294E0,5.254074097E-2,4.740641785E-1,1.838698273E0
2.784608750E0,-1.521735535E0,-2.293231201E-1,2.603086853E-1,1.560778249E0
2.794617750E0,-1.277593231E0,-3.501219177E-1,4.113446045E-1,1.387095601E0
2.804625750E0,-1.060843964E0,-5.981561279E-1,1.177152100E0,1.693773224E0
2.814633750E0,-8.521778870E-1,-9.620494080E-1,2.730621643E0,3.017953077E0
2.824642750E0,-5.087919617E-1,-8.370593262E-1,4.471651154E0,4.577685181E0
2.834650750E0,-1.182540894E-2,-4.034111023E-1,6.000721436E0,6.014277854E0
2.844658750E0,7.879614258E-1,2.923420715E-1,7.605683899E0,7.651978480E0
2.854666750E0,3.411555634E0,2.561024323E0,9.721384277E0,1.061616078E1
2.864675750E0,1.055934174E1,5.959407349E0,1.385907990E1,1.841435118E1
2.874683750E0,2.492736328E1,7.918533325E0,1.521256531E1,3.025720994E1
2.884691750E0,4.788452362E1,5.326822815E0,8.417296143E0,4.890964647E1
2.894700750E0,6.930917084E1,-3.798051910E0,-3.866908722E0,6.952078354E1
2.904708750E0,6.524362518E1,-8.134534149E0,-1.658431274E1,6.780811679E1
2.914716750E0,4.238690598E1,-1.151405640E0,-1.372271347E1,4.456779553E1
2.924725750E0,2.617097717E1,1.544937286E0,-7.400161285E0,2.724094830E1
2.934733750E0,1.812176559E1,1.034947815E0,-3.023712158E-1,1.815381320E1
2.944741750E0,1.160596527E1,5.155279541E-1,4.681365051E0,1.252514981E1
2.954750750E0,5.216502228E0,1.137634277E-1,7.344926147E0,9.009593649E0
2.964758750E0,4.356989594E0,-7.057823181E-1,5.228627014E0,6.842516164E0
2.974766750E0,3.916306000E0,-1.201251984E0,2.362237701E0,4.728702356E0
2.984775750E0,2.587519226E0,-1.200802917E0,7.306306458E-1,2.944656946E0
2.994783750E0,1.390608215E0,-9.891430664E-1,6.840774536E-2,1.707886072E0
3.004791750E0,4.315525818E-1,-6.776408386E-1,-2.835104370E-1,8.519465388E-1
3.014799750E0,-5.188211060E-1,-4.808001709E-1,-1.162183228E0,1.360519753E0
3.024808750E0,-3.081042938E0,-1.375339966E0,-5.832621002E0,6.738238150E0
3.034816750E0,-4.666096802E0,-1.846260681E0,-7.599546661E0,9.106824217E0
3.044824750E0,-4.265230408E0,-1.034648438E0,-5.580096130E0,7.099307054E0
3.054833750E0,-3.511547699E0,-2.243833923E-1,-2.881058807E0,4.547726355E0
3.064841750E0,-3.109633484E0,2.905458069E-1,-2.475851440E-1,3.132975530E0
3.074849750E0,-2.909200287E0,6.280938721E-1,1.529818726E0,3.346385147E0
3.084858750E0,-2.800226898E0,7.330256653E-1,2.507585449E0,3.829697389E0
3.094866750E0,-2.859803009E0,8.137078857E-1,2.722239075E0,4.031275152E0
3.104874750E0,-2.927162933E0,7.631130981E-1,2.466421051E0,3.903057422E0
3.114883750E0,-2.842139740E0,5.511538696E-1,2.145937500E0,3.603689310E0
3.124891750E0,-2.649939423E0,3.463796997E-1,1.894759827E0,3.276014750E0
3.134899750E0,-2.303559723E0,2.366578674E-1,1.796564026E0,2.930876429E0
3.144908750E0,-1.693877563E0,2.052232361E-1,1.947001190E0,2.588851369E0
3.154916750E0,-9.590556335E-1,1.065783691E-1,2.657872925E0,2.827620049E0
3.164924750E0,-3.531156921E-1,3.532653809E-2,3.879632263E0,3.895829200E0
3.174932750E0,1.646575928E-2,-3.817062378E-2,5.432203674E0,5.432362734E0
3.184941750E0,5.328918457E-1,2.183958435E-1,7.171736298E0,7.194822582E0
3.194949750E0,2.816842346E0,1.857487335E0,8.168363800E0,8.837818010E0
3.204957750E0,1.341689941E1,4.104315033E0,1.053748718E1,1.754700054E1
3.214966750E0,3.381378387E1,4.122427368E0,1.253373596E1,3.629684455E1
3.224974750E0,6.171351608E1,2.772534485E0,5.267097015E0,6.199989779E1
3.234982750E0,7.563531555E1,-5.125192108E0,-1.191342590E1,7.673915734E1
3.244991750E0,6.018938553E1,-7.582332458E0,-1.628792908E1,6.281361739E1
3.254999750E0,3.725078659E1,-8.177494812E-1,-1.353799759E1,3.964299679E1
3.265007750E0,2.352507935E1,4.989125061E-1,-7.872129822E0,2.481226914E1
3.275016750E0,1.540925629E1,-4.532574463E-1,1.268013153E0,1.546798238E1
3.285024750E0,7.140301666E0,-6.768923950E-1,7.946974182E0,1.070497500E1
3.295032750E0,6.367009735E0,-1.934127960E0,7.489974518E0,1.001895115E1
3.305041750E0,5.685327301E0,-2.241139526E0,3.613336029E0,7.099426044E0
3.315049750E0,3.641627197E0,-1.759441223E0,1.409768372E0,4.283051357E0
3.325057750E0,1.847607880E0,-1.151255951E0,5.342390442E-1,2.241529946E0
3.335066750E0,5.673202515E-1,-5.525010681E-1,1.742376709E-1,8.108442908E-1
3.345074750E0,-7.018904114E-1,-7.634124756E-2,-1.094224548E0,1.302230969E0
3.355082750E0,-3.694317627E0,-5.608836365E-1,-6.621779938E0,7.603324452E0
3.365090750E0,-4.851710815E0,-7.445516968E-1,-7.628137207E0,9.070938888E0
3.375099750E0,-4.247417450E0,-1.826202393E-1,-5.100792847E0,6.640180179E0
3.385107750E0,-3.530558167E0,3.595523071E-1,-2.300715637E0,4.229351164E0
3.395115750E0,-2.949017487E0,9.449848938E-1,2.014810181E-1,3.103271691E0
3.405124750E0,-2.651585999E0,1.183139648E0,1.841620331E0,3.438356174E0
3.415132750E0,-2.725831604E0,1.393751678E0,2.638712769E0,4.041720766E0
3.425140750E0,-2.844534760E0,1.298699341E0,2.427052917E0,3.958356204E0
3.435149750E0,-3.063080292E0,9.560618591E-1,1.995949402E0,3.778932279E0
3.445157750E0,-3.257525940E0,4.990621948E-1,1.617985382E0,3.671296095E0
3.455165750E0,-3.150947571E0,2.507286072E-1,1.445394287E0,3.475701379E0
3.465174750E0,-2.643053741E0,1.610650635E-1,1.569336548E0,3.078066314E0
3.475182750E0,-1.880389709E0,6.616241455E-2,1.992506561E0,2.740497276E0
3.485190750E0,-1.085991669E0,-2.574645996E-2,2.819985809E0,3.021979608E0
3.495199750E0,-5.306465149E-1,-5.837860107E-2,4.086202698E0,4.120927841E0
3.505207750E0,-1.504371643E-1,-6.750961304E-2,5.627098389E0,5.629513759E0
3.515215750E0,3.478765869E-1,1.898052979E-1,7.019203491E0,7.030381343E0
3.525224750E0,1.647773438E0,1.615440674E0,8.691226501E0,8.992342519E0
3.535232750E0,8.093369751E0,4.184997253E0,1.100855759E1,1.429003765E1
3.545240750E0,2.403851166E1,5.032684479E0,1.466215988E1,2.860344189E1
3.555249750E0,4.993151688E1,3.063229980E0,9.757608948E0,5.096813404E1
3.565257750E0,7.344896210E1,-2.540966034E0,-2.580932922E0,7.353820610E1
3.575265750E0,6.863856537E1,-6.733597412E0,-1.504910522E1,7.059086030E1
3.585274750E0,4.293955673E1,-2.794838104E0,-1.493040207E1,4.554704775E1
3.595282750E0,2.514141815E1,-2.745291138E-1,-1.102277802E1,2.745301273E1
3.605290750E0,1.549697388E1,-9.469308472E-1,-1.775008850E0,1.562701295E1
3.615299750E0,8.245902557E0,-2.028132477E0,7.635621643E0,1.141976130E1
3.625307750E0,8.225095825E0,-3.392844543E0,6.620582428E0,1.109034297E1
3.635315750E0,6.865024109E0,-3.486998749E0,3.102747803E0,8.301491445E0
3.645323750E0,4.418960724E0,-2.881807251E0,1.148262177E0,5.399123349E0
3.655332750E0,2.211950226E0,-2.073338470E0,2.186952209E-1,3.039619025E0
3.665340750E0,6.732998657E-1,-1.255888367E0,-1.499880981E-1,1.432858935E0
3.675348750E0,-1.007854156E0,-9.636959839E-1,-2.118245087E0,2.536028824E0
3.685357750E0,-4.381239166E0,-2.297422485E0,-7.705825653E0,9.157136873E0
3.695365833E0,-5.261708221E0,-2.021995239E0,-6.951993256E0,8.950097674E0
3.705373833E0,-4.545597382E0,-8.217910767E-1,-3.812871094E0,5.989639564E0
3.715382833E0,-3.825145569E0,-9.325607300E-2,-1.037193146E0,3.964366903E0
3.725390833E0,-3.432811432E0,4.379891968E-1,1.291364594E0,3.693731362E0
3.735398833E0,-3.364852753E0,7.077282715E-1,2.646047516E0,4.338741846E0
3.745407833E0,-3.187321930E0,8.524772644E-1,2.753524017E0,4.297398409E0
3.755415833E0,-3.140619049E0,7.711962891E-1,2.258952484E0,3.944755766E0
3.765423833E0,-3.219654694E0,7.444020081E-1,1.786684570E0,3.756667732E0
3.775432833E0,-3.222798157E0,6.384223938E-1,1.346150665E0,3.550511615E0
3.785440833E0,-2.958747253E0,5.737568665E-1,1.000369720E0,3.175550634E0
3.795448833E0,-2.420765991E0,5.686674500E-1,7.967930603E-1,2.611200841E0
3.805457833E0,-1.644180908E0,4.249662781E-1,1.077309723E0,2.011100056E0
3.815465833E0,-8.759783936E-1,2.225871277E-1,1.815574493E0,2.028101062E0
3.825473833E0,-2.685415649E-1,2.486329651E-1,2.764002228E0,2.788125040E0
3.835482833E0,3.397933960E-2,4.062551880E-1,3.816014557E0,3.837729143E0
3.845490833E0,2.510279846E-1,8.217910767E-1,6.220464478E0,6.279532940E0
3.855498833E0,1.594334564E0,2.025737457E0,8.536897430E0,8.917630441E0
3.865506833E0,8.631500702E0,5.167254639E0,1.156060959E1,1.532484972E1
3.875515833E0,2.556518692E1,6.909032593E0,1.724099716E1,3.160008697E1
3.885523833E0,5.147929825E1,4.785099335E0,1.248658401E1,5.318768752E1
3.895531833E0,7.400939667E1,-5.195096741E0,-3.609593811E0,7.427926354E1
3.905540833E0,6.743042770E1,-1.125120300E1,-1.990261230E1,7.120088571E1
3.915548833E0,4.137081894E1,-2.432591400E0,-2.075314362E1,4.634819447E1
3.925556833E0,2.497406616E1,1.209185486E0,-5.922583923E0,2.569519625E1
3.935565833E0,1.775906982E1,5.146298218E-1,4.226161652E0,1.826225197E1
3.945573833E0,9.509724426E0,7.351213074E-1,8.303233337E0,1.264590629E1
3.955581833E0,5.525609436E0,-3.179388428E-1,8.525072021E0,1.016416734E1
3.965590833E0,5.168751526E0,-1.486708374E0,4.993316345E0,7.338903341E0
3.975598833E0,3.581901398E0,-1.620979156E0,2.260748749E0,4.535259194E0
3.985606833E0,1.814526672E0,-1.252295837E0,1.026265869E0,2.431866268E0
3.995615833E0,5.114863586E-1,-6.878196716E-1,3.704795837E-1,9.337929737E-1
4.005623833E0,-3.570075989E-1,-1.160087585E-1,-3.772155762E-2,3.772736058E-1
4.015631833E0,-1.534758453E0,-6.391708374E-2,-1.882784729E0,2.429906838E0
4.025640833E0,-5.353617096E0,-1.159788208E0,-9.561067657E0,1.101908977E1
4.035648833E0,-5.915249176E0,-7.212002563E-1,-8.964109039E0,1.076408628E1
4.045656833E0,-4.602628784E0,1.968406677E-1,-5.319787445E0,7.037263419E0
4.055665833E0,-3.644321594E0,8.086184692E-1,-2.072290649E0,4.269582210E0
4.065673833E0,-2.955304413E0,1.100212097E0,3.550616455E-1,3.173382990E0
4.075681833E0,-2.628384247E0,1.097817078E0,1.734143829E0,3.334795482E0
4.085690833E0,-2.598147125E0,1.119372253E0,2.217039642E0,3.594249226E0
4.095698833E0,-2.631228333E0,1.148262177E0,2.014510803E0,3.507153025E0
4.105706833E0,-2.790946198E0,1.215023346E0,2.152972870E0,3.728398394E0
4.115715833E0,-2.722239075E0,1.279239807E0,2.387834473E0,3.840415802E0
4.125723833E0,-2.163301392E0,1.036594391E0,2.681972809E0,3.598246655E0
4.135731833E0,-1.557511139E0,6.713539124E-1,3.642375641E0,4.017892150E0
4.145740833E0,-8.681945801E-1,2.441423035E-1,4.946314087E0,5.027861408E0
4.155748833E0,-4.349954224E-1,1.377136230E-2,6.358627167E0,6.373503755E0
4.165756833E0,8.397537231E-2,1.529818726E-1,7.776478729E0,7.778436652E0
4.175765833E0,1.246158600E0,1.546134796E0,1.109762238E1,1.127389314E1
4.185773833E0,7.153174896E0,4.814288635E0,1.475601471E1,1.709050193E1
4.195781833E0,2.228490829E1,6.773414612E0,1.807775711E1,2.948392079E1
4.205790833E0,4.516408081E1,5.064119110E0,1.148501678E1,4.687584781E1
4.215798833E0,6.744868973E1,-6.923103333E-1,-1.209185486E0,6.746308004E1
4.225806833E0,6.716173645E1,-6.173013153E0,-1.468521194E1,6.902507069E1
4.235815833E0,4.479764282E1,-1.621727600E0,-1.263133301E1,4.657262475E1
4.245823833E0,2.795376984E1,1.526525574E0,-7.226821747E0,2.891315412E1
4.255831833E0,1.818149139E1,1.349892883E0,-7.358398132E0,1.966048990E1
4.265840833E0,1.029379395E1,2.544708252E-1,-7.455995178E0,1.271293881E1
4.275848833E0,3.162772980E0,-1.520538025E0,9.343569946E-1,3.631555011E0
4.285856833E0,3.785927124E0,-3.074606323E0,5.611680450E0,7.434877653E0
4.295865833E0,4.071832581E0,-3.125201111E0,3.080743561E0,5.986458338E0
4.305873833E0,3.002156982E0,-2.916085968E0,1.570384369E0,4.470191381E0
4.315881833E0,2.017354889E0,-2.527943115E0,4.266128540E-1,3.262240897E0
4.325890833E0,4.504133606E-1,-2.387684784E0,-2.693648529E0,3.627623633E0
4.335898833E0,-2.925067291E0,-3.638034668E0,-1.102771774E1,1.197505213E1
4.345906833E0,-4.320914612E0,-2.663112030E0,-8.017178192E0,9.488815254E0
4.355915833E0,-3.938908997E0,-1.279988251E0,-3.695814514E0,5.550893525E0
4.365923833E0,-3.291654968E0,-3.585044861E-1,-5.313949585E-1,3.353490495E0
4.375931833E0,-2.763253784E0,3.935316467E-1,2.366728363E0,3.659486546E0
4.385940833E0,-2.443219299E0,9.187893677E-1,3.888613586E0,4.683461334E0
4.395948833E0,-2.322121124E0,1.218615875E0,3.921545105E0,4.717603966E0
4.405956833E0,-2.611768799E0,1.348246307E0,3.503165131E0,4.572884243E0
4.415965833E0,-2.425855408E0,1.283431091E0,2.757415924E0,3.890412883E0
4.425973833E0,-1.906734924E0,8.699908447E-1,1.623523865E0,2.651103899E0
4.435981833E0,-1.758094025E0,5.813909912E-1,1.024918671E0,2.116451834E0
4.445990833E0,-1.579216003E0,2.567161560E-1,7.680528259E-1,1.774748296E0
4.455998833E0,-1.357976074E0,-8.472381592E-2,8.175997925E-1,1.587370960E0
4.466006833E0,-8.990304565E-1,-3.414399719E-1,1.184636536E0,1.525844270E0
4.476015833E0,-2.360591125E-1,-3.854484558E-1,2.046394501E0,2.095715837E0
4.486023833E0,3.031196594E-1,-3.493734741E-1,3.405568085E0,3.436835366E0
4.496031833E0,9.177415466E-1,-2.516267395E-1,4.703369293E0,4.798671511E0
4.506040833E0,3.182531891E0,4.541555786E-1,6.055058441E0,6.855545146E0
4.516048833E0,1.004575974E1,2.279010773E0,9.362281036E0,1.391989529E1
4.526056833E0,2.557910797E1,2.901117096E0,1.341540253E1,2.902895572E1
4.536065833E0,5.101556259E1,2.243534546E0,1.036818924E1,5.210681742E1
4.546073833E0,7.180657745E1,9.416917419E-1,-1.766177216E0,7.183446757E1
4.556081833E0,6.608487579E1,-7.547305298E-1,-1.209619583E1,6.718704027E1
4.566090833E0,4.259916458E1,1.344354401E0,-1.111992599E1,4.404712097E1
4.576098833E0,2.423190948E1,2.221979370E0,-1.500913834E1,2.859015326E1
4.586106833E0,1.407163788E1,2.534230042E-1,-7.934849396E0,1.615664107E1
4.596115833E0,9.003926239E0,-2.135908356E0,7.126829681E0,1.168008962E1
4.606123833E0,9.362430725E0,-3.872596893E0,8.455915833E0,1.319676583E1
4.616131833E0,7.404951324E0,-3.530109100E0,5.436394958E0,9.841207473E0
4.626140833E0,4.901407471E0,-2.751578064E0,3.061583405E0,6.400646059E0
4.636148833E0,2.671644287E0,-1.814227295E0,1.681902466E0,3.641139901E0
4.646156833E0,9.659413147E-1,-9.119036865E-1,1.031504974E0,1.681848230E0
4.656165833E0,-1.239422607E-1,-1.875599670E-1,6.125262451E-1,6.524789852E-1
4.666173833E0,-7.129673767E-1,2.393522644E-1,4.460723877E-1,8.744098363E-1
4.676181833E0,-2.401605835E0,-9.175918579E-2,-2.845283203E0,3.724482090E0
4.686190833E0,-4.516707458E0,-7.463479614E-1,-6.571035461E0,8.008507263E0
4.696199375E0,-4.521497498E0,-4.267625427E-1,-5.390290833E0,7.048496375E0
4.706207375E0,-3.971840515E0,2.062710571E-1,-3.258424072E0,5.141535983E0
4.716216375E0,-3.523672485E0,7.900570679E-1,-1.295705566E0,3.836575409E0
4.726224375E0,-3.373684387E0,1.213676147E0,1.227447510E-2,3.585374011E0
4.736232375E0,-3.276386719E0,1.461860046E0,8.849597168E-1,3.695253500E0
4.746241375E0,-3.104244690E0,1.365011444E0,1.575324097E0,3.739149281E0
4.756249375E0,-3.046315155E0,1.012644196E0,1.785187683E0,3.673197429E0
4.766257375E0,-3.002007294E0,6.863227844E-1,1.634900208E0,3.486543481E0
4.776266375E0,-2.510728912E0,3.375480652E-1,1.625469818E0,3.009958554E0
4.786274375E0,-1.692081299E0,-1.411564636E-1,2.103874969E0,2.703581727E0
4.796282375E0,-8.325686646E-1,-3.285667419E-1,3.013383636E0,3.143502446E0
4.806291375E0,-1.459465027E-1,-2.311193848E-1,4.072581024E0,4.081743837E0
4.816299375E0,3.603007507E-1,-1.113684082E-1,5.449268188E0,5.462302019E0
4.826307375E0,1.093625793E0,2.656974792E-1,7.347021790E0,7.432721016E0
4.836316375E0,4.486170959E0,2.199975128E0,9.711953888E0,1.092188943E1
4.846324375E0,1.629556320E1,5.262606354E0,1.482696716E1,2.265125517E1
4.856332375E0,3.775284256E1,5.748945007E0,1.577434708E1,4.131776271E1
4.866341375E0,6.400390320E1,7.978408813E-1,7.063661041E0,6.439744934E1
4.876349375E0,7.260067612E1,-7.953410797E0,-5.838309174E0,7.326800646E1
4.886357375E0,5.302872620E1,-7.831264801E0,-1.186657333E1,5.490163999E1
4.896366375E0,3.120201508E1,-1.624571686E0,-1.194051956E1,3.344818359E1
4.906374375E0,1.982402573E1,-3.083587646E-1,-5.886508942E0,2.068182943E1
4.916382375E0,1.178020294E1,-6.050418091E-1,4.216880951E0,1.252682489E1
4.926391375E0,8.368347931E0,-1.663939819E0,7.069798279E0,1.108061327E1
4.936399375E0,7.116201782E0,-2.374961243E0,4.243824921E0,8.619212184E0
4.946407375E0,4.923561401E0,-2.192640381E0,2.207609253E0,5.824316898E0
4.956416375E0,2.725532227E0,-1.695075073E0,1.304836578E0,3.464737208E0
4.966424375E0,9.744735718E-1,-1.082848206E0,8.928932190E-1,1.708630235E0
4.976432375E0,-9.535171509E-2,-5.069956970E-1,6.002517700E-1,7.914788524E-1
4.986441375E0,-6.945556641E-1,-6.646179199E-2,4.366419983E-1,8.230923247E-1
4.996449375E0,-1.754501495E0,-1.466949463E-1,-1.095272369E0,2.073503428E0
5.006457375E0,-3.888314209E0,-8.035290527E-1,-5.053940277E0,6.427048985E0
5.016466375E0,-4.286186829E0,-7.036866760E-1,-5.010380859E0,6.631024719E0
5.026474375E0,-3.822451172E0,-2.044747925E-1,-2.742596741E0,4.709010489E0
5.036482375E0,-3.256328430E0,3.053649902E-1,-4.355941772E-1,3.299494645E0
5.046491375E0,-3.048261108E0,4.487667847E-1,1.178499298E0,3.298810090E0
5.056499375E0,-3.100801849E0,4.336482239E-1,2.078727264E0,3.758208341E0
5.066507375E0,-3.105442200E0,3.393443298E-1,2.134112091E0,3.783300179E0
5.076516375E0,-3.184028778E0,2.673440552E-1,1.663939819E0,3.602527977E0
5.086524375E0,-3.098706207E0,1.875599670E-1,1.136436768E0,3.305850485E0
5.096532375E0,-2.719844055E0,1.074765015E-1,9.840536499E-1,2.894384990E0
5.106541375E0,-1.998943176E0,6.765930176E-2,1.134341125E0,2.299365432E0
5.116549375E0,-1.204844513E0,-2.739303589E-2,1.364263000E0,1.820333545E0
5.126557375E0,-4.887336731E-1,8.083190918E-3,1.861828308E0,1.924923528E0
5.136566375E0,-8.577163696E-2,1.100212097E-1,2.746488647E0,2.750029333E0
5.146574375E0,1.362167358E-1,9.610015869E-2,3.814817047E0,3.818457718E0
5.156582375E0,4.415817261E-1,2.351609802E-1,5.241649933E0,5.265471406E0
5.166591375E0,2.244282990E0,1.332678680E0,6.629114685E0,7.124464900E0
5.176599375E0,1.276994476E1,4.611310730E0,1.048464706E1,1.715411029E1
5.186608375E0,3.592783768E1,7.109465790E0,1.607357483E1,3.999642274E1
5.196616375E0,6.752622849E1,4.925357666E0,8.690328369E0,6.826106129E1
5.206624375E0,7.804320831E1,-5.446274414E0,-6.367159424E0,7.849168738E1
5.216633375E0,6.050477966E1,-7.741451569E0,-1.211490692E1,6.218946377E1
5.226641375E0,3.616210052E1,-7.580236816E-1,-1.139445511E1,3.792236440E1
5.236649375E0,2.083681961E1,1.110989685E0,-9.783804474E0,2.304626173E1
5.246658375E0,1.066172882E1,6.071374512E-1,-4.373904419E0,1.154002241E1
5.256666375E0,5.001249847E0,-5.367837524E-1,4.541406097E0,6.776799110E0
5.266674375E0,5.404660950E0,-1.962868195E0,5.470074921E0,7.936304629E0
5.276683375E0,4.259242859E0,-2.105072479E0,2.629881134E0,5.430354929E0
5.286691375E0,2.295626221E0,-1.593137054E0,1.075812836E0,2.994220880E0
5.296699375E0,5.688171387E-1,-8.382568359E-1,5.248086548E-1,1.140899463E0
5.306708375E0,-5.767506409E-1,-7.993377686E-2,2.627037048E-1,6.387831768E-1
5.316716375E0,-1.999990997E0,-1.122665405E-2,-2.037712555E0,2.855234226E0
5.326724375E0,-5.426814880E0,-1.052012329E0,-8.878038025E0,1.045832725E1
5.336733375E0,-5.689668274E0,-6.505471802E-1,-8.263116760E0,1.005358818E1
5.346741375E0,-4.585264893E0,3.336561584E-1,-4.444407806E0,6.394430492E0
5.356749375E0,-3.635939026E0,1.101708984E0,-1.021475830E0,3.934110847E0
5.366758375E0,-3.412753143E0,1.515298920E0,1.611997833E0,4.067130665E0
5.376766375E0,-3.534599762E0,1.858385468E0,3.423381042E0,5.259898268E0
5.386774375E0,-3.939058685E0,2.045196991E0,4.003724213E0,5.977359085E0
5.396783375E0,-3.871249695E0,1.992057495E0,3.483855286E0,5.576030390E0
5.406791375E0,-3.424578552E0,1.470242615E0,2.497406616E0,4.486244689E0
5.416799375E0,-2.897225189E0,9.538165283E-1,1.958377533E0,3.624765141E0
5.426808375E0,-2.126627655E0,3.779640198E-1,2.537672882E0,3.332444394E0
5.436816375E0,-1.187480621E0,-4.146377563E-2,3.526217194E0,3.721026359E0
5.446824375E0,-6.125262451E-1,-3.089575195E-1,4.407135315E0,4.460211299E0
5.456833375E0,-1.797761536E-1,-4.863386536E-1,5.272934875E0,5.298366442E0
5.466841375E0,3.023712158E-1,-3.806584167E-1,5.434898071E0,5.456596579E0
5.476850375E0,1.899699554E0,8.283773804E-1,5.822741547E0,6.180565233E0
5.486858375E0,1.118638779E1,2.211650848E0,6.805298309E0,1.327926038E1
5.496866375E0,3.113675079E1,1.619482269E0,7.261998596E0,3.201338152E1
5.506875375E0,5.727090454E1,3.390449524E-1,5.102888489E-1,5.727418138E1
5.516883375E0,7.407151749E1,-4.543052673E-1,-1.006372238E1,7.475342537E1
5.526891375E0,6.101836166E1,-1.345701599E0,-9.420509949E0,6.175595016E1
5.536900375E0,3.779715042E1,-1.010847931E0,-2.091151428E0,3.786844739E1
5.546908375E0,2.454206451E1,-7.668553162E-1,9.924362183E-2,2.455424295E1
5.556916375E0,1.534683609E1,-1.278341675E0,4.376898193E-1,1.540620355E1
5.566925375E0,7.559579773E0,-1.968706055E0,2.201022949E0,8.115882694E0
5.576933375E0,6.014043732E0,-2.765499115E0,3.301384735E0,7.397016191E0
5.586941375E0,4.374503174E0,-2.722837830E0,1.623972931E0,5.402537547E0
5.596950375E0,2.604883118E0,-2.272873535E0,1.592687988E-1,3.460742220E0
5.606958375E0,9.614506531E-1,-1.632954254E0,-8.966354370E-1,2.096397401E0
5.616966375E0,-1.500180359E0,-1.662891998E0,-5.318739624E0,5.771026087E0
5.626975375E0,-5.789061584E0,-3.425326996E0,-1.257100845E1,1.425750163E1
5.636983375E0,-6.715934143E0,-2.713257751E0,-9.947713623E0,1.230538684E1
5.646991375E0,-5.602100372E0,-1.144819336E0,-5.157225494E0,7.700072382E0
5.657000375E0,-5.040468292E0,-1.457968140E-1,-1.523681488E0,5.267749291E0
5.667008375E0,-5.044060822E0,5.795947266E-1,2.019450531E0,5.464124822E0
5.677016375E0,-5.205425262E0,1.199605408E0,4.840334473E0,7.208629766E0
5.687025375E0,-3.785927124E0,1.105301514E0,4.677024078E0,6.117964519E0
5.697032500E0,-3.647165680E0,8.991801453E-1,3.999383240E0,5.486839594E0
5.707041500E0,-3.128194885E0,5.505551147E-1,2.614762573E0,4.114085255E0
5.717049500E0,-2.158810730E0,-1.661544800E-2,1.096020813E0,2.421157051E0
5.727057500E0,-1.945803680E0,-2.724334717E-1,9.587562561E-1,2.186226319E0
5.737066500E0,-1.520687714E0,-5.239105225E-1,1.213526459E0,2.014849827E0
5.747074500E0,-7.866142273E-1,-8.276289368E-1,1.970053253E0,2.277024686E0
5.757082500E0,-1.475930786E-1,-9.261241150E-1,3.245401154E0,3.378182683E0
5.767091500E0,2.752775574E-1,-7.562274170E-1,5.097050629E0,5.160192123E0
5.777099500E0,1.522633667E0,-3.291654968E-1,6.904242554E0,7.077805341E0
5.787107500E0,8.263865204E0,1.632954254E0,9.170978851E0,1.245250420E1
5.797116500E0,2.489113861E1,3.776197357E0,1.332798431E1,2.848620041E1
5.807124500E0,4.800592117E1,4.002077637E0,9.086704102E0,4.902196737E1
5.817132500E0,6.770869904E1,-1.154549103E0,-4.640649719E0,6.787736396E1
5.827141500E0,6.419370850E1,-8.182733917E0,-1.261366974E1,6.593097913E1
5.837149500E0,4.392780167E1,-3.998784485E0,-9.150172119E0,4.504850371E1
5.847157500E0,2.679443069E1,7.005432129E-1,-8.065228271E0,2.799071603E1
5.857166500E0,1.614976639E1,1.207089844E0,-1.007270370E1,1.907174298E1
5.867174500E0,7.027436371E0,6.837780762E-1,-2.011517029E0,7.341567623E0
5.877183500E0,5.546266479E0,-1.557810516E0,7.684869232E0,9.604429217E0
5.887191500E0,6.907086639E0,-3.099454651E0,4.873415680E0,9.003590693E0
5.897199500E0,4.836891632E0,-2.708168335E0,2.306553497E0,6.004155680E0
5.907208500E0,2.663411407E0,-1.875899048E0,1.268162842E0,3.495853909E0
5.917216500E0,1.121168518E0,-1.104553070E0,6.713539124E-1,1.711073466E0
5.927224500E0,3.293151855E-2,-3.866459656E-1,3.285667419E-1,5.084640514E-1
5.937233500E0,-6.307882690E-1,5.343887329E-2,2.284249878E-1,6.729989068E-1
5.947241500E0,-1.778302002E0,-1.062789917E-1,-1.857786713E0,2.573912334E0
5.957249500E0,-4.340074768E0,-8.042774963E-1,-6.788832550E0,8.097614382E0
5.967258500E0,-4.586462402E0,-4.989125061E-1,-6.024671631E0,7.588228997E0
5.977266500E0,-3.761677551E0,1.607656860E-1,-3.060535583E0,4.852106930E0
5.987274500E0,-3.017275543E0,7.029382324E-1,-1.686991882E-1,3.102665512E0
5.997283500E0,-2.650238800E0,1.007854156E0,1.789828033E0,3.353061301E0
6.007291500E0,-2.582130432E0,1.249302063E0,2.737956390E0,3.965420332E0
6.017299500E0,-2.507435760E0,1.348545685E0,2.829416199E0,4.013901541E0
6.027308500E0,-2.500699768E0,1.196312256E0,2.619103546E0,3.813707609E0
6.037316500E0,-2.461032257E0,9.993218994E-1,2.565664673E0,3.692960769E0
6.047325500E0,-1.937570801E0,6.394702148E-1,2.794838104E0,3.460378996E0
6.057333500E0,-1.071771240E0,1.996847534E-1,3.225642242E0,3.404898746E0
6.067341500E0,-4.005670166E-1,-5.014572144E-2,3.689377899E0,3.711398363E0
6.077350500E0,-3.891906738E-3,-7.843688965E-2,4.484524384E0,4.485211973E0
6.087358500E0,2.989283752E-1,5.598358154E-2,5.635480957E0,5.643681241E0
6.097366500E0,1.055604858E0,7.849676514E-1,6.720275116E0,6.847815233E0
6.107375500E0,5.691913605E0,3.196003876E0,9.012907562E0,1.112855894E1
6.117383500E0,2.041724213E1,4.750670929E0,1.334534821E1,2.485017040E1
6.127391500E0,4.497936493E1,4.164938965E0,1.128084137E1,4.655907396E1
6.137400500E0,7.030969025E1,2.137554932E-1,-2.218386841E-1,7.031036514E1
6.147408500E0,6.926351578E1,-6.611451416E0,-1.323862015E1,7.082659791E1
6.157416500E0,4.406641342E1,-4.974455566E0,-1.536360123E1,4.693223032E1
6.167425500E0,2.547956497E1,-7.572752380E-1,-1.005773483E1,2.740327949E1
6.177433500E0,1.606788666E1,-5.080435181E-1,-8.023315430E-1,1.609592575E1
6.187442500E0,8.784332886E0,-1.019679565E0,7.140451355E0,1.136619093E1
6.197450500E0,7.123835907E0,-2.173031158E0,6.540199585E0,9.911877373E0
6.207458500E0,5.816304932E0,-2.648143158E0,3.101101227E0,7.103442409E0
6.217467500E0,3.466042328E0,-2.304757233E0,1.243164825E0,4.344055030E0
6.227475500E0,1.506766663E0,-1.797162781E0,3.803590393E-1,2.375881486E0
6.237483500E0,1.739382935E-1,-1.169218597E0,6.526428223E-2,1.183886010E0
6.247492500E0,-5.596861267E-1,-5.647755432E-1,-7.214996338E-2,7.983893736E-1
6.257500500E0,-1.076860657E0,-2.646496582E-1,2.544708252E-3,1.108907025E0
6.267508500E0,-2.860102386E0,-9.464817810E-1,-3.201692047E0,4.396230816E0
6.277517500E0,-4.532275085E0,-1.762584686E0,-5.958509216E0,7.691037271E0
6.287525500E0,-4.508624268E0,-1.313967590E0,-4.612807617E0,6.582719630E0
6.297533500E0,-4.044439545E0,-6.750961304E-1,-2.109563141E0,4.611236565E0
6.307542500E0,-3.790567474E0,-2.580633545E-1,2.323168945E-1,3.806437916E0
6.317550500E0,-3.745211792E0,-1.567240906E-1,1.886676636E0,4.196513140E0
6.327558500E0,-3.721261597E0,-3.628454590E-1,2.853216705E0,4.703221265E0
6.337567500E0,-3.565735016E0,-7.511380005E-1,2.819985809E0,4.607710328E0
6.347575500E0,-2.944676514E0,-9.241781616E-1,2.553390198E0,4.005624364E0
6.357584500E0,-2.176623688E0,-8.593629456E-1,2.629881134E0,3.520294040E0
6.367592500E0,-1.389261017E0,-7.551795959E-1,3.086880798E0,3.468310173E0
6.377600500E0,-5.876779175E-1,-7.129673767E-1,4.250411224E0,4.349676240E0
6.387609500E0,-1.347198486E-3,-4.662803650E-1,5.772146759E0,5.790949611E0
6.397617500E0,4.047583008E-1,-1.109193420E-1,7.511080627E0,7.522796327E0
6.407625500E0,1.461111603E0,-2.281256104E-1,7.729326782E0,7.869522280E0
6.417634500E0,7.159012756E0,-5.150788879E-1,7.221133575E0,1.018143114E1
6.427642500E0,2.276031967E1,-1.246907043E-1,9.828262024E0,2.479198326E1
6.437650500E0,4.545432724E1,1.585951996E0,7.409891052E0,4.608164053E1
6.447659500E0,6.701234711E1,2.877466278E0,-7.278015289E0,6.746779960E1
6.457667500E0,6.353807190E1,-3.378474426E0,-1.415965485E1,6.518432707E1
6.467676500E0,4.314178619E1,-3.542084198E0,-8.762328644E0,4.416490099E1
6.477684500E0,2.728810410E1,-3.794609070E-1,-5.083279266E0,2.776012147E1
6.487692500E0,1.751238281E1,7.711962891E-1,-5.446424103E0,1.835597535E1
6.497701500E0,8.353229370E0,1.469494171E0,-9.138646088E0,1.246798726E1
6.507709500E0,1.085692291E0,1.540296936E0,-6.676116943E-2,1.885656240E0
6.517717500E0,3.746109924E0,-1.216969299E0,6.359375610E0,7.480375124E0
6.527726500E0,4.446802826E0,-2.216740265E0,2.888094177E0,5.747093244E0
6.537734500E0,2.582280121E0,-1.634451141E0,1.557062073E0,3.429875137E0
6.547742500E0,1.148561554E0,-8.316705322E-1,1.179547119E0,1.844505604E0
6.557751500E0,4.370910645E-2,-9.639953613E-2,1.028062134E0,1.033496544E0
6.567759500E0,-1.495240631E0,1.278341675E-1,-1.270557861E0,1.966317217E0
6.577768500E0,-4.755760345E0,-3.126997375E-1,-7.922724609E0,9.245788383E0
6.587776500E0,-5.090164948E0,-7.544311523E-2,-7.618856506E0,9.163102385E0
6.597784500E0,-4.005071411E0,4.279600525E-1,-4.232598267E0,5.842827646E0
6.607793500E0,-3.002755737E0,7.643106079E-1,-1.008452911E0,3.258479707E0
6.617801500E0,-2.324665833E0,9.770182800E-1,1.349144440E0,2.859864800E0
6.627809500E0,-2.007475433E0,1.055155792E0,2.796634369E0,3.600621496E0
6.637818500E0,-2.089205475E0,1.194665680E0,3.795656891E0,4.494331634E0
6.647826500E0,-1.808838501E0,1.504221954E0,4.166884918E0,4.785134307E0
6.657834500E0,-1.098116455E0,1.534908142E0,3.656446381E0,4.114778595E0
6.667843500E0,-5.481600952E-1,1.065035248E0,2.956651611E0,3.190073404E0
6.677851500E0,-3.712280273E-1,7.122189331E-1,2.726130981E0,2.841981032E0
6.687859500E0,-1.546284485E-1,2.757266235E-1,3.005450134E0,3.022030052E0
6.697869958E0,1.628613281E-1,-1.323248291E-1,3.503614197E0,3.509892607E0
6.707877958E0,5.770500183E-1,-1.270857239E-1,4.051325226E0,4.094187782E0
6.717886958E0,2.090253296E0,2.939886475E-1,4.234095154E0,4.731083379E0
6.727894958E0,6.827003174E0,7.467970276E-1,4.596192169E0,8.263816345E0
6.737902958E0,1.840168350E1,1.526675262E0,4.801415405E0,1.907894869E1
6.747911958E0,4.224140854E1,3.613785095E0,2.523452454E0,4.247074111E1
6.757919958E0,6.729959976E1,4.568948822E0,-6.525530090E0,6.776941762E1
6.767927958E0,7.017182693E1,-4.532574463E-1,-9.214538269E0,7.077569112E1
6.777936958E0,4.935970596E1,-3.183430023E0,-1.062340851E0,4.947366337E1
6.787944958E0,3.115231842E1,-1.443148956E0,3.107088776E0,3.134012799E1
6.797953958E0,2.084625000E1,-1.332828369E0,4.207749939E0,2.130839576E1
6.807961958E0,1.250080444E1,-1.590143280E0,4.276307373E0,1.330734655E1
6.817969958E0,7.125781860E0,-2.185155945E0,3.312910767E0,8.156411673E0
6.827978958E0,5.793701935E0,-2.857407990E0,2.543959808E0,6.942873615E0
6.837986958E0,3.952231293E0,-2.691253510E0,1.105301514E0,4.907613379E0
6.847994958E0,1.982776794E0,-2.155218201E0,3.185375977E-1,2.945816612E0
6.858003958E0,6.767427063E-1,-1.516646118E0,3.577560425E-2,1.661167069E0
6.868011958E0,-1.170565796E-1,-8.021818542E-1,-1.038839722E-1,8.173064601E-1
6.878019958E0,-5.761518860E-1,-2.980302429E-1,-8.726852417E-2,6.545141838E-1
6.888028958E0,-9.138496399E-1,2.110610962E-2,5.777984619E-2,9.159176507E-1
6.898036958E0,-1.257385254E0,1.384620667E-1,3.126997375E-1,1.303061989E0
6.908044958E0,-2.029329987E0,5.239105225E-3,-1.658551025E-1,2.036103032E0
6.918053958E0,-3.935166779E0,-4.110452271E-1,-2.830464020E0,4.864773615E0
6.928061958E0,-5.589376831E0,-4.334985352E-1,-3.519630890E0,6.619430182E0
6.938070958E0,-6.575975189E0,-2.888992310E-1,-2.120041351E0,6.915308221E0
6.948078958E0,-6.388265533E0,9.430389404E-2,-3.577560425E-1,6.398970162E0
6.958086958E0,-5.597759399E0,3.001258850E-1,1.975142670E0,5.943582624E0
6.968095958E0,-4.766987000E0,2.206411743E-1,3.484903107E0,5.909094452E0
6.978103958E0,-3.873794403E0,1.835183716E-1,3.607498169E0,5.296603167E0
6.988111958E0,-2.787054291E0,1.169068909E-1,3.141966248E0,4.201581933E0
6.998120958E0,-1.813179474E0,-5.673202515E-2,2.547702026E0,3.127558783E0
7.008128958E0,-9.175918579E-1,-2.748284912E-1,1.941612396E0,2.165032151E0
7.018136958E0,-1.736389160E-2,-2.653981018E-1,1.979333954E0,1.997123070E0
7.028145958E0,9.807604980E-1,2.065704346E-1,4.314927063E0,4.429803388E0
7.038153958E0,2.741698608E0,8.934919739E-1,6.266867981E0,6.898468921E0
7.048162958E0,1.072100555E1,8.996292114E-1,6.845863953E0,1.275206438E1
7.058170958E0,3.145064804E1,-5.797444153E-1,1.110450806E1,3.335849914E1
7.068178958E0,5.731356583E1,-7.723937988E-2,9.207203522E0,5.804845726E1
7.078187958E0,7.358353226E1,-2.149530029E-1,-2.401456146E0,7.362302232E1
7.088195958E0,6.192861877E1,-4.406985626E0,-5.686674500E0,6.234511699E1
7.098203958E0,4.203558655E1,-4.124822388E0,-4.452640686E0,4.247152817E1
7.108212958E0,2.705324249E1,-1.551373901E0,-3.560795288E0,2.733064129E1
7.118220958E0,1.827100525E1,-1.151555328E0,-3.489244080E0,1.863680597E1
7.128229958E0,8.654852142E0,-2.082170105E-1,-1.469583984E1,1.705630466E1
7.138237958E0,-1.536704407E0,3.823049927E-1,-1.191597061E1,1.202073097E1
7.148245958E0,3.224295044E-1,-1.645977173E0,2.252665558E0,2.808505609E0
7.158254958E0,3.254382477E0,-2.615211639E0,1.844913483E0,4.564432383E0
7.168262958E0,2.728675690E0,-2.308349762E0,5.448669434E-2,3.574509539E0
7.178270958E0,1.378633118E-1,-1.864073639E0,-5.054988098E0,5.389497332E0
7.188279958E0,-3.418740692E0,-1.712888031E0,-9.158554688E0,9.924761825E0
7.198287958E0,-4.557572479E0,-9.879455566E-1,-6.888974304E0,8.318982527E0
7.208295958E0,-4.131708069E0,-2.631527710E-1,-3.320095825E0,5.306910329E0
7.218304958E0,-3.449277191E0,3.629951477E-1,5.495072937E-1,3.511586092E0
7.228312958E0,-3.018622742E0,8.274792480E-1,2.543361053E0,4.033049790E0
7.238321958E0,-2.618055725E0,1.106948090E0,3.641477509E0,4.619513859E0
7.248329958E0,-2.320624237E0,1.258732452E0,4.202959900E0,4.963323096E0
7.258337958E0,-2.318827972E0,1.253493347E0,3.848796387E0,4.664916115E0
7.268346958E0,-2.139650574E0,9.837542725E-1,2.680326233E0,3.567916165E0
7.278354958E0,-1.654509430E0,5.677693176E-1,1.732497253E0,2.461972824E0
7.288362958E0,-1.207239532E0,3.571572876E-1,1.298998718E0,1.808973822E0
7.298371958E0,-1.050814819E0,3.354524231E-1,1.312321014E0,1.714329769E0
7.308379958E0,-8.090675354E-1,3.597019958E-1,1.641935577E0,1.865456578E0
7.318388958E0,-3.671864319E-1,1.883084106E-1,2.455344086E0,2.489779210E0
7.328396958E0,2.423460388E-1,-9.011260986E-2,3.542084198E0,3.551508461E0
7.338404958E0,1.151405640E0,-1.429527283E-1,4.534221039E0,4.680313115E0
7.348413958E0,4.116739197E0,6.489006042E-1,5.339246979E0,6.773195103E0
7.358421958E0,1.195638657E1,1.867815857E0,5.912554779E0,1.346856413E1
7.368429958E0,2.869532776E1,3.680845642E0,5.318140869E0,2.941518455E1
7.378438958E0,5.176071304E1,4.849764862E0,3.832031250E-2,5.198743216E1
7.388446958E0,6.622543350E1,8.382568359E-1,-8.000413055E0,6.671219773E1
7.398455958E0,5.768718887E1,-4.167633362E0,-5.858068085E0,5.813344897E1
7.408463958E0,3.785463089E1,-2.131118317E0,8.473878479E-1,3.792404002E1
7.418471958E0,2.491883102E1,-3.462300110E-1,4.371958466E0,2.530181882E1
7.428480958E0,1.737706421E1,-9.240284729E-1,5.334157562E0,1.820080839E1
7.438488958E0,1.124282043E1,-1.375639343E0,5.633684692E0,1.265036751E1
7.448496958E0,5.859265594E0,-1.575922852E0,4.992418213E0,7.857401972E0
7.458505958E0,4.000431061E0,-2.242636414E0,2.621797943E0,5.282678413E0
7.468513958E0,2.762205963E0,-2.303110657E0,1.035247192E0,3.742437338E0
7.478522958E0,1.325044556E0,-2.003733215E0,4.405339050E-1,2.442285813E0
7.488530958E0,4.569996643E-1,-1.586101685E0,7.664062500E-2,1.652404621E0
7.498538958E0,-8.532257080E-2,-1.094673615E0,-6.945556641E-2,1.100188320E0
7.508547958E0,-5.483097839E-1,-6.697073364E-1,-1.707948303E-1,8.822258269E-1
7.518555958E0,-8.601113892E-1,-2.713856506E-1,-2.827619934E-1,9.451963384E-1
7.528563958E0,-1.024768982E0,1.796264648E-3,1.190025330E-1,1.031657063E0
7.538572958E0,-1.529369659E0,5.822891235E-2,-6.511459351E-2,1.531862289E0
7.548580958E0,-3.213816833E0,-2.541714478E-1,-2.854414215E0,4.305914801E0
7.558588958E0,-4.450095978E0,-3.477268982E-1,-4.462071075E0,6.311445673E0
7.568597958E0,-4.863236847E0,-2.621049500E-1,-3.782184906E0,6.166416650E0
7.578605958E0,-4.964725800E0,-4.966671753E-1,-1.856589203E0,5.323730273E0
7.588614958E0,-4.334087219E0,-7.015910339E-1,6.342311096E-1,4.436078347E0
7.598622958E0,-3.070115662E0,-8.122109985E-1,2.573897552E0,4.087816715E0
7.608630958E0,-1.941612396E0,-9.321116638E-1,3.314108276E0,3.952468155E0
7.618639958E0,-1.047521667E0,-9.729766846E-1,3.063679047E0,3.380845245E0
7.628647958E0,-2.450404358E-1,-9.089099121E-1,2.805466003E0,2.959189338E0
7.638655958E0,3.954776001E-1,-7.908055115E-1,2.631976776E0,2.776522580E0
7.648664958E0,9.762698364E-1,-6.978488159E-1,2.931653595E0,3.167757656E0
7.658672958E0,1.895059204E0,-1.345551910E0,4.084256744E0,4.699245949E0
7.668681958E0,5.749992828E0,-3.405268707E0,5.392685852E0,8.587160951E0
7.678689958E0,1.842009521E1,-5.072801056E0,8.553063812E0,2.093294339E1
7.688697958E0,3.883913361E1,-4.018842773E0,1.146316223E1,4.069439132E1
7.698705458E0,6.284980316E1,3.995491333E0,7.231312408E0,6.339048499E1
7.708713458E0,6.856641541E1,8.059390411E0,-2.991828461E0,6.910324256E1
7.718721458E0,5.369588882E1,3.704795837E-1,-5.026996307E0,5.393196106E1
7.728730458E0,3.642675018E1,-2.350262604E0,-4.121379547E0,3.673442027E1
7.738738458E0,2.439117828E1,-1.563199310E0,-3.780688019E0,2.473189787E1
7.748747458E0,1.498294281E1,-7.819738770E-1,-1.026595184E1,1.817937913E1
7.758755458E0,3.851640472E0,4.177812195E-1,-1.835078934E1,1.875529645E1
7.768763458E0,-5.779481506E-1,-3.388952637E-1,-6.725514221E-1,9.493152690E-1
7.778772458E0,2.783012695E0,-1.651216278E0,5.874683533E0,6.706980056E0
7.788780458E0,3.687731323E0,-1.857337646E0,3.047512665E0,5.131900124E0
7.798788458E0,2.439028015E0,-1.204545135E0,8.295748901E-1,2.843937612E0
7.808797458E0,-2.038610687E0,-3.882925415E-1,-9.617200928E0,9.838559768E0
7.818805458E0,-5.701643372E0,6.406677246E-2,-1.198542618E1,1.327265167E1
7.828814458E0,-5.679489441E0,6.472540283E-1,-5.706882477E0,8.077378640E0
7.838822458E0,-5.001848602E0,1.417402496E0,-1.130000153E0,5.320189811E0
7.848830458E0,-4.253854065E0,1.800755310E0,2.364632721E0,5.189362388E0
7.858839458E0,-3.401975555E0,1.771416321E0,2.767594757E0,4.729792194E0
7.868847458E0,-2.544109497E0,1.409019928E0,2.307301941E0,3.712340574E0
7.878855458E0,-2.042502594E0,1.103205872E0,1.748663635E0,2.906321481E0
7.888864458E0,-1.637444916E0,8.095166016E-1,1.288370819E0,2.235272321E0
7.898872458E0,-1.351988525E0,6.650669861E-1,1.210682373E0,1.932857697E0
7.908881458E0,-1.312021637E0,5.432203674E-1,1.389410706E0,1.986693548E0
7.918889458E0,-1.185834045E0,3.487747192E-1,1.389410706E0,1.859652736E0
7.928897458E0,-9.295669556E-1,1.264869690E-1,1.554816742E0,1.815915411E0
7.938906458E0,-4.200265503E-1,-2.192939758E-1,2.119741974E0,2.172053910E0
7.948914458E0,1.799258423E-1,-5.212161255E-1,3.285218353E0,3.331170843E0
7.958922458E0,9.849517822E-1,-8.050259399E-1,4.855902100E0,5.019759155E0
7.968931458E0,2.734513550E0,-1.139280853E0,6.113137665E0,6.793083050E0
7.978939458E0,8.847351837E0,-9.280700684E-1,7.251071320E0,1.147671486E1
7.988948458E0,2.462080078E1,1.429377594E0,8.086633759E0,2.595420191E1
7.998956458E0,4.991310516E1,4.650529175E0,5.235961761E0,5.040199187E1
8.008964458E0,7.182199539E1,5.670059052E0,-5.535937958E0,7.225783833E1
8.018973458E0,6.541456970E1,2.998265076E-1,-9.732760620E0,6.613533439E1
8.028981458E0,4.086891266E1,-1.485061798E0,-3.068020020E0,4.101080562E1
8.038990458E0,2.609972534E1,-2.279759216E-1,7.442523193E-1,2.611132987E1
8.048998458E0,1.821591980E1,-5.487588501E-1,2.858904877E0,1.844706501E1
8.059006458E0,1.169967041E1,-1.223106537E0,1.626218262E0,1.187530476E1
8.069015458E0,3.471580811E0,-1.639241180E0,-8.436456299E-1,3.930740760E0
8.079023458E0,2.396666107E0,-2.883603516E0,1.795366516E0,4.157224867E0
8.089031458E0,2.587070160E0,-3.050805817E0,7.897576904E-1,4.077261992E0
8.099040458E0,1.690734100E0,-2.502196655E0,7.259902954E-2,3.020735096E0
8.109048458E0,7.162605286E-1,-1.759441223E0,-3.507206726E-1,1.931752456E0
8.119057458E0,-1.962419128E-1,-1.046473846E0,-7.391629028E-1,1.296140500E0
8.129065458E0,-1.511556702E0,-8.755293274E-1,-2.999013519E0,3.470653736E0
8.139073458E0,-4.294419708E0,-2.274969177E0,-8.333171082E0,9.646723053E0
8.149082458E0,-5.572012939E0,-2.661166077E0,-7.962392120E0,1.007615112E1
8.159090458E0,-5.203329620E0,-1.547631683E0,-4.928800507E0,7.332317328E0
8.169098458E0,-4.454287262E0,-6.059399414E-1,-2.193239136E0,5.001813284E0
8.179107458E0,-3.952830048E0,-2.499801636E-2,2.119592285E-1,3.958587753E0
8.189115458E0,-3.657793579E0,2.415975952E-1,1.730700989E0,4.053782083E0
8.199123458E0,-3.377576294E0,2.118095398E-1,2.427801361E0,4.164985516E0
8.209132458E0,-3.228785706E0,-6.421646118E-2,2.396366730E0,4.021411990E0
8.219140458E0,-2.850671997E0,-6.054908752E-1,2.351011047E0,3.744356150E0
8.229149458E0,-1.990859985E0,-1.136736145E0,2.645748138E0,3.500810728E0
8.239157458E0,-8.683442688E-1,-1.354533234E0,2.989882507E0,3.395317284E0
8.249165458E0,-1.332229614E-2,-1.221759338E0,3.306773529E0,3.525283611E0
8.259174458E0,2.911445618E-1,-9.541159058E-1,3.585044861E0,3.721242934E0
8.269182458E0,3.188369751E-2,-6.719526672E-1,3.997137909E0,4.053350271E0
8.279191458E0,4.040098572E-1,-1.167721710E0,4.972060547E0,5.123298160E0
8.289199458E0,1.628313904E0,-2.763403473E0,6.249803467E0,7.024802367E0
8.299207458E0,6.471941528E0,-4.766238556E0,8.387807465E0,1.161715848E1
8.309216458E0,2.196098190E1,-4.128265228E0,1.247760269E1,2.559331688E1
8.319224458E0,4.950176056E1,1.498533783E0,1.102397552E1,5.073655426E1
8.329232458E0,7.504569168E1,6.079158325E0,-4.753065948E0,7.544139210E1
8.339241458E0,6.865667770E1,-7.500901794E-1,-1.823942093E1,7.104208967E1
8.349249458E0,4.560266876E1,-1.772464142E0,-1.392254791E1,4.771354491E1
8.359258458E0,2.743090714E1,8.053253174E-1,-5.402415619E0,2.796943528E1
8.369266458E0,1.779529449E1,1.185534668E0,2.857557678E-1,1.783703044E1
8.379274458E0,9.993518372E0,1.856589203E0,2.482437744E0,1.046326097E1
8.389283458E0,2.653531952E0,3.161276093E0,5.157075806E0,6.605325822E0
8.399291458E0,3.307372284E0,4.751119995E-1,4.640949097E0,5.718640691E0
8.409300458E0,2.841990051E0,-7.126679993E-1,1.634151764E0,3.354885261E0
8.419308458E0,1.095122681E0,-4.025129700E-1,7.402107239E-1,1.381746103E0
8.429316458E0,-2.320175171E-2,1.113684082E-1,4.558021545E-1,4.697838308E-1
8.439325458E0,-6.700067139E-1,5.194198608E-1,3.379971313E-1,9.126598760E-1
8.449333458E0,-9.530680847E-1,6.312373352E-1,3.288661194E-1,1.189517664E0
8.459341458E0,-9.958790588E-1,7.114704895E-1,1.645079041E-1,1.234920324E0
8.469350458E0,-1.331181793E0,7.650590515E-1,-6.460565186E-1,1.665757889E0
8.479358458E0,-3.547622681E0,1.421743469E0,-5.736670532E0,6.893211876E0
8.489367458E0,-4.926255798E0,1.908680878E0,-8.017178192E0,9.601364749E0
8.499375458E0,-4.964127045E0,2.125729523E0,-5.907465363E0,8.003713534E0
8.509383458E0,-4.596491547E0,2.046244812E0,-3.213966522E0,5.970295903E0
8.519392458E0,-3.907025299E0,1.681154022E0,-5.306465149E-1,4.286340077E0
8.529400458E0,-3.477119293E0,1.538650360E0,1.831441498E0,4.220424323E0
8.539408458E0,-3.087030487E0,1.510059814E0,3.550466766E0,4.941239939E0
8.549417458E0,-2.467917938E0,1.301693115E0,4.249662781E0,5.083764124E0
8.559425458E0,-1.587299194E0,9.948312378E-1,4.358336792E0,4.743870521E0
8.569434458E0,-7.985893250E-1,6.698570251E-1,4.338428192E0,4.461884414E0
8.579442458E0,-2.423460388E-1,4.712200928E-1,4.287683716E0,4.320302261E0
8.589450458E0,2.026785278E-1,3.207829285E-1,4.306694183E0,4.323377738E0
8.599459458E0,6.497987366E-1,1.672023010E-1,4.078119507E0,4.132947341E0
8.609467458E0,1.474882965E0,-7.424560547E-2,3.864364014E0,4.136919313E0
8.619476458E0,4.270319824E0,-6.951544189E-1,4.622687073E0,6.331516946E0
8.629484458E0,1.343800552E1,-8.660989380E-1,6.271508331E0,1.485469409E1
8.639492458E0,3.349165375E1,-1.913919983E0,6.234535217E0,3.412071790E1
8.649501458E0,6.091777084E1,1.485510864E0,4.272415466E0,6.108547357E1
8.659509458E0,7.386883896E1,7.420668640E0,-4.662354584E0,7.438688891E1
8.669518458E0,5.593493271E1,2.259700928E0,-4.940326538E0,5.619812961E1
8.679526458E0,3.408771423E1,-2.381397858E0,1.535806274E-1,3.417114140E1
8.689534458E0,2.290132645E1,-3.069666595E0,2.462080078E0,2.323694137E1
8.699543875E0,1.594633942E1,-3.695664825E0,3.459156647E0,1.673049443E1
8.709551875E0,9.983788605E0,-3.710334320E0,3.477568359E0,1.120428924E1
8.719559875E0,3.867657166E0,-3.529510345E0,2.646197205E0,5.866734601E0
8.729568875E0,1.790127411E0,-3.417692871E0,5.638774109E-1,3.899120214E0
8.739576875E0,1.226998444E0,-2.908601532E0,1.438508606E-1,3.160091948E0
8.749585875E0,5.307962036E-1,-2.225122833E0,-3.544628906E-1,2.314856405E0
8.759593875E0,-5.927673340E-2,-1.566941528E0,-6.074368286E-1,1.681606073E0
8.769601875E0,-7.985893250E-1,-1.176703033E0,-1.502425690E0,2.068733403E0
8.779610875E0,-2.087708588E0,-1.435065765E0,-4.606969757E0,5.257576556E0
8.789618875E0,-3.937262421E0,-2.306852875E0,-7.901768188E0,9.124776494E0
8.799627875E0,-4.239483948E0,-1.767524414E0,-5.686674500E0,7.309968096E0
8.809635875E0,-3.674858093E0,-8.448431396E-1,-2.951113129E0,4.788257578E0
8.819643875E0,-3.139122162E0,-1.904040527E-1,-5.698649597E-1,3.196105086E0
8.829652875E0,-2.836451569E0,2.204914856E-1,1.391656036E0,3.167140748E0
8.839660875E0,-2.623893585E0,3.751199341E-1,2.673889618E0,3.764999097E0
8.849668875E0,-2.601140900E0,3.291654968E-1,3.113675079E0,4.070535150E0
8.859677875E0,-2.639461212E0,6.361770630E-2,3.183280334E0,4.135707484E0
8.869685875E0,-2.293979645E0,-6.700067139E-1,3.378474426E0,4.138277547E0
8.879694875E0,-1.460363159E0,-1.591939545E0,3.595672760E0,4.194734159E0
8.889702875E0,-7.059320068E-1,-1.945653992E0,3.955225067E0,4.464046907E0
8.899710875E0,-1.194515991E-1,-1.727856903E0,4.390070801E0,4.719372818E0
8.909719875E0,2.697390747E-1,-1.350491638E0,4.711751862E0,4.908889125E0
8.919727875E0,6.391708374E-1,-1.394350433E0,4.803660736E0,5.042609340E0
8.929736875E0,2.065105591E0,-2.298769684E0,5.005141754E0,5.882214476E0
8.939744875E0,7.080725555E0,-4.204756165E0,5.781577148E0,1.006197213E1
8.949752875E0,1.972044113E1,-5.359454956E0,7.812703400E0,2.187825154E1
8.959761875E0,4.147380478E1,-3.891307983E0,8.165370026E0,4.244869878E1
8.969769875E0,6.541277344E1,3.685186615E0,-2.074535980E0,6.554933431E1
8.979777875E0,6.976871521E1,5.711971893E0,-1.115435440E1,7.088525846E1
8.989786875E0,5.086332916E1,-1.366807709E0,-8.248746643E0,5.154598178E1
8.999794875E0,3.235117538E1,-2.107617188E0,-4.328848114E0,3.270748423E1
9.009803875E0,2.112661697E1,-1.258433075E0,-3.077600098E0,2.138665988E1
9.019811875E0,1.272204437E1,-6.304888916E-1,-6.796167297E0,1.443730651E1
9.029819875E0,4.069736938E0,4.553530884E-1,-6.277944946E0,7.495511853E0
9.039828875E0,1.812131653E0,-3.083587646E-1,4.529880066E0,4.888631676E0
9.049836875E0,4.242328033E0,-1.819167023E0,4.621639252E0,6.531941914E0
9.059845875E0,3.664529572E0,-1.826052704E0,1.896855469E0,4.512350399E0
9.069853875E0,2.230212250E0,-1.159189453E0,1.222507782E0,2.795012011E0
9.079861875E0,1.178648987E0,-4.980143738E-1,7.183561707E-1,1.467401560E0
9.089870875E0,2.438429260E-1,6.346801758E-2,4.394860840E-1,5.065921237E-1
9.099878875E0,-4.799020386E-1,3.980223083E-1,3.559597778E-1,7.179380809E-1
9.109887875E0,-1.808239746E0,6.023474121E-1,-1.886377258E0,2.681598878E0
9.119895875E0,-3.654949493E0,6.674620056E-1,-4.207450562E0,5.613091978E0
9.129903875E0,-4.080364838E0,7.776329041E-1,-3.615281982E0,5.506755302E0
9.139912875E0,-3.765719147E0,8.891510010E-1,-2.753973083E0,4.749273412E0
9.149920875E0,-3.373235321E0,8.517288208E-1,-1.981429596E0,4.003775938E0
9.159928875E0,-3.127745819E0,7.194039917E-1,-1.143023071E0,3.406880942E0
9.169937875E0,-2.860850830E0,6.650669861E-1,2.689906311E-1,2.949430034E0
9.179945875E0,-2.479743347E0,5.303471375E-1,1.786085815E0,3.101692714E0
9.189954875E0,-2.148332520E0,3.607498169E-1,2.634521484E0,3.418505009E0
9.199962875E0,-1.839824066E0,3.086581421E-1,2.557431793E0,3.165545738E0
9.209970875E0,-1.316063232E0,2.535726929E-1,2.653831329E0,2.973069503E0
9.219979875E0,-5.721102905E-1,6.286926270E-2,3.235372009E0,3.286167185E0
9.229987875E0,1.110690308E-1,7.963439941E-2,3.951782227E0,3.954144754E0
9.239996875E0,6.475534058E-1,2.245330811E-1,5.165608063E0,5.210877774E0
9.250004875E0,1.511257324E0,3.408412170E-1,7.301067352E0,7.463622171E0
9.260012875E0,4.231251068E0,1.157692566E0,1.054257660E1,1.141882914E1
9.270021875E0,1.213496521E1,2.670746155E0,1.385578674E1,1.861110131E1
9.280029875E0,2.723571304E1,3.808081055E0,1.539084457E1,3.151449893E1
9.290038875E0,4.874897598E1,3.582949219E0,9.776918793E0,4.984865420E1
9.300046875E0,6.534361725E1,5.409750366E-1,-1.170416107E0,6.535633744E1
9.310054875E0,6.182129196E1,-2.839744720E0,-1.242491226E1,6.312142849E1
9.320063875E0,4.051190506E1,-1.696272583E0,-1.431323547E1,4.299954072E1
9.330071875E0,2.509815811E1,-8.990304565E-1,-8.130941620E0,2.639768944E1
9.340080875E0,1.687934921E1,-1.507515106E0,1.185085602E0,1.698792099E1
9.350088875E0,9.580527191E0,-2.056723022E0,7.198680267E0,1.215884898E1
9.360096875E0,7.733667755E0,-2.878065033E0,6.144721985E0,1.028836642E1
9.370105875E0,6.586303711E0,-3.066672821E0,3.290756836E0,7.975773274E0
9.380113875E0,4.739593964E0,-2.869083710E0,1.454525299E0,5.728091839E0
9.390122875E0,3.008593597E0,-2.475252686E0,4.499642944E-1,3.921859146E0
9.400130875E0,1.534758453E0,-1.940863953E0,-2.439926147E-2,2.474476049E0
9.410138875E0,4.249662781E-1,-1.323397980E0,-2.052232361E-1,1.405024956E0
9.420147875E0,-4.064048767E-1,-8.446934509E-1,-5.034031677E-1,1.063995629E0
9.430155875E0,-1.901346130E0,-1.148411865E0,-2.545756073E0,3.378585636E0
9.440163875E0,-3.699107666E0,-1.669478302E0,-4.399052124E0,5.985166240E0
9.450172875E0,-4.111200714E0,-1.262474670E0,-3.810176697E0,5.745716671E0
9.460180875E0,-3.887416077E0,-6.402186584E-1,-2.159409485E0,4.492764517E0
9.470189875E0,-3.747606812E0,-1.730401611E-1,-1.814227295E-1,3.755983748E0
9.480197875E0,-3.898642731E0,1.299298096E-1,1.256786499E0,4.098269049E0
9.490205875E0,-4.374652863E0,2.315684509E-1,1.801354065E0,4.736674792E0
9.500214875E0,-4.724475403E0,1.667532349E-1,1.804048462E0,5.059947166E0
9.510222875E0,-4.920567627E0,3.073109436E-1,1.773062897E0,5.239291729E0
9.520231875E0,-4.669240265E0,4.605921936E-1,1.608105927E0,4.959834119E0
9.530239875E0,-3.972738647E0,5.791456604E-1,1.306782532E0,4.222054315E0
9.540247875E0,-3.059038696E0,5.733078003E-1,1.190175018E0,3.332103863E0
9.550256875E0,-2.171983337E0,4.096980286E-1,1.457818451E0,2.647753525E0
9.560264875E0,-1.410516815E0,1.636097717E-1,1.958377533E0,2.419001531E0
9.570273875E0,-5.930667114E-1,5.478607178E-2,3.136876831E0,3.192918084E0
9.580281875E0,8.158035278E-2,2.062710571E-1,6.390211487E0,6.394060208E0
9.590289875E0,9.081614685E-1,6.098318481E-1,1.106588837E1,1.111982632E1
9.600298875E0,4.281396790E0,2.010618896E0,1.178005325E1,1.269419558E1
9.610306875E0,2.122436371E1,5.199138336E0,1.522723480E1,2.663406341E1
9.620315875E0,5.008165466E1,2.609972534E0,1.680495392E1,5.289036365E1
9.630323875E0,7.674271271E1,-3.349584503E0,1.060544586E0,7.682309825E1
9.640331875E0,7.560178528E1,-7.048093414E0,-1.582329529E1,7.756082924E1
9.650340875E0,5.487034653E1,-1.614093475E0,-1.460408066E1,5.680351572E1
9.660348875E0,3.300546478E1,9.246272278E-1,-8.087082825E0,3.399436056E1
9.670357875E0,1.950608688E1,8.066725159E-1,-9.051377563E0,2.151895866E1
9.680365875E0,8.075257416E0,3.263214111E-2,-8.489745483E0,1.171693755E1
9.690373875E0,2.731370087E0,-1.609153748E0,4.951104126E0,5.879046725E0
9.700382750E0,5.027445374E0,-2.956801300E0,6.343658295E0,8.617417332E0
9.710390750E0,3.931723938E0,-2.588866425E0,3.259621582E0,5.725889917E0
9.720398750E0,2.202669525E0,-1.844314728E0,1.686393127E0,3.331241755E0
9.730407750E0,7.972421265E-1,-9.940827942E-1,8.717871094E-1,1.543958670E0
9.740415750E0,-2.102378082E0,-8.659492493E-1,-5.022655334E0,5.513340939E0
9.750424750E0,-6.126010895E0,-1.401385803E0,-1.222447906E1,1.374517297E1
9.760432750E0,-5.939049683E0,-5.037025452E-1,-7.882308655E0,9.882146382E0
9.770440750E0,-5.013823700E0,4.013154602E-1,-3.833228760E0,6.324011774E0
9.780449750E0,-4.374503174E0,1.226399689E0,-3.824546814E-1,4.559233027E0
9.790457750E0,-4.246219940E0,1.946851501E0,2.635419617E0,5.363399212E0
9.800466750E0,-4.176914062E0,2.468217316E0,4.570296021E0,6.665306708E0
9.810474750E0,-3.596121826E0,2.312091980E0,4.238735504E0,6.020360470E0
9.820482750E0,-3.604504395E0,2.308948517E0,3.430266724E0,5.485473998E0
9.830491750E0,-2.980003052E0,1.599274292E0,1.816472626E0,3.838967211E0
9.840499750E0,-3.244503021E0,1.170266418E0,7.649093628E-1,3.532903859E0
9.850508750E0,-3.133134613E0,5.541476440E-1,-1.588197327E-1,3.185723752E0
9.860516750E0,-3.037932587E0,-5.089416504E-3,-4.522096252E-1,3.071409098E0
9.870524750E0,-2.837948456E0,-8.277786255E-2,-4.302053833E-1,2.871564083E0
9.880533750E0,-2.249372406E0,-1.115180969E-1,3.748205566E-1,2.283112559E0
9.890541750E0,-1.629511414E0,-4.375401306E-1,1.670975189E0,2.374638266E0
9.900550750E0,-9.966275024E-1,-5.072950745E-1,2.481389923E0,2.721747715E0
9.910558750E0,-3.908372498E-1,-4.457730103E-1,3.374283142E0,3.425967609E0
9.920566750E0,2.384541321E-1,-3.433859253E-1,4.504882050E0,4.524238781E0
9.930575750E0,1.749861145E0,4.602928162E-1,5.466931458E0,5.758578216E0
9.940583750E0,7.406448212E0,3.416794739E0,7.308402100E0,1.095183558E1
9.950592750E0,2.619283173E1,5.275778961E0,1.302696030E1,2.972540954E1
9.960600750E0,5.065915375E1,9.066645813E-1,1.298669403E1,5.230512519E1
9.970608750E0,7.315033310E1,-1.723366241E0,8.523275757E0,7.366537486E1
9.980617750E0,7.160300079E1,4.303550720E-1,4.189787292E-1,7.160551984E1
9.990625750E0,5.330071060E1,2.257305908E0,-3.080593872E-1,5.334937751E1
1.000063475E1,3.727323990E1,1.230590973E0,1.847009125E0,3.733925829E1
1.001064275E1,2.650433395E1,-1.044827271E-1,2.646346893E0,2.663632457E1
1.002065075E1,1.843311813E1,-1.725611572E0,-1.790277100E0,1.860007181E1
1.003065975E1,8.450976105E0,-5.096751251E0,-1.289313858E1,1.623665276E1
1.004066775E1,6.402785339E0,-6.385720825E0,-1.255139923E0,9.129538147E0
1.005067675E1,6.270460510E0,-4.990921326E0,2.926863556E0,8.531969349E0
1.006068475E1,5.288352814E0,-4.267326050E0,2.001338196E0,7.083932642E0
1.007069275E1,4.349654846E0,-3.935166779E0,3.254232788E-1,5.874600852E0
1.008070175E1,3.375330963E0,-3.336411896E0,-9.740245056E-1,4.844917666E0
1.009070975E1,1.501826935E0,-2.699636078E0,-5.735173645E0,6.514271704E0
1.010071875E1,-1.324296112E0,-1.696272583E0,-9.148076477E0,9.397787192E0
1.011072675E1,-2.458188171E0,-8.168513489E-1,-4.498894501E0,5.191337683E0
1.012073475E1,-2.514920197E0,-1.606159973E-1,-6.496490479E-2,2.520881102E0
1.013074375E1,-2.547103271E0,4.948709106E-1,2.682122498E0,3.731811006E0
1.014075175E1,-2.493514709E0,8.517288208E-1,3.235671387E0,4.172843984E0
1.015076075E1,-2.559228058E0,1.205892334E0,2.500699768E0,3.775887168E0
1.016076875E1,-2.414778442E0,1.419947205E0,1.527872772E0,3.190893323E0
1.017077675E1,-2.311193848E0,1.287322998E0,8.165519714E-1,2.768677414E0
1.018078575E1,-3.165467377E0,7.830216980E-1,5.444178772E-1,3.306009304E0
1.019079375E1,-4.238585815E0,3.983216858E-1,1.766326904E-1,4.260923490E0
1.020080175E1,-5.230872345E0,7.649093628E-1,-3.879931641E-1,5.300721698E0
1.021081075E1,-5.142406311E0,7.905061340E-1,-9.169931030E-1,5.283002836E0
1.022081875E1,-4.690346375E0,6.935078430E-1,-1.117575989E0,4.871270710E0
1.023082775E1,-4.099824371E0,6.975494385E-1,-4.549040222E-1,4.183547868E0
1.024083575E1,-3.006647644E0,3.670367432E-1,3.676354980E-1,3.051196796E0
1.025084375E1,-2.111808472E0,3.712280273E-2,1.278641052E0,2.469015201E0
1.026085275E1,-1.647174683E0,-4.161346436E-2,2.042951660E0,2.624608085E0
1.027086075E1,-1.171014862E0,-1.187031555E-1,2.860252075E0,3.092961070E0
1.028086975E1,-6.629713440E-1,-7.664062500E-2,4.293222198E0,4.344785568E0
1.029087775E1,-4.251159668E-2,9.041198730E-2,7.168892212E0,7.169588350E0
1.030088575E1,8.707392883E-1,1.243913269E-1,1.038914566E1,1.042631323E1
1.031089475E1,2.951861572E0,1.103804626E0,1.316497330E1,1.353692703E1
1.032090275E1,1.294313461E1,5.114115143E0,1.536255341E1,2.072889178E1
1.033091175E1,3.550451797E1,5.764362946E0,1.695284637E1,3.976427639E1
1.034091975E1,6.592934921E1,2.042652283E0,5.692212982E0,6.620613872E1
1.035092875E1,7.876949799E1,-6.164181519E-1,-1.072714279E1,7.949896463E1
1.036093675E1,6.620253113E1,-1.384321289E0,-1.728350876E1,6.843545242E1
1.037094475E1,4.498699905E1,1.333127747E0,-9.528734894E0,4.600439220E1
1.038095375E1,2.873828842E1,1.325493622E0,-3.173400879E0,2.894333477E1
1.039096175E1,1.636456970E1,-5.954617310E-1,-8.858578491E0,1.861795180E1
1.040097075E1,6.824757843E0,-4.633165283E0,-2.844684448E0,8.725581343E0
1.041097875E1,8.438252563E0,-5.564229126E0,5.523663483E0,1.151848993E1
1.042098675E1,6.381379852E0,-4.330943756E0,4.096531219E0,8.732734433E0
1.043099575E1,4.067790985E0,-3.570525055E0,2.021995239E0,5.777892126E0
1.044100375E1,2.048639832E0,-3.548221436E0,-4.968318329E0,6.439797165E0
1.045101275E1,-1.758692780E0,-4.403243408E0,-1.717034409E1,1.781298035E1
1.046102075E1,-3.132236481E0,-2.052980804E0,-9.809550934E0,1.050013929E1
1.047102875E1,-3.036884766E0,-2.522254944E-1,-1.660047913E0,3.470165104E0
1.048103775E1,-3.161874847E0,7.265890503E-1,1.230441284E0,3.469779525E0
1.049104575E1,-2.725382538E0,1.230740662E0,3.765868835E0,4.808762901E0
1.050105475E1,-2.486179962E0,1.384171600E0,4.016896820E0,4.922649885E0
1.051106275E1,-2.367925873E0,1.317111053E0,3.517684937E0,4.440265958E0
1.052107075E1,-2.309547272E0,1.176703033E0,2.566263428E0,3.647512387E0
1.053107975E1,-2.370470581E0,1.011296997E0,1.362017670E0,2.914951891E0
1.054108775E1,-2.487377472E0,8.569679260E-1,1.697470093E-1,2.636333583E0
1.055109675E1,-2.776276703E0,7.186555481E-1,-3.923341370E-1,2.894495501E0
1.056110475E1,-3.589984589E0,1.618135071E-1,-3.396437073E-1,3.609644138E0
1.057111275E1,-4.462370453E0,-5.629792786E-1,-3.963757324E-1,4.515175461E0
1.058112175E1,-4.495152283E0,-4.893324280E-1,-8.288264465E-1,4.597041826E0
1.059112975E1,-4.075425110E0,-8.981323242E-2,-1.016087036E0,4.201141405E0
1.060113875E1,-3.232078857E0,-9.894424438E-2,-1.688488770E-1,3.237998401E0
1.061114675E1,-2.095941467E0,-1.969903564E-1,7.327262878E-1,2.229049943E0
1.062115475E1,-1.437311096E0,3.517684937E-2,1.640887756E0,2.181653783E0
1.063116375E1,-9.839039612E-1,3.134481812E-1,2.549498291E0,2.750683243E0
1.064117175E1,-4.918771362E-1,6.102809143E-1,5.279221802E0,5.337093661E0
1.065118075E1,5.240602112E-1,1.063388672E0,1.167826492E1,1.173828378E1
1.066118875E1,2.790197754E0,2.821033630E0,1.752824982E1,1.797172713E1
1.067119675E1,1.119716537E1,7.006779327E0,2.099863312E1,2.480754042E1
1.068120575E1,2.872197235E1,6.093827820E0,2.371742935E1,3.774391194E1
1.069121375E1,5.478622147E1,8.262817383E-2,1.269300476E1,5.623743646E1
1.070122738E1,7.395715530E1,-1.595232697E0,-6.051316223E0,7.422145253E1
1.071123538E1,6.649053223E1,6.176156616E-1,-2.022653870E1,6.950169201E1
1.072124338E1,4.435441452E1,2.260299683E0,-1.426982574E1,4.664816147E1
1.073125238E1,2.785512497E1,1.167721710E0,-6.463858337E0,2.861910246E1
1.074126038E1,1.834210739E1,2.029779053E-1,-2.634521484E0,1.853145453E1
1.075126938E1,9.230405273E0,-1.419498138E0,-7.382947083E0,1.190475804E1
1.076127738E1,1.819616089E0,-4.525988159E0,-3.058889008E0,5.757809782E0
1.077128538E1,3.500321045E0,-4.010609894E0,2.593357086E0,5.921379916E0
1.078129438E1,2.951412506E0,-3.031346283E0,1.581760712E0,4.516842151E0
1.079130238E1,2.183060303E0,-2.386487274E0,-6.586303711E-3,3.234365034E0
1.080131138E1,4.180805969E-1,-2.509681091E0,-6.924600220E0,7.377220260E0
1.081131938E1,-3.666625214E0,-3.151246948E0,-1.666110306E1,1.734839626E1
1.082132838E1,-4.939129028E0,-1.592687988E0,-9.349407806E0,1.069313223E1
1.083133638E1,-4.825365601E0,-2.248324585E-1,-3.299289093E0,5.849787290E0
1.084134438E1,-3.943399658E0,5.996530151E-1,1.297352142E0,4.194413807E0
1.085135338E1,-3.116668854E0,1.138083344E0,4.034859467E0,5.223882594E0
1.086136138E1,-2.692301331E0,1.471290436E0,4.481979675E0,5.431512111E0
1.087137038E1,-2.417173462E0,1.413660278E0,3.989653473E0,4.874268946E0
1.088137838E1,-2.433639221E0,1.305285645E0,2.792592773E0,3.927460359E0
1.089138638E1,-2.492616577E0,1.067130890E0,1.632654877E0,3.165038338E0
1.090139538E1,-2.706671448E0,5.872288513E-1,1.022972717E0,2.952521165E0
1.091140338E1,-3.252586212E0,4.490661621E-4,8.604107666E-1,3.364464884E0
1.092141238E1,-3.686533813E0,-7.069798279E-1,9.656419373E-1,3.875927810E0
1.093142038E1,-3.439098358E0,-8.518785095E-1,1.015787659E0,3.685772521E0
1.094142838E1,-2.810705109E0,-1.016087036E0,1.107247467E0,3.187239091E0
1.095143738E1,-2.257904663E0,-8.927435303E-1,1.340761871E0,2.773583760E0
1.096144538E1,-1.653461609E0,-5.992039490E-1,1.914369049E0,2.599574873E0
1.097145438E1,-8.399034119E-1,-2.478845215E-1,2.642005920E0,2.783357642E0
1.098146238E1,2.329156494E-1,1.908531189E-1,4.179458771E0,4.190292380E0
1.099147038E1,1.698368225E0,3.608995056E-1,7.074139252E0,7.284102500E0
1.100147938E1,5.228477325E0,1.443448334E0,9.793234863E0,1.119499742E1
1.101148738E1,1.525822037E1,3.879183197E0,1.517244873E1,2.186468732E1
1.102149638E1,3.442466354E1,2.865940247E0,1.830243988E1,3.909284307E1
1.103150438E1,6.010406296E1,-4.122427368E-1,1.230171844E1,6.135145153E1
1.104151338E1,7.527426636E1,2.566263428E0,-8.801696777E-2,7.531804983E1
1.105152138E1,6.335230820E1,7.077432404E0,-8.252788239E0,6.427840630E1
1.106152938E1,4.009098038E1,4.752467194E0,-4.769831085E0,4.065247767E1
1.107153838E1,2.599135071E1,2.049987030E0,-1.043480072E0,2.609294175E1
1.108154638E1,1.718022354E1,1.724414062E-1,-2.831811218E0,1.741289671E1
1.109155538E1,7.313042450E0,-3.646417236E0,-9.344019012E0,1.241320425E1
1.110156337E1,7.428003387E0,-5.457800446E0,6.309379578E-1,9.239096424E0
1.111157138E1,6.879693604E0,-4.656965790E0,1.936972046E0,8.530496771E0
1.112158038E1,5.380112000E0,-4.183949432E0,1.221759338E0,6.924141381E0
1.113158837E1,4.184398499E0,-3.791914673E0,-1.556762695E-1,5.649074507E0
1.114159738E1,2.549647980E0,-3.671864319E0,-3.466940460E0,5.657116629E0
1.115160538E1,-5.239105225E-2,-4.281995544E0,-8.633147278E0,9.636880335E0
1.116161337E1,-1.968256989E0,-2.836451569E0,-6.730154572E0,7.564024962E0
1.117162238E1,-2.791844330E0,-1.224154358E0,-2.628833313E0,4.025383614E0
1.118163038E1,-2.901117096E0,-2.493814087E-1,1.023122406E0,3.086332929E0
1.119163937E1,-2.626587982E0,4.239184570E-1,3.609144745E0,4.483815014E0
1.120164738E1,-2.421514435E0,7.590715027E-1,3.780388641E0,4.553159341E0
1.121165538E1,-2.123035126E0,7.973918152E-1,2.951262817E0,3.721970455E0
1.122166437E1,-2.002386017E0,8.020321655E-1,2.059716797E0,2.982488665E0
1.123167238E1,-2.101030884E0,7.408094788E-1,1.320104828E0,2.589557147E0
1.124168138E1,-2.329156494E0,5.255570984E-1,3.993695068E-1,2.420883360E0
1.125168937E1,-2.467319183E0,2.257305908E-1,-3.589535522E-1,2.503490744E0
1.126169738E1,-2.564018097E0,-7.738906860E-2,-6.590794373E-1,2.648502138E0
1.127170638E1,-2.580334167E0,-3.617976379E-1,-2.445913696E-1,2.617030165E0
1.128171437E1,-2.425406342E0,-6.951544189E-1,1.722917175E-1,2.528936540E0
1.129172338E1,-2.092798004E0,-8.262817383E-1,4.158352661E-1,2.288113626E0
1.130173138E1,-1.613794098E0,-7.964936829E-1,1.231638794E0,2.180749343E0
1.131174038E1,-8.753796387E-1,-8.002359009E-1,2.178719330E0,2.480621883E0
1.132174838E1,-1.713935852E-1,-7.650590515E-1,3.134631500E0,3.231192621E0
1.133175638E1,6.221063232E-1,-7.232958984E-1,4.999603271E0,5.089813956E0
1.134176538E1,1.894011383E0,-4.800517273E-1,8.074508972E0,8.307552222E0
1.135177338E1,5.439837799E0,5.345384216E-1,1.130089966E1,1.255340192E1
1.136178238E1,1.548335220E1,2.955753479E0,1.554726929E1,2.214019549E1
1.137179038E1,3.355197830E1,2.502945099E0,1.770203842E1,3.801791875E1
1.138179838E1,5.924440063E1,6.948550415E-1,1.032837204E1,6.014197452E1
1.139180738E1,7.343114914E1,4.454736328E-1,-2.870580597E0,7.348858649E1
1.140181538E1,6.215060715E1,2.534230042E0,-1.130015121E1,6.322035834E1
1.141182438E1,4.146721848E1,2.686014404E0,-7.523953857E0,4.222978526E1
1.142183238E1,2.658756088E1,1.320404205E0,-3.257525940E0,2.681889886E1
1.143184038E1,1.772958115E1,3.483256531E-1,-1.595382385E0,1.780462365E1
1.144184938E1,9.071435852E0,-1.008901978E-1,-4.909939728E0,1.031545614E1
1.145185738E1,2.467319183E0,-1.105301514E0,-1.084644470E0,2.913041197E0
1.146186638E1,3.976181488E0,-2.470462646E0,2.706521759E0,5.407260392E0
1.147187438E1,3.847898254E0,-2.468217316E0,2.346670074E0,5.138606633E0
1.148188338E1,2.650987244E0,-2.050885162E0,1.436263275E0,3.646466167E0
1.149189138E1,1.483564911E0,-1.619631958E0,-1.417552185E-1,2.200969574E0
1.150189938E1,-1.686692505E0,-2.270777893E0,-7.066654816E0,7.611765507E0
1.151190838E1,-4.633015594E0,-2.409090271E0,-9.976004791E0,1.126007198E1
1.152191638E1,-4.974006500E0,-1.014290771E0,-6.373745728E0,8.148261228E0
1.153192538E1,-4.459825745E0,1.395098877E-1,-1.610800323E0,4.743857751E0
1.154193338E1,-3.848646698E0,9.517208862E-1,2.199825439E0,4.533992282E0
1.155194138E1,-3.259771271E0,1.473086700E0,3.624562683E0,5.092499171E0
1.156195038E1,-2.870131531E0,1.650318146E0,3.860023041E0,5.085369491E0
1.157195838E1,-2.872227173E0,1.531764679E0,3.424728241E0,4.724907987E0
1.158196738E1,-2.373913422E0,1.190624084E0,2.261497192E0,3.488182936E0
1.159197538E1,-1.994452515E0,6.494993591E-1,1.272354126E0,2.453278474E0
1.160198338E1,-2.120340729E0,2.571652222E-1,1.144370270E0,2.423130635E0
1.161199238E1,-2.326911163E0,-1.672023010E-1,9.645941162E-1,2.524463107E0
1.162200038E1,-2.398462372E0,-5.773493958E-1,8.153544617E-1,2.598221887E0
1.163200938E1,-2.162403259E0,-7.713459778E-1,7.521858215E-1,2.415935840E0
1.164201738E1,-1.747915192E0,-6.478527832E-1,6.990463257E-1,1.990875815E0
1.165202638E1,-1.227297821E0,-4.568499756E-1,1.033301239E0,1.668137672E0
1.166203438E1,-6.971003723E-1,-3.427871704E-1,1.375938721E0,1.580082066E0
1.167204238E1,-8.876541138E-2,-1.862127686E-1,2.021246796E0,2.031746318E0
1.168205138E1,5.719606018E-1,-8.083190918E-3,3.252286835E0,3.302207432E0
1.169205938E1,2.158661041E0,6.411167908E-1,4.445455627E0,4.983264389E0
1.170206433E1,9.699529724E0,3.062930603E0,7.628885651E0,1.271464970E1
1.171207233E1,3.055940140E1,3.724854126E0,1.233929031E1,3.316639319E1
1.172208033E1,6.182997391E1,1.013093262E0,1.141092087E1,6.288228007E1
1.173208933E1,7.849302292E1,-1.713636475E0,1.384620667E0,7.852393502E1
1.174209733E1,6.497448486E1,-1.799557800E0,-5.094356232E0,6.519873125E1
1.175210633E1,4.303790222E1,3.330574036E-1,-2.080972595E0,4.308946973E1
1.176211433E1,2.728945129E1,5.830375671E-1,1.145118713E-1,2.729591907E1
1.177212333E1,1.836845261E1,-4.921765137E-1,1.122366028E0,1.840929098E1
1.178213133E1,9.735455017E0,-1.730551300E0,-2.503244476E0,1.020000613E1
1.179213933E1,3.163521423E0,-3.143762512E0,-2.134710846E0,4.944502091E0
1.180214833E1,3.860771484E0,-3.672912140E0,1.659598846E0,5.581228214E0
1.181215633E1,3.345243530E0,-3.353476410E0,1.441951447E0,4.951331365E0
1.182216533E1,1.975142670E0,-2.888842621E0,8.625064087E-1,3.604236058E0
1.183217333E1,8.893006897E-1,-2.288291473E0,4.005670166E-1,2.487486185E0
1.184218133E1,7.783813477E-2,-1.726360016E0,-4.490661621E-4,1.728113967E0
1.185219033E1,-5.424719238E-1,-1.261875916E0,-9.011260986E-2,1.376490791E0
1.186219833E1,-1.028810577E0,-7.246430969E-1,2.409988403E-1,1.281264712E0
1.187220733E1,-2.431094513E0,-9.389973450E-1,-1.405128021E0,2.960797410E0
1.188221533E1,-4.497547302E0,-1.641636200E0,-4.515210571E0,6.581035454E0
1.189222433E1,-4.812192993E0,-9.385482788E-1,-3.530707855E0,6.041851722E0
1.190223233E1,-4.477189636E0,-9.535171509E-2,-1.363514557E0,4.681184779E0
1.191224033E1,-4.475243683E0,3.748205566E-1,4.257147217E-1,4.511045277E0
1.192224933E1,-5.134772186E0,4.346960449E-1,1.808539124E0,5.461287377E0
1.193225733E1,-5.266198883E0,3.957769775E-1,2.858006744E0,6.004805796E0
1.194226633E1,-5.185666351E0,3.454815674E-1,3.723506927E0,6.393355681E0
1.195227433E1,-4.685706024E0,1.844165039E-1,4.006867676E0,6.168049851E0
1.196228233E1,-3.845952301E0,-7.858657837E-2,3.296744385E0,5.066167041E0
1.197229133E1,-3.008743286E0,-2.639012146E-1,2.573298798E0,3.967876852E0
1.198229933E1,-2.185904388E0,-2.600093079E-1,2.095342712E0,3.039118938E0
1.199230833E1,-1.325493622E0,-1.838177490E-1,1.747765503E0,2.201228421E0
1.200231633E1,-5.321434021E-1,-3.622467041E-2,1.456022186E0,1.550641620E0
1.201232533E1,2.499801636E-1,1.808239746E-1,1.730700989E0,1.757985581E0
1.202233333E1,1.072369995E0,6.734495544E-1,3.182082825E0,3.424786535E0
1.203234133E1,2.373164978E0,1.027613068E0,4.746180267E0,5.405009506E0
1.204235033E1,9.591454468E0,-5.813909912E-1,6.007158051E0,1.133225318E1
1.205235833E1,3.128389481E1,-3.303031311E0,1.065648972E1,3.321374509E1
1.206236733E1,6.251030914E1,-3.150498505E0,9.413175201E0,6.329354041E1
1.207237533E1,7.914012726E1,1.870959320E0,-2.616109772E0,7.920545601E1
1.208238333E1,7.002737732E1,4.740941162E0,-6.791377258E0,7.051547988E1
1.209239233E1,4.930147705E1,1.584006042E0,-5.412744141E0,4.962300388E1
1.210240033E1,3.100382721E1,-3.734733582E-1,-4.892725525E0,3.138973633E1
1.211240933E1,1.762824188E1,-3.412902832E-1,-1.364173187E1,2.229278447E1
1.212241733E1,6.228697357E0,-3.420387268E-1,-1.044288391E1,1.216418866E1
1.213242633E1,5.234614563E0,-2.503094788E0,7.103478241E0,9.172026835E0
1.214243433E1,6.950795746E0,-3.365451508E0,7.285948792E0,1.061719714E1
1.215244233E1,5.118306427E0,-2.287692719E0,5.335654449E0,7.739496564E0
1.216245133E1,3.064876556E0,-1.157243500E0,3.998634796E0,5.169309534E0
1.217245933E1,1.252894592E0,-1.047821045E-1,2.883902893E0,3.146048322E0
1.218246833E1,-1.172811127E0,7.212002563E-1,-1.982627106E0,2.413799078E0
1.219247633E1,-4.880900116E0,1.071471863E0,-9.886640625E0,1.107776605E1
1.220248433E1,-5.579796753E0,1.306632843E0,-7.947123871E0,9.797867064E0
1.221249333E1,-4.805307312E0,1.618434448E0,-4.514761505E0,6.789210549E0
1.222250133E1,-3.817511444E0,1.916614380E0,-8.393046570E-1,4.353301806E0
1.223251033E1,-3.255879364E0,2.174378357E0,1.218915253E0,4.100539729E0
1.224251833E1,-2.764900360E0,2.275567932E0,1.976938934E0,4.090375406E0
1.225252733E1,-2.439626770E0,2.213596802E0,1.684596863E0,3.699953536E0
1.226253533E1,-2.356100464E0,2.087708588E0,8.631051636E-1,3.264151814E0
1.227254333E1,-2.250869293E0,1.796114960E0,1.984872437E-1,2.886492458E0
1.228255233E1,-1.950743408E0,1.248254242E0,1.788780212E-1,2.322829276E0
1.229256033E1,-1.601819000E0,6.174659729E-1,5.530998230E-1,1.803609645E0
1.230256933E1,-1.214723969E0,2.439926147E-2,8.843609619E-1,1.502745472E0
1.231257733E1,-8.193960571E-1,-4.703219604E-1,1.019978943E0,1.390312803E0
1.232258533E1,-4.216731262E-1,-8.457412720E-1,1.223854980E0,1.546255974E0
1.233259433E1,-3.921844482E-2,-1.106798401E0,1.733545074E0,2.057114317E0
1.234260233E1,4.355941772E-1,-1.178798676E0,2.840792542E0,3.106350088E0
1.235261133E1,1.075513458E0,-1.228046265E0,4.112697601E0,4.424828628E0
1.236261933E1,2.069296875E0,-1.336121521E0,5.060227203E0,5.627886782E0
1.237262833E1,4.774321747E0,-1.075663147E0,6.276298370E0,7.958839148E0
1.238263633E1,1.166628983E1,1.990859985E-2,7.520211639E0,1.388006836E1
1.239264433E1,2.426349380E1,1.407972107E0,8.619076538E0,2.578736120E1
1.240265333E1,4.231430695E1,1.662143555E0,7.995922394E0,4.309522095E1
1.241266133E1,5.974376221E1,1.196312256E0,4.035009155E0,5.989181567E1
1.242267033E1,6.390795273E1,5.635780334E-1,-2.869233398E0,6.397481178E1
1.243267833E1,4.745491699E1,5.415737915E-1,-2.906805267E0,4.754694486E1
1.244268733E1,3.067196732E1,4.475692749E-2,3.100053406E-1,3.067356656E1
1.245269533E1,2.155143356E1,-6.373745728E-1,1.639390869E0,2.162309269E1
1.246270333E1,1.532273621E1,-1.222657471E0,2.311792603E0,1.554430832E1
1.247271233E1,1.066801575E1,-1.622476044E0,2.406844940E0,1.105585325E1
1.248272033E1,7.084467773E0,-1.763333130E0,2.311642914E0,7.657853506E0
1.249272933E1,3.113824768E0,-1.600621490E0,3.300486603E0,4.811559587E0
1.250273733E1,1.394051056E0,-1.540746002E0,2.533032532E0,3.276206708E0
1.251274533E1,1.757046204E0,-1.350791016E0,6.221063232E-1,2.301926151E0
1.252275433E1,1.642234955E0,-1.277892609E0,-6.024971008E-1,2.166321288E0
1.253276233E1,1.129850464E0,-1.167272644E0,-1.500330048E0,2.211352018E0
1.254277133E1,5.272036743E-1,-1.046174469E0,-2.753224640E0,2.992101377E0
1.255277933E1,-4.822970581E-1,-1.038989410E0,-4.495900726E0,4.639529371E0
1.256278833E1,-1.262624359E0,-8.178991699E-1,-4.586462402E0,4.826884781E0
1.257279633E1,-1.694176941E0,-4.143383789E-1,-3.341052246E0,3.768891337E0
1.258280433E1,-1.845362549E0,-2.335144043E-2,-1.648072815E0,2.474278123E0
1.259281333E1,-1.672172699E0,2.716850281E-1,9.535171509E-2,1.696781141E0
1.260282133E1,-1.359922028E0,4.303550720E-1,1.984573059E0,2.443997471E0
1.261283033E1,-1.361718292E0,6.230044556E-1,2.592758331E0,2.994128759E0
1.262283833E1,-1.470242615E0,7.448510742E-1,2.517464905E0,3.008994187E0
1.263284733E1,-1.563049622E0,6.727011108E-1,2.066901855E0,2.677262442E0
1.264285533E1,-1.715881805E0,4.709207153E-1,1.217867432E0,2.156204483E0
1.265286333E1,-1.693428497E0,2.110610962E-2,6.774911499E-1,1.824044901E0
1.266287233E1,-1.310973816E0,-4.655319214E-1,8.199948120E-1,1.614857210E0
1.267288033E1,-8.059240723E-1,-8.478369141E-1,1.092428284E0,1.600543844E0
1.268288933E1,-3.255729675E-1,-1.113235016E0,1.273551636E0,1.722563127E0
1.269289733E1,1.333726501E-1,-1.253792725E0,1.700314178E0,2.116802486E0
1.270290450E1,6.239025879E-1,-1.183439026E0,2.487227783E0,2.824196242E0
1.271291350E1,1.338666229E0,-1.169817352E0,3.995491333E0,4.373151141E0
1.272292150E1,3.633544006E0,-1.143921204E0,6.778803406E0,7.775819788E0
1.273293050E1,1.141346558E1,-1.954934692E-1,1.187226151E1,1.646985147E1
1.274293850E1,3.005974045E1,1.658401337E0,1.693518311E1,3.454184010E1
1.275294750E1,5.880281891E1,6.215075684E0,1.350925735E1,6.065392577E1
1.276295550E1,7.801940781E1,7.438481598E0,-1.727407837E-1,7.837339371E1
1.277296350E1,6.410898468E1,1.319206696E0,-1.046114594E1,6.497028396E1
1.278297250E1,3.829276978E1,3.203338623E-2,-7.773634644E0,3.907386132E1
1.279298050E1,2.354453888E1,1.555265808E-1,-4.790937195E0,2.402753793E1
1.280298950E1,1.520328461E1,-6.426136780E-1,-1.865570526E0,1.533079152E1
1.281299750E1,8.782985687E0,-9.659413147E-1,1.612895966E0,8.981943754E0
1.282300650E1,3.705095215E0,-8.324189758E-1,3.902384949E0,5.445113423E0
1.283301450E1,2.809208221E0,-1.272803192E0,3.372636566E0,4.570159319E0
1.284302250E1,1.858984222E0,-1.340612183E0,1.733245697E0,2.873535107E0
1.285303150E1,7.217990112E-1,-1.054557037E0,6.990463257E-1,1.456622849E0
1.286303950E1,-1.115180969E-1,-6.230044556E-1,2.636018372E-1,6.856068598E-1
1.287304850E1,-6.304888916E-1,-2.740800476E-1,3.607498169E-2,6.884312015E-1
1.288305650E1,-1.187031555E0,-1.456471252E-1,-7.676037598E-1,1.421081465E0
1.289306450E1,-3.438050537E0,-8.149053955E-1,-6.110892334E0,7.058843207E0
1.290307350E1,-5.263803864E0,-1.335223389E0,-8.785829773E0,1.032866194E1
1.291308150E1,-4.876708832E0,-6.994953918E-1,-5.772296448E0,7.588872717E0
1.292309050E1,-4.485871582E0,5.284011841E-2,-2.486179962E0,5.129027855E0
1.293309850E1,-4.246519318E0,6.876699829E-1,3.378474426E-1,4.315084844E0
1.294310750E1,-4.200265503E0,1.021625519E0,2.002086639E0,4.763853472E0
1.295311550E1,-4.451742554E0,1.120569763E0,1.932481384E0,4.980780326E0
1.296312350E1,-4.679119720E0,9.656419373E-1,8.036787415E-1,4.844845222E0
1.297313250E1,-4.249513092E0,2.757266235E-1,-3.293151855E-2,4.258576191E0
1.298314050E1,-3.467838593E0,-6.059399414E-1,1.239422607E-1,3.522560063E0
1.299314950E1,-2.665507050E0,-1.162781982E0,1.052760773E0,3.092781113E0
1.300315750E1,-1.853745117E0,-1.394500122E0,1.533111877E0,2.780545554E0
1.301316650E1,-1.058598633E0,-1.451681213E0,1.836381226E0,2.569105957E0
1.302317450E1,-4.135899353E-1,-1.376687164E0,2.295775909E0,2.708673330E0
1.303318250E1,2.028282166E-1,-1.201850739E0,2.807262268E0,3.060442113E0
1.304319150E1,8.533753967E-1,-8.424481201E-1,3.595523071E0,3.790218273E0
1.305319950E1,2.221979370E0,-7.704478455E-1,4.667893066E0,5.226854492E0
1.306320850E1,7.255112915E0,-2.210303650E0,6.783443756E0,1.017532382E1
1.307321650E1,2.196622101E1,-3.792663116E0,1.038645126E1,2.459222497E1
1.308322550E1,5.030409210E1,-2.617157593E0,1.277967453E1,5.196798319E1
1.309323350E1,7.698086746E1,4.490062866E0,3.168910217E0,7.717678804E1
1.310324150E1,7.520091888E1,1.018422180E1,-4.414919128E0,7.601570947E1
1.311325050E1,5.267246704E1,5.114863586E0,-2.590662689E0,5.298360262E1
1.312325850E1,3.208188538E1,1.457818451E0,-1.853445740E0,3.216842963E1
1.313326750E1,2.002505768E1,4.873864746E-1,-7.078031158E0,2.124474066E1
1.314327550E1,6.622528381E0,4.132905579E-1,-1.912527878E1,2.024364047E1
1.315328450E1,4.387825470E0,-2.113005981E0,-1.197509766E-1,4.871565142E0
1.316329250E1,7.881260834E0,-3.708388367E0,6.048322449E0,1.060417941E1
1.317330050E1,6.527925110E0,-3.015329590E0,4.695884857E0,8.588210138E0
1.318330950E1,4.396657104E0,-2.107467499E0,3.185076599E0,5.823806822E0
1.319331750E1,2.466421051E0,-1.212328949E0,2.390379181E0,3.642373802E0
1.320332650E1,9.165440369E-1,-3.619473267E-1,1.818867645E0,2.068656170E0
1.321333450E1,-1.493893433E-1,2.514770508E-1,1.218017120E0,1.252646634E0
1.322334250E1,-1.650916901E0,3.481759644E-1,-1.886526947E0,2.530955756E0
1.323335150E1,-3.903133392E0,1.725910950E-1,-6.701564026E0,7.757267454E0
1.324335950E1,-4.466711426E0,6.462062073E-1,-6.150559845E0,7.628792816E0
1.325336850E1,-3.909570007E0,1.080752563E0,-3.885919189E0,5.617217433E0
1.326337650E1,-3.060086517E0,1.105151825E0,-6.038442993E-1,3.309096249E0
1.327338550E1,-2.760110321E0,1.174906769E0,1.899400177E0,3.550540231E0
1.328339350E1,-2.603535919E0,1.201251984E0,2.583777008E0,3.859703258E0
1.329340150E1,-2.443219299E0,1.082548828E0,2.499202881E0,3.658858777E0
1.330341050E1,-2.396067352E0,9.312135315E-1,1.943408661E0,3.222597496E0
1.331341850E1,-2.364632721E0,8.138575745E-1,1.522184601E0,2.927609608E0
1.332342750E1,-2.336341553E0,5.661227417E-1,1.212628326E0,2.692481062E0
1.333343550E1,-1.997745667E0,6.152206421E-2,1.220262451E0,2.341754292E0
1.334344450E1,-1.412762146E0,-5.522016907E-1,1.708696747E0,2.284834384E0
1.335345250E1,-7.408094788E-1,-9.340576172E-1,2.809208221E0,3.051706596E0
1.336346050E1,-1.627116394E-1,-8.301736450E-1,3.977828064E0,4.066789823E0
1.337346950E1,2.951861572E-1,-5.577401733E-1,4.878505096E0,4.919148396E0
1.338347750E1,9.587562561E-1,-1.721420288E-1,5.742358704E0,5.824390948E0
1.339348650E1,2.967728577E0,8.966354370E-1,7.321574707E0,7.950900842E0
1.340349450E1,9.509125671E0,3.244802399E0,1.123368942E1,1.507142965E1
1.341350350E1,2.454999802E1,5.021308136E0,1.329864532E1,2.836846675E1
1.342351150E1,4.930611740E1,4.663402405E0,8.199648743E0,5.020034636E1
1.343351950E1,7.238287903E1,1.238374786E0,-4.246669006E0,7.251792155E1
1.344352850E1,6.820027679E1,-2.007026367E0,-1.500330048E1,6.985989504E1
1.345353650E1,4.144521423E1,-7.773335266E-1,-8.654403076E0,4.234629527E1
1.346354550E1,2.515309387E1,9.445358276E-2,-3.125350800E0,2.534669348E1
1.347355350E1,1.654554337E1,-2.808160400E-1,2.841091919E-1,1.655036498E1
1.348356250E1,1.036085449E1,-7.954458618E-1,2.807411957E0,1.076390272E1
1.349357050E1,3.320544891E0,-5.245092773E-1,6.046675873E0,6.918339213E0
1.350357850E1,1.256636810E0,-6.370751953E-1,4.315675507E0,4.539829948E0
1.351358750E1,1.744172974E0,-9.354048157E-1,9.997709656E-1,2.217355072E0
1.352359550E1,1.103355560E0,-9.883946228E-1,-3.522175598E-1,1.522620975E0
1.353360450E1,3.234773254E-1,-9.262738037E-1,-1.117725677E0,1.487256343E0
1.354361250E1,-7.646099854E-1,-1.047072601E0,-3.255130920E0,3.503836008E0
1.355362050E1,-1.844614105E0,-1.418450317E0,-5.009183350E0,5.523270800E0
1.356362950E1,-2.688409424E0,-1.528920593E0,-4.760400696E0,5.676844035E0
1.357363750E1,-3.008443909E0,-1.139879608E0,-3.425326996E0,4.699247312E0
1.358364650E1,-2.563569031E0,-5.197192383E-1,-1.221459961E0,2.886859660E0
1.359365450E1,-2.184257813E0,6.586303711E-3,8.170010376E-1,2.332062663E0
1.360366350E1,-1.991309052E0,2.808160400E-1,1.609902191E0,2.576034637E0
1.361367150E1,-1.919907532E0,3.817062378E-1,2.165846100E0,2.919355050E0
1.362367950E1,-2.024240570E0,4.358935547E-1,2.297272797E0,3.092735905E0
1.363368850E1,-2.192191315E0,4.391867065E-1,2.229613495E0,3.157493319E0
1.364369650E1,-2.422262878E0,2.818638611E-1,2.100881195E0,3.218774065E0
1.365370550E1,-2.533930664E0,-5.343887329E-2,1.827250214E0,3.124500547E0
1.366371350E1,-2.426304474E0,-6.066883850E-1,1.513352966E0,2.923227907E0
1.367372250E1,-1.897005157E0,-1.100511475E0,1.403780823E0,2.603911418E0
1.368373050E1,-1.129251709E0,-1.228046265E0,1.618733826E0,2.324565819E0
1.369373850E1,-4.538562012E-1,-1.138831787E0,2.167792053E0,2.490430822E0
1.370375163E1,2.384541321E-1,-9.023236084E-1,3.002007294E0,3.143739184E0
1.371375963E1,9.529183960E-1,-5.505551147E-1,4.520749054E0,4.652777280E0
1.372376863E1,2.788850555E0,-1.218466187E-1,6.837481384E0,7.385369706E0
1.373377663E1,1.128099106E1,5.686674500E-1,1.055919205E1,1.546223395E1
1.374378563E1,2.921998672E1,-4.538562012E-1,1.493025238E1,3.281655140E1
1.375379363E1,5.301869705E1,-4.893324280E-1,1.352228027E1,5.471812997E1
1.376380163E1,7.032855103E1,3.365601196E0,1.631008301E0,7.042792450E1
1.377381063E1,6.235193848E1,4.423601074E0,-8.249944153E0,6.305072606E1
1.378381863E1,3.960958145E1,1.158141632E0,-6.813680878E0,4.020804002E1
1.379382763E1,2.556982727E1,-2.643502808E-1,-5.458997955E0,2.614740152E1
1.380383563E1,1.698682571E1,-1.097517700E0,-5.764812012E0,1.797191839E1
1.381384463E1,1.051683014E1,-1.952240295E0,-3.722459106E0,1.132570793E1
1.382385263E1,5.767207031E0,-2.798280945E0,3.318149872E0,7.218114141E0
1.383386063E1,5.836961975E0,-2.848576355E0,5.603746948E0,8.578256945E0
1.384386963E1,5.233267365E0,-2.309247894E0,3.788022766E0,6.860672680E0
1.385387763E1,4.022884369E0,-1.888622589E0,2.289189606E0,4.999088215E0
1.386388663E1,2.950963440E0,-1.577270050E0,1.120270386E0,3.528593455E0
1.387389463E1,2.104922791E0,-1.156345367E0,2.537223816E-1,2.414996814E0
1.388390363E1,1.476679230E0,-6.251000977E-1,-1.128952332E0,1.961087720E0
1.389391163E1,-2.739303589E-2,-3.308120728E-1,-7.193291473E0,7.200946412E0
1.390391963E1,-1.974693604E0,-4.490661621E-2,-8.662186890E0,8.884532241E0
1.391392863E1,-2.583028564E0,6.631210327E-2,-4.893174591E0,5.533497216E0
1.392393663E1,-2.422412567E0,1.657054138E-1,-2.017953644E0,3.157162941E0
1.393394563E1,-2.156565399E0,4.302053833E-1,7.140151978E-1,2.312070219E0
1.394395363E1,-2.071392517E0,6.828799438E-1,2.509531403E0,3.324866890E0
1.395396263E1,-2.086062012E0,7.741900635E-1,3.296145630E0,3.976883325E0
1.396397063E1,-2.033820648E0,7.170089722E-1,2.991529083E0,3.687787216E0
1.397397863E1,-2.107916565E0,5.258564758E-1,2.262095947E0,3.136385715E0
1.398398763E1,-2.282453613E0,2.667453003E-1,1.691781921E0,2.853572081E0
1.399399563E1,-2.206411743E0,-2.948867798E-1,9.726773071E-1,2.429261644E0
1.400400462E1,-2.180066528E0,-1.038690033E0,7.225474548E-1,2.520643147E0
1.401401263E1,-2.120939484E0,-1.662742310E0,1.387614441E0,3.031265432E0
1.402402163E1,-1.651365967E0,-2.053130493E0,2.416125641E0,3.574915033E0
1.403402962E1,-1.012195129E0,-2.058219910E0,3.312162323E0,4.028799751E0
1.404403763E1,-2.757266235E-1,-1.842668152E0,4.249064026E0,4.639611642E0
1.405404663E1,7.890092468E-1,-1.593436432E0,5.751340027E0,6.019924199E0
1.406405462E1,2.623294830E0,-1.171164551E0,8.145910492E0,8.637659400E0
1.407406363E1,6.571783905E0,-8.117619324E-1,1.101050354E1,1.284828741E1
1.408407163E1,1.484403168E1,-5.349874878E-1,1.278266830E1,1.959663484E1
1.409408063E1,2.615660706E1,-9.714797974E-1,1.376687164E1,2.957428986E1
1.410408863E1,4.046340591E1,-1.381626892E-1,1.169338348E1,4.211937232E1
1.411409663E1,5.242054092E1,1.868414612E0,5.420527954E0,5.273316041E1
1.412410563E1,5.510790253E1,3.815116425E0,-2.324665833E-1,5.524029394E1
1.413411363E1,4.623450485E1,4.492607574E0,-2.712808685E0,4.653141189E1
1.414412263E1,3.305725708E1,2.857407990E0,-9.202862549E-1,3.319328174E1
1.415413063E1,2.398192932E1,1.339414673E0,6.930587769E-1,2.402930078E1
1.416413963E1,1.784633835E1,6.129753113E-1,1.528770905E0,1.792218379E1
1.417414763E1,1.322604630E1,1.541793823E-1,1.964215393E0,1.337199364E1
1.418415563E1,9.846224670E0,-1.930984497E-1,2.029479675E0,1.005505918E1
1.419416463E1,5.948031006E0,-4.710704041E-1,3.503314819E0,6.919118072E0
1.420417263E1,3.191662903E0,-1.445394287E0,9.870474243E-1,3.640074086E0
1.421418163E1,4.104165344E0,-1.871558075E0,-2.820883942E0,5.320177536E0
1.422418963E1,4.634512482E0,-2.154769135E0,-4.127067719E0,6.569202685E0
1.423419863E1,3.748055878E0,-2.318229218E0,-5.194497986E0,6.812115596E0
1.424420663E1,2.560575256E0,-1.988764343E0,-4.167783051E0,5.280354611E0
1.425421463E1,1.455573120E0,-1.486708374E0,-2.871478729E0,3.546037928E0
1.426422363E1,5.126838684E-1,-9.307644653E-1,-1.518891449E0,1.853698593E0
1.427423163E1,5.254074097E-2,-3.397933960E-1,2.562670898E-1,4.288273578E-1
1.428424063E1,-3.830534363E-1,1.965412903E-1,1.596280518E0,1.653320872E0
1.429424863E1,-8.722361755E-1,5.754034424E-1,1.936522980E0,2.200455934E0
1.430425763E1,-1.145717468E0,8.467890930E-1,2.061513062E0,2.505904305E0
1.431426563E1,-1.301244049E0,9.249266052E-1,1.976639557E0,2.540832391E0
1.432427363E1,-1.360520782E0,9.211843872E-1,1.542093201E0,2.253363911E0
1.433428263E1,-1.505569153E0,9.053173828E-1,9.990225220E-1,2.020985907E0
1.434429063E1,-1.745819550E0,8.427474976E-1,6.884184265E-1,2.057189630E0
1.435429963E1,-1.910776520E0,6.547384644E-1,3.852987671E-1,2.056259834E0
1.436430763E1,-2.352807312E0,2.176473999E-1,3.070115662E-1,2.382714574E0
1.437431663E1,-2.778222656E0,-1.975891113E-1,4.436773682E-1,2.820356749E0
1.438432463E1,-2.505340118E0,-4.382885742E-1,1.155297546E0,2.793481413E0
1.439433263E1,-1.698966980E0,-5.809419250E-1,1.962868195E0,2.660231920E0
1.440434163E1,-1.118324432E0,-4.249662781E-1,2.460283813E0,2.735734329E0
1.441434963E1,-4.683760071E-1,-1.447489929E-1,3.132236481E0,3.170368074E0
1.442435863E1,6.176156616E-1,3.131488037E-1,4.453838196E0,4.507347996E0
1.443436663E1,1.996248779E0,1.116079102E0,6.088888092E0,6.504244764E0
1.444437563E1,4.214934998E0,2.084415436E0,8.155191193E0,9.413692587E0
1.445438363E1,1.008961853E1,3.383264465E0,1.170535858E1,1.581968078E1
1.446439163E1,2.260045212E1,3.365002441E0,1.608075989E1,2.794091115E1
1.447440063E1,3.906800766E1,8.930429077E-1,1.459105774E1,4.171337572E1
1.448440863E1,5.566953461E1,-8.955876160E-1,9.443112946E0,5.647186505E1
1.449441763E1,6.304829041E1,-2.204914856E-1,2.783910828E0,6.311010774E1
1.450442563E1,5.507961136E1,3.517684937E0,-3.583997040E0,5.530807111E1
1.451443463E1,3.956632141E1,2.703078918E0,-2.453248444E0,3.973435357E1
1.452444263E1,2.708422806E1,1.402583313E-1,-6.291416931E-1,2.709189733E1
1.453445163E1,1.931568283E1,-1.028810577E0,5.599855042E-1,1.935116633E1
1.454445963E1,1.156255554E1,-2.768043823E0,-4.802163849E0,1.282246212E1
1.455446763E1,5.434598694E0,-6.455026703E0,-1.068403244E1,1.361435940E1
1.456447663E1,6.578669586E0,-6.001918945E0,-3.451971588E0,9.550813180E0
1.457448463E1,6.217021637E0,-5.031037903E0,-4.090992737E-1,8.008124789E0
1.458449362E1,4.820575562E0,-4.620741119E0,-1.718875580E0,6.895196190E0
1.459450163E1,2.665207672E0,-4.885839844E0,-4.322261810E0,7.046751739E0
1.460451063E1,-2.365081787E-2,-5.366340637E0,-5.747747498E0,7.863508917E0
1.461451862E1,-1.562899933E0,-4.107608185E0,-4.012855225E0,5.951311473E0
1.462452663E1,-2.153871002E0,-2.275118866E0,-9.454339600E-1,3.272487054E0
1.463453563E1,-2.516716461E0,-8.577163696E-1,1.573827209E0,3.089736429E0
1.464454362E1,-2.558629303E0,1.487905884E-1,3.122656403E0,4.039765533E0
1.465455263E1,-2.539618835E0,7.418572998E-1,3.835923157E0,4.659862932E0
1.466456063E1,-2.659968567E0,1.005459137E0,3.390748901E0,4.425331509E0
1.467456963E1,-2.890938263E0,1.053658905E0,2.577639771E0,4.013969097E0
1.468457763E1,-2.996319122E0,9.274713135E-1,1.857487335E0,3.645324474E0
1.469458563E1,-3.248394928E0,6.583309937E-1,1.299447784E0,3.560060933E0
1.470459113E1,-3.736230469E0,4.104464722E-1,7.232958984E-1,3.827667877E0
1.471459912E1,-4.480033722E0,1.893562317E-1,1.077758789E-1,4.485328703E0
1.472460813E1,-4.830904083E0,-1.480421448E-1,-1.004411316E-1,4.834215465E0
1.473461613E1,-4.702920227E0,-4.620890808E-1,1.041833496E-1,4.726715472E0
1.474462513E1,-4.109853516E0,-6.929090881E-1,7.140151978E-1,4.228573829E0
1.475463313E1,-3.282224579E0,-8.250842285E-1,1.484463043E0,3.695590981E0
1.476464113E1,-2.645149384E0,-7.577243042E-1,2.219584351E0,3.535182608E0
1.477465013E1,-2.070793762E0,-5.140310669E-1,2.720293121E0,3.457225681E0
1.478465813E1,-1.424437866E0,-3.131488037E-1,3.184777222E0,3.502840470E0
1.479466713E1,-6.141728210E-1,-2.311193848E-1,3.723357239E0,3.780742460E0
1.480467513E1,6.081852722E-1,6.032455444E-2,4.519102478E0,4.560242930E0
1.481468413E1,2.279010773E0,6.825805664E-1,7.131170654E0,7.517539573E0
1.482469213E1,5.092559967E0,1.894610138E0,9.630672913E0,1.105773826E1
1.483470013E1,1.191267746E1,4.271217957E0,1.141376495E1,1.704198397E1
1.484470913E1,2.651092026E1,5.006189575E0,1.427042450E1,3.052107210E1
1.485471713E1,4.720299088E1,1.705553284E0,1.407672729E1,4.928676811E1
1.486472613E1,6.616241455E1,-3.350183258E0,6.845115509E0,6.659988313E1
1.487473413E1,6.480443848E1,-2.672093353E0,-2.512674866E0,6.490815715E1
1.488474313E1,4.654406113E1,1.318757629E0,-4.955145721E0,4.682565768E1
1.489475113E1,3.133898026E1,1.750459900E0,-2.026485901E0,3.145317851E1
1.490475913E1,2.272828629E1,1.125659180E0,3.667373657E-1,2.275909933E1
1.491476813E1,1.708891342E1,4.396357727E-1,2.730621643E0,1.731128349E1
1.492477613E1,1.301812866E1,-1.308279419E-1,4.024231567E0,1.362656338E1
1.493478513E1,9.764494629E0,-8.367599487E-1,5.137616272E0,1.106528913E1
1.494479313E1,6.802454224E0,-2.529290314E0,7.109316101E0,1.015938327E1
1.495480213E1,6.995103607E0,-3.940555573E0,2.263143768E0,8.341538971E0
1.496481013E1,8.124505005E0,-4.420607300E0,-2.661764832E0,9.624673630E0
1.497481813E1,8.995843048E0,-4.471351776E0,-5.052892456E0,1.124499449E1
1.498482713E1,8.925040283E0,-3.576362915E0,-6.018085327E0,1.134301841E1
1.499483513E1,8.171207886E0,-2.096689911E0,-4.062402191E0,9.363111580E0
1.500484413E1,6.834786987E0,-1.301244049E0,-1.289568329E0,7.076053682E0
1.501485213E1,5.425916748E0,-8.496331787E-1,6.613247681E-1,5.531708556E0
1.502486113E1,4.142934723E0,-4.549040222E-1,1.493294678E0,4.427276226E0
1.503486913E1,2.852617950E0,-7.529342651E-2,2.036515045E0,3.505779771E0
1.504487813E1,1.601819000E0,2.344125366E-1,2.250569916E0,2.772334448E0
1.505488613E1,4.731660461E-1,4.634362793E-1,2.109413452E0,2.210946495E0
1.506489413E1,-3.332070923E-1,6.759942627E-1,1.740879822E0,1.897012853E0
1.507490313E1,-7.894583130E-1,7.264393616E-1,1.472487946E0,1.821861500E0
1.508491113E1,-1.059347076E0,7.045848083E-1,1.351389771E0,1.856046953E0
1.509492013E1,-1.215173035E0,6.620732117E-1,1.093476105E0,1.763710984E0
1.510492813E1,-1.353036346E0,7.188052368E-1,8.695417786E-1,1.761672849E0
1.511493712E1,-1.561253357E0,7.899073792E-1,8.851094055E-1,1.960837671E0
1.512494513E1,-2.035167847E0,8.144563293E-1,1.056652679E0,2.433467107E0
1.513495313E1,-2.535277863E0,1.313518524E0,7.920030212E-1,2.963145886E0
1.514496212E1,-2.814746704E0,1.727108459E0,5.813909912E-1,3.353165389E0
1.515497013E1,-2.752775574E0,1.555116119E0,1.137634277E0,3.360114768E0
1.516497913E1,-2.891537018E0,1.419348450E0,2.116748199E0,3.854368857E0
1.517498712E1,-3.035687256E0,1.598076782E0,2.968477020E0,4.536639983E0
1.518499613E1,-2.737956390E0,1.641785889E0,4.098626862E0,5.195248623E0
1.519500413E1,-1.830393677E0,1.662143555E0,5.906716919E0,6.403309064E0
1.520501212E1,-4.421804810E-1,1.976340179E0,8.141419830E0,8.389526860E0
1.521502113E1,1.184486847E0,2.723436584E0,1.025966492E1,1.068086327E1
1.522502913E1,2.796784058E0,3.537443848E0,1.187630310E1,1.270362489E1
1.523503812E1,4.832400970E0,4.508474579E0,1.185370010E1,1.357161185E1
1.524504613E1,1.000818787E1,6.307583313E0,1.177436508E1,1.669086890E1
1.525505513E1,2.136087982E1,7.508236542E0,1.260902939E1,2.591618075E1
1.526506312E1,4.127367096E1,4.789739685E0,9.941726074E0,4.272347643E1
1.527507213E1,6.411018219E1,-1.733245697E0,2.382595367E0,6.417784946E1
1.528508013E1,7.119539841E1,-7.177424469E0,-6.970404968E0,7.189497007E1
1.529508812E1,5.411786133E1,-4.112248535E0,-1.007435028E1,5.520096047E1
1.530509713E1,3.446792358E1,-1.698966980E-1,-5.360203400E0,3.488263754E1
1.531510513E1,2.285148010E1,4.108955383E-1,-1.615141296E0,2.291217273E1
1.532511413E1,1.497336273E1,1.971400452E-1,-9.720785522E-1,1.500617847E1
1.533512213E1,4.613106995E0,-1.497336273E0,-1.061876816E1,1.167394574E1
1.534513113E1,4.788093109E0,-3.882925415E0,-3.914060669E0,7.302247347E0
1.535513913E1,6.010750580E0,-3.975283356E0,-3.356021118E-1,7.214196356E0
1.536514713E1,4.861590271E0,-4.014352112E0,-1.131646729E0,6.405521615E0
1.537515613E1,3.497926025E0,-3.699107666E0,-3.106190643E0,5.963833022E0
1.538516413E1,1.815275116E0,-3.319946136E0,-2.852917328E0,4.738818774E0
1.539517313E1,5.837860107E-2,-2.469265137E0,-1.693727875E0,2.994894404E0
1.540518113E1,-1.022673340E0,-1.340911560E0,-3.688330078E-1,1.726250955E0
1.541519013E1,-1.649569702E0,-2.736309814E-1,1.403780823E0,2.183244080E0
1.542519813E1,-1.887724457E0,4.887336731E-1,2.793191528E0,3.406506002E0
1.543520613E1,-1.953587494E0,9.611512756E-1,3.381617889E0,4.021896993E0
1.544521513E1,-1.952539673E0,1.147813110E0,3.287613373E0,3.992278522E0
1.545522313E1,-2.020348663E0,1.098715210E0,2.761457520E0,3.593693291E0
1.546523213E1,-2.255958710E0,7.400610352E-1,2.079026642E0,3.155850410E0
1.547524013E1,-2.700234833E0,2.959346008E-1,1.591490479E0,3.148283244E0
1.548524913E1,-3.242257690E0,-1.648072815E-1,1.169218597E0,3.450575097E0
1.549525713E1,-3.701352997E0,-5.641767883E-1,8.039781189E-1,3.829450388E0
1.550526613E1,-4.235741730E0,-8.833131409E-1,2.770738220E-1,4.335726007E0
1.551527413E1,-4.189637604E0,-6.944059753E-1,-4.251159668E-2,4.247007199E0
1.552528213E1,-3.182831268E0,-3.329077148E-1,9.698332214E-1,3.343922682E0
1.553529113E1,-2.372715912E0,3.023712158E-2,1.574425964E0,2.847720527E0
1.554529913E1,-1.643731842E0,2.897973633E-1,1.869761810E0,2.506361129E0
1.555530813E1,-6.849755859E-1,4.626878357E-1,2.031275940E0,2.193023833E0
1.556531613E1,5.737568665E-1,7.987390137E-1,2.231110382E0,2.438244141E0
1.557532513E1,2.207160187E0,1.472637634E0,3.266058197E0,4.208010675E0
1.558533313E1,4.856650543E0,2.753673706E0,4.902754669E0,7.430126293E0
1.559534113E1,1.365460510E1,5.016667786E0,8.434061279E0,1.681512967E1
1.560535013E1,3.217723709E1,5.494324493E0,1.394589935E1,3.549718717E1
1.561535813E1,5.631379486E1,2.974314880E-1,1.684656738E1,5.878042863E1
1.562536713E1,7.281532974E1,-2.652484131E0,1.130119904E1,7.373482906E1
1.563537513E1,6.467645462E1,2.020797729E-1,2.796334991E0,6.473719262E1
1.564538413E1,4.721077469E1,1.404828644E0,-1.789678345E0,4.726556610E1
1.565539213E1,3.156845306E1,3.456312561E-1,-1.954635315E0,3.163079653E1
1.566540113E1,2.173150909E1,-6.515950012E-1,-2.426454163E0,2.187625981E1
1.567540913E1,1.081022003E1,-1.635948029E0,-1.809512100E1,2.114167891E1
1.568541713E1,3.532953186E0,-3.789819031E0,-1.065050217E1,1.184388800E1
1.569542613E1,6.104904785E0,-5.346731415E0,3.656895447E-1,8.123492359E0
1.570543788E1,5.777984619E0,-4.874313812E0,2.042352905E0,7.830405276E0
1.571544688E1,4.053271179E0,-4.310137024E0,-1.748064880E0,6.169442377E0
1.572545488E1,1.224004669E0,-4.831353149E0,-9.727671204E0,1.093013027E1
1.573546388E1,-1.438508606E0,-3.820954285E0,-7.642207947E0,8.664429638E0
1.574547188E1,-2.400558014E0,-1.657054138E0,-1.799408112E0,3.427298754E0
1.575547988E1,-2.511177979E0,-2.737806702E-1,1.259630585E0,2.822700817E0
1.576548888E1,-2.223925323E0,5.266049194E-1,3.342848511E0,4.049418816E0
1.577549688E1,-2.011966095E0,8.562194824E-1,3.225342865E0,3.896659591E0
1.578550588E1,-1.788331146E0,9.261241150E-1,2.541115723E0,3.242391599E0
1.579551388E1,-1.556313629E0,8.232879639E-1,2.026785278E0,2.684729735E0
1.580552288E1,-1.444645844E0,6.807843018E-1,1.610051880E0,2.267760114E0
1.581553088E1,-1.483864288E0,5.691165161E-1,1.050515442E0,1.905079927E0
1.582553988E1,-1.477427673E0,4.834945679E-1,5.870791626E-1,1.661692351E0
1.583554788E1,-1.418300629E0,3.481759644E-1,2.772235107E-1,1.486491187E0
1.584555588E1,-1.405726776E0,2.628533936E-1,3.951782227E-2,1.430636688E0
1.585556488E1,-1.394500122E0,1.664538574E-1,-1.535806274E-1,1.412771916E0
1.586557288E1,-1.306183777E0,5.957611084E-2,-2.634521484E-2,1.307807112E0
1.587558187E1,-1.184337158E0,3.667373657E-2,3.403921509E-1,1.232828570E0
1.588558988E1,-9.153465271E-1,4.071533203E-2,5.878276062E-1,1.088603829E0
1.589559888E1,-5.288502502E-1,1.676513672E-2,9.187893677E-1,1.060253535E0
1.590560687E1,-4.311035156E-2,6.137237549E-2,1.484463043E0,1.486356484E0
1.591561488E1,5.143304443E-1,2.314187622E-1,2.331850891E0,2.399087124E0
1.592562388E1,1.254690857E0,4.167333984E-1,3.277733917E0,3.534325325E0
1.593563187E1,2.679428101E0,9.704319763E-1,4.313879242E0,5.170167046E0
1.594564088E1,6.274352417E0,2.123035126E0,6.398294678E0,9.209394724E0
1.595564888E1,1.466455490E1,2.834655304E0,9.023834839E0,1.745033055E1
1.596565788E1,3.121413986E1,1.308279419E0,1.094883179E1,3.310454712E1
1.597566588E1,5.410783218E1,-1.303489380E0,1.134475845E1,5.529972995E1
1.598567488E1,6.920214340E1,-2.212399292E-1,6.662944336E0,6.952251740E1
1.599568288E1,6.105398758E1,4.703668671E0,-1.198407898E0,6.124663321E1
1.600569088E1,4.155044540E1,3.674708405E0,-3.228935394E0,4.183741171E1
1.601569988E1,2.814656891E1,4.730163574E-1,-2.142943726E0,2.823199061E1
1.602570788E1,1.988000931E1,-9.503736877E-1,-7.882608032E-1,1.991831658E1
1.603571688E1,1.400308044E1,-1.866318970E0,2.046244812E-1,1.412838560E1
1.604572488E1,9.601932678E0,-2.425556030E0,6.939569092E-1,9.927840118E0
1.605573388E1,5.695206757E0,-2.587070160E0,-4.197271729E-1,6.269328745E0
1.606574188E1,8.864566040E-1,-2.808459778E0,-1.835632782E0,3.470273670E0
1.607574988E1,4.165837097E-1,-2.544558563E0,6.122268677E-1,2.650121131E0
1.608575888E1,1.203197937E0,-2.072739716E0,2.981799316E-1,2.415128667E0
1.609576688E1,1.173260193E0,-1.749861145E0,-8.093669128E-1,2.256906801E0
1.610577588E1,6.116281128E-1,-1.483415222E0,-1.453926544E0,2.165297223E0
1.611578388E1,-5.821394348E-1,-1.418150940E0,-2.932402039E0,3.308930360E0
1.612579288E1,-2.665656738E0,-2.082918549E0,-6.516548767E0,7.342321388E0
1.613580088E1,-3.534749451E0,-1.666634216E0,-5.758525085E0,6.959363078E0
1.614580988E1,-3.450175323E0,-7.756869507E-1,-3.138373718E0,4.728085194E0
1.615581788E1,-3.185974731E0,-6.870712280E-2,-7.905061340E-1,3.283299500E0
1.616582588E1,-2.904709625E0,4.065545654E-1,1.026864624E0,3.107583559E0
1.617583488E1,-2.821632385E0,6.318360901E-1,2.041754150E0,3.539715550E0
1.618584288E1,-2.762355652E0,6.764433289E-1,2.425855408E0,3.738042106E0
1.619585188E1,-2.565365295E0,4.909790039E-1,2.362686768E0,3.521994924E0
1.620585988E1,-2.346819763E0,2.168989563E-1,1.882485352E0,3.016348663E0
1.621586888E1,-2.189646606E0,-1.002914429E-1,1.291963348E0,2.544362381E0
1.622587688E1,-1.903890839E0,-4.028123474E-1,9.602531433E-1,2.170056269E0
1.623588488E1,-1.548380127E0,-6.251000977E-1,8.674461365E-1,1.881673178E0
1.624589388E1,-1.110091553E0,-8.726852417E-1,1.053359528E0,1.761660887E0
1.625590188E1,-6.231541443E-1,-1.081351318E0,1.644480286E0,2.064450816E0
1.626591088E1,-1.757345581E-1,-1.160536652E0,3.086132355E0,3.301808726E0
1.627591888E1,2.480342102E-1,-1.070124664E0,5.045258331E0,5.163460022E0
1.628592788E1,1.029559021E0,-1.145118713E0,7.529043274E0,7.684906067E0
1.629593588E1,3.669768677E0,-1.262474670E0,1.076441528E1,1.144262561E1
1.630594488E1,1.125329865E1,-4.161346436E-1,1.573812241E1,1.935196102E1
1.631595288E1,2.653217606E1,1.452579346E0,1.930789902E1,3.284602438E1
1.632596088E1,5.215020309E1,2.965782623E0,1.288325912E1,5.379979475E1
1.633596988E1,7.330271622E1,5.466632080E-1,-4.877906342E0,7.346687019E1
1.634597788E1,6.716038925E1,-3.515140228E0,-1.838252335E1,6.971937507E1
1.635598688E1,4.611669983E1,-7.421566772E-1,-1.569426361E1,4.871971582E1
1.636599488E1,2.846360962E1,4.665797424E-1,-8.128097534E0,2.960507961E1
1.637600388E1,1.869986343E1,-4.737648010E-1,-1.027463379E0,1.873406060E1
1.638601188E1,1.155477173E1,-9.078620911E-1,4.876708832E0,1.257454780E1
1.639602087E1,4.858297119E0,-4.492158508E-1,7.988737335E0,9.360810328E0
1.640602888E1,5.058580627E0,-1.707499237E0,5.394482117E0,7.589810862E0
1.641603688E1,4.122577057E0,-1.892514496E0,2.443668365E0,5.152549639E0
1.642604587E1,2.387535095E0,-1.487606506E0,1.225202179E0,3.068292249E0
1.643605388E1,1.190474396E0,-1.038690033E0,6.890171814E-1,1.723615661E0
1.644606288E1,3.019221497E-1,-4.634362793E-1,3.281176758E-1,6.431107048E-1
1.645607087E1,-3.793112183E-1,3.427871704E-2,2.086660767E-1,4.342736030E-1
1.646607988E1,-7.734416199E-1,3.336561584E-1,3.844006348E-1,9.259061612E-1
1.647608788E1,-1.299597473E0,4.318519592E-1,4.625381470E-2,1.370251481E0
1.648609587E1,-3.323089600E0,4.614903259E-1,-3.780688019E0,5.054651294E0
1.649610488E1,-4.763544159E0,5.056484985E-1,-5.686225433E0,7.435065100E0
1.650611288E1,-4.779710541E0,7.316784668E-1,-3.820056152E0,6.162289772E0
1.651612187E1,-5.272785187E0,1.212179260E0,-1.446442108E0,5.600342575E0
1.652612988E1,-6.115832062E0,1.885628815E0,-1.523831177E-1,6.401735581E0
1.653613888E1,-6.629414062E0,2.250569916E0,3.872447205E-1,7.011715498E0
1.654614687E1,-6.741081848E0,2.854713593E0,4.144880676E-1,7.332351228E0
1.655615588E1,-6.658453674E0,3.101699982E0,1.071022797E0,7.423115110E0
1.656616388E1,-6.252797241E0,2.862048340E0,1.313368835E0,7.000980770E0
1.657617188E1,-5.410947876E0,2.166295166E0,1.134490814E0,5.937866710E0
1.658618088E1,-4.137096863E0,1.252295837E0,1.301693115E0,4.514224217E0
1.659618888E1,-2.768193512E0,4.665797424E-1,1.874551849E0,3.375579448E0
1.660619788E1,-1.680854645E0,-1.148112488E-1,2.632874908E0,3.125777382E0
