"Time (s)","Acceleration x (m/s^2)","Acceleration y (m/s^2)","Acceleration z (m/s^2)","Absolute acceleration (m/s^2)"
0.000000000E0,-1.138233032E0,3.729644165E0,8.577163696E0,9.421972039E0
1.004199998E-2,-7.008425903E-1,3.683090973E0,7.899971924E0,8.744478020E0
2.008499997E-2,-4.113446045E-1,3.698059845E0,7.593708801E0,8.456315058E0
3.012699995E-2,-5.698649597E-1,3.882476349E0,7.799231415E0,8.730771978E0
4.016999993E-2,-7.834707642E-1,4.199217682E0,8.374784546E0,9.401290963E0
5.021200003E-2,-8.904981995E-1,4.449646912E0,9.035360870E0,1.011088971E1
6.025500002E-2,-8.593629456E-1,4.649032288E0,9.615105286E0,1.071458144E1
7.029700000E-2,-4.650828552E-1,4.566853180E0,1.010758118E1,1.110115522E1
8.033999999E-2,4.281097412E-1,3.953428802E0,1.055559952E1,1.127978539E1
9.038199997E-2,1.066083069E0,3.200644226E0,1.093251572E1,1.144117811E1
1.004250000E-1,8.095166016E-1,2.787503357E0,1.119926102E1,1.156931024E1
1.104669999E-1,6.855743408E-2,2.421065369E0,1.187630310E1,1.212076041E1
1.205100000E-1,-3.513194275E-1,2.511776733E0,1.317200867E1,1.341395766E1
1.305520000E-1,-3.215313721E-1,1.791175232E0,1.355551117E1,1.367711864E1
1.405950000E-1,-7.200027466E-1,1.901645508E0,1.374651398E1,1.389608960E1
1.506380000E-1,-2.679428101E-1,2.890189819E0,1.322544754E1,1.354021614E1
1.606800000E-1,6.095324707E-1,2.884052582E0,1.185759201E1,1.221850144E1
1.707230000E-1,1.236279144E0,1.495689697E0,1.045396088E1,1.063253365E1
1.807649999E-1,2.645149384E0,-3.782633972E-1,9.297016754E0,9.673387152E0
1.908079999E-1,4.270619202E-1,-6.195616150E-1,1.057191559E1,1.059866207E1
2.008495417E-1,-2.880460052E0,1.502126312E0,1.169562881E1,1.213841699E1
2.108925417E-1,-2.862347717E0,1.718127136E0,9.153614960E0,9.743390690E0
2.209345417E-1,-4.920268250E-1,-2.364932098E0,5.422773285E0,5.936452167E0
2.309775417E-1,-1.409768372E0,-2.944077759E0,3.448678436E0,4.748518050E0
2.410195416E-1,-3.589984589E0,-1.598675537E0,3.298540649E0,5.130703971E0
2.510625416E-1,-5.714965668E0,-1.065184937E0,5.186414795E0,7.790657864E0
2.611045416E-1,-7.223378906E0,3.472778320E-2,8.704399109E0,1.131127635E1
2.711475417E-1,-4.584217072E0,1.124910736E0,9.153914337E0,1.029925327E1
2.811895417E-1,-1.607357483E0,1.862726440E0,9.356143799E0,9.674232510E0
2.912325417E-1,3.378474426E-1,1.490001526E0,8.144114227E0,8.286183801E0
3.012745416E-1,3.263214111E-1,7.725434875E-1,5.661826172E0,5.723598929E0
3.113175416E-1,-5.046006775E-1,9.722282410E-1,7.647596741E-1,1.335929248E0
3.213595416E-1,1.715582428E0,8.852590942E-1,2.466271362E0,3.131996354E0
3.314025416E-1,1.178948364E0,2.814147949E-1,4.036356354E0,4.214414093E0
3.414445417E-1,1.184037781E0,3.995191956E-1,3.635639648E0,3.844403297E0
3.514875417E-1,2.143542480E0,1.430724792E0,2.524649963E0,3.607714683E0
3.615295417E-1,2.424208832E0,2.499651947E0,1.440753937E0,3.768397567E0
3.715725417E-1,-2.513572998E0,3.165167999E0,4.207749939E0,5.834509168E0
3.816145416E-1,-9.403894501E0,2.698737946E0,8.814420319E0,1.316853917E1
3.916575416E-1,2.008822632E-1,1.829196167E-1,9.975705414E0,9.979404380E0
4.017005416E-1,1.670825500E0,-6.800358582E-1,1.315629135E1,1.327938661E1
4.117425416E-1,2.948269043E0,-1.069376221E0,1.396146698E1,1.430938210E1
4.217855417E-1,4.395309906E0,-6.765930176E-1,1.281545013E1,1.356511295E1
4.318275417E-1,3.160976715E0,4.535568237E-2,1.117022141E1,1.160894815E1
4.418705417E-1,-1.496887207E-2,5.049000549E-1,9.632169800E0,9.645405289E0
4.519125416E-1,-1.876348114E0,6.369255066E-1,9.537716217E0,9.741375005E0
4.619555416E-1,3.275189209E-1,1.861678619E0,1.085737198E1,1.102069155E1
4.719975416E-1,3.028502197E0,2.724484406E0,1.152004395E1,1.221908562E1
4.820405416E-1,3.534300385E0,1.694476318E0,1.029319519E1,1.101419068E1
4.920825417E-1,2.775079193E0,9.440867615E-1,9.023984528E0,9.488132645E0
5.021255417E-1,3.081641693E0,9.791139221E-1,8.434510345E0,9.033058417E0
5.121675417E-1,2.084116058E0,1.567839661E0,7.694898376E0,8.124845966E0
5.222105416E-1,3.298091583E0,1.287023621E0,7.296576691E0,8.110109080E0
5.322525416E-1,5.935906219E0,1.040635986E0,7.301366730E0,9.467199270E0
5.422955416E-1,6.608906708E0,5.337899780E-1,7.389683075E0,9.928242320E0
5.523375416E-1,6.897805939E0,5.957611084E-1,7.620353394E0,1.029584595E1
5.623805417E-1,6.460565186E0,9.578581238E-1,6.172115021E0,8.986178194E0
5.724225417E-1,6.015390930E0,1.627116394E-1,3.886967010E0,7.163791989E0
5.824655417E-1,5.560935974E0,-6.496490479E-1,2.660267944E0,6.198635199E0
5.925075416E-1,4.823719025E0,-1.557211761E0,2.191592560E0,5.522341138E0
6.025505416E-1,4.604425049E0,-2.427951050E0,1.222507782E0,5.346980607E0
6.125925416E-1,4.166435852E0,-2.338287506E0,3.643423462E-1,4.791609491E0
6.226355416E-1,4.372407532E0,-3.555107117E0,8.554710388E-1,5.699874116E0
6.326785416E-1,5.170697479E0,-5.187163239E0,1.912872162E0,7.569798861E0
6.427205417E-1,4.506678314E0,-6.198160858E0,2.217189331E0,7.977673595E0
6.527635417E-1,3.282224579E0,-7.467521210E0,2.683320007E0,8.587029607E0
6.628055417E-1,3.073109436E0,-8.604556732E0,4.350103912E0,1.011957520E1
6.728485416E-1,3.433709564E0,-9.752818909E0,5.349126434E0,1.164134836E1
6.828905416E-1,3.860322418E0,-1.049617310E1,5.143304443E0,1.230956211E1
6.929335416E-1,4.838538208E0,-1.070319260E1,5.009333038E0,1.276962025E1
7.029755417E-1,6.237978058E0,-1.158575729E1,4.385879517E0,1.387004259E1
7.130185417E-1,7.476652222E0,-1.188498505E1,4.207749939E0,1.465804754E1
7.230605417E-1,9.702822876E0,-1.174457703E1,4.599036255E0,1.591323335E1
7.331035417E-1,1.164548309E1,-1.098026642E1,4.656666412E0,1.666937519E1
7.431455416E-1,1.329445404E1,-1.014560211E1,4.824766846E0,1.740557743E1
7.531885416E-1,1.549442917E1,-9.527088318E0,5.168003082E0,1.890901909E1
7.632305416E-1,1.867606293E1,-7.980205078E0,5.597010956E0,2.106669246E1
7.732735416E-1,2.213671646E1,-4.885540466E0,7.657027130E0,2.392765734E1
7.833155417E-1,2.421185120E1,-2.634820862E0,9.787097626E0,2.624772941E1
7.933585417E-1,2.700803650E1,-2.178120575E0,1.115136063E1,2.930070116E1
8.034005417E-1,2.950364685E1,-1.841021576E0,1.137918686E1,3.167554943E1
8.134435416E-1,2.895339111E1,-1.773961029E0,8.303383026E0,3.017270230E1
8.234855416E-1,2.847169281E1,-4.933740234E-1,4.289479980E0,2.879722813E1
8.335285416E-1,2.871493698E1,2.072739716E0,1.507365417E0,2.882908265E1
8.435705416E-1,2.987038422E1,4.524191895E0,-2.113604736E-1,3.021179966E1
8.536135417E-1,2.727553024E1,4.893174591E0,-1.236877899E0,2.773855754E1
8.636555417E-1,2.335263794E1,4.230352936E0,-1.656305695E0,2.379043785E1
8.736985417E-1,2.008388535E1,3.295995941E0,-2.798280945E0,2.054401168E1
8.837415416E-1,1.505673935E1,1.827998657E0,-3.680995331E0,1.560758487E1
8.937835416E-1,1.032013916E1,1.540296936E-1,-3.815715179E0,1.100403016E1
9.038265416E-1,5.454806671E0,-1.523681488E0,-1.224423798E1,1.349065917E1
9.138685416E-1,9.752220154E-1,-3.416195984E0,-1.629750916E1,1.668023554E1
9.239115417E-1,8.646319885E0,-9.327104187E-1,5.987548828E-4,8.696481854E0
9.339535417E-1,7.158114624E0,-4.158801727E0,2.309247894E0,8.594583330E0
9.439965417E-1,-4.013154602E-1,-8.613837433E0,7.484436035E-2,8.623505731E0
9.540385416E-1,-4.972958679E0,-1.219064941E1,1.702260132E0,1.327553919E1
9.640815416E-1,-5.272485809E0,-1.353485413E1,2.857557678E0,1.480395281E1
9.741235416E-1,-3.388204193E0,-1.391371628E1,3.168012085E0,1.466655136E1
9.841665416E-1,-1.536554718E0,-1.407897263E1,1.407523041E0,1.423234316E1
9.942085417E-1,-2.416724396E0,-1.068657715E1,-4.227957916E0,1.174389697E1
1.004251542E0,1.956132202E0,-1.774499908E1,-2.821183319E0,1.807402891E1
1.014293542E0,4.961133270E0,-1.571746536E1,1.007854156E0,1.651264154E1
1.024336542E0,6.835984497E0,-1.340507401E1,-1.044827271E0,1.508371165E1
1.034378542E0,7.455845490E0,-1.318113968E1,-2.551294556E0,1.535712145E1
1.044421542E0,1.176388687E1,-1.400263138E1,-4.942871246E0,1.894451625E1
1.054463542E0,1.179891403E1,-1.291978317E1,-4.478087769E0,1.806068768E1
1.064506542E0,1.380788635E1,-1.272428970E1,-1.909129944E0,1.887352779E1
1.074548542E0,1.188124283E1,-1.206580902E1,8.143066406E-1,1.695319362E1
1.084591542E0,9.768985291E0,-1.240380615E1,2.274071045E0,1.595176729E1
1.094633542E0,9.256600800E0,-1.048150360E1,8.978329468E-1,1.401259006E1
1.104676542E0,2.040287201E1,-7.154372406E0,8.321495361E0,2.316699195E1
1.114719542E0,2.744198410E1,-1.781744843E0,9.442663879E0,2.907578042E1
1.124761542E0,2.524350586E1,2.394570465E0,5.788462830E0,2.600913028E1
1.134804542E0,2.412518143E1,5.153333588E0,4.196822662E0,2.502387952E1
1.144846542E0,2.224419296E1,4.474644928E0,2.403701477E0,2.281675587E1
1.154889542E0,1.855316849E1,9.470805359E-1,4.861889648E-1,1.858368645E1
1.164931542E0,1.341839630E1,-2.779719543E0,6.833290100E-1,1.372031846E1
1.174974542E0,7.720944214E0,-5.921536102E0,2.051783295E0,9.944213596E0
1.185016542E0,3.067121887E0,-8.432115326E0,2.826422424E0,9.407256203E0
1.195059250E0,-3.489244080E-1,-9.798473969E0,2.412832489E0,1.009720758E1
1.205101250E0,-2.593357086E0,-9.860744476E0,1.155746613E0,1.026136116E1
1.215144250E0,-2.827021179E0,-8.696615295E0,1.022673340E0,9.201577425E0
1.225186250E0,-3.672912140E0,-7.126380615E0,1.080602875E0,8.089702518E0
1.235229250E0,-4.803660736E0,-5.578748932E0,1.490600281E0,7.511290522E0
1.245271250E0,-3.744014282E0,-6.340814209E0,2.069296875E0,7.648892556E0
1.255314250E0,-7.174580383E-1,-7.642507324E0,2.320923615E0,8.019311109E0
1.265356250E0,1.496138763E0,-8.376880188E0,2.222428436E0,8.794870155E0
1.275399250E0,2.610870667E0,-8.714727631E0,1.732048187E0,9.260837664E0
1.285441250E0,3.057541809E0,-8.503067780E0,9.686357117E-1,9.087847860E0
1.295484250E0,3.082689514E0,-7.005132751E0,2.077679443E-1,7.656241051E0
1.305526250E0,5.403613129E0,-6.363716583E0,-4.637356567E-1,8.361278273E0
1.315569250E0,8.061785431E0,-6.211034088E0,-7.051835632E-1,1.020130446E1
1.325611250E0,1.040022263E1,-6.366261292E0,-4.647834778E-1,1.220286594E1
1.335654250E0,1.200713104E1,-7.140900421E0,1.568737793E-1,1.397097935E1
1.345696250E0,1.244781464E1,-8.045918427E0,1.048719177E0,1.485882581E1
1.355739250E0,1.191297684E1,-7.807314606E0,1.672322388E0,1.434119384E1
1.365781250E0,1.033510803E1,-7.656578064E0,2.242187347E0,1.305622648E1
1.375824250E0,8.519084473E0,-7.603139191E0,2.563868408E0,1.170281791E1
1.385866250E0,7.080725555E0,-7.401059418E0,2.605930939E0,1.056897492E1
1.395909250E0,6.188131714E0,-7.063810730E0,2.465672607E0,9.709270701E0
1.405952250E0,5.654491425E0,-6.708898773E0,2.237996063E0,9.054900463E0
1.415994250E0,5.525759125E0,-6.323600006E0,2.111658783E0,8.659158952E0
1.426037250E0,5.714067535E0,-5.916296997E0,1.860930176E0,8.433042101E0
1.436079250E0,5.577401733E0,-5.904920654E0,1.686393127E0,8.295747092E0
1.446122250E0,5.312153320E0,-6.094127197E0,1.402283936E0,8.205105693E0
1.456164250E0,5.041665802E0,-6.390361176E0,1.037941589E0,8.205634208E0
1.466207250E0,5.117707672E0,-6.085145874E0,7.083270264E-1,7.982584751E0
1.476249250E0,5.444478149E0,-5.403313751E0,6.450086975E-1,7.697673547E0
1.486292250E0,5.233267365E0,-4.881798248E0,8.243357849E-1,7.204066278E0
1.496334250E0,4.872816925E0,-4.909041595E0,1.168919220E0,7.014941647E0
1.506377250E0,4.182302856E0,-4.842729492E0,1.742825775E0,6.631826883E0
1.516419250E0,3.477418671E0,-5.188660126E0,2.774779816E0,6.834766824E0
1.526462250E0,3.852239227E0,-5.258415070E0,3.956721954E0,7.625373744E0
1.536504250E0,4.516707458E0,-4.961133270E0,4.458179169E0,8.055361636E0
1.546547250E0,4.807852020E0,-5.573659515E0,4.432881775E0,8.592529446E0
1.556589250E0,5.100343781E0,-7.128027191E0,4.013603668E0,9.640087796E0
1.566632250E0,5.344486084E0,-8.229287109E0,3.138373718E0,1.030213994E1
1.576674250E0,5.803132324E0,-9.613608398E0,2.223775635E0,1.144740098E1
1.586717250E0,6.028713226E0,-1.106274490E1,1.593735809E0,1.269920083E1
1.596759250E0,5.816604309E0,-1.212313980E1,1.554068298E0,1.353582405E1
1.606802250E0,5.598807220E0,-1.224513611E1,1.637145538E0,1.356356318E1
1.616844250E0,4.850662994E0,-1.125719055E1,1.629212036E0,1.236558136E1
1.626887250E0,3.977977753E0,-1.050275940E1,1.262175293E0,1.130156398E1
1.636929250E0,3.163671112E0,-1.118519028E1,9.699829102E-1,1.166439725E1
1.646972250E0,2.500550079E0,-1.085722229E1,6.171665955E-1,1.115853580E1
1.657015250E0,2.432741089E0,-9.474697266E0,2.197430420E-1,9.784498172E0
1.667057250E0,2.671644287E0,-8.096662903E0,1.056802368E-1,8.526711070E0
1.677100250E0,2.978206787E0,-7.097191315E0,1.999841309E-1,7.699339834E0
1.687142250E0,2.790048065E0,-6.191275177E0,5.023553467E-1,6.809450596E0
1.697185250E0,2.786006470E0,-6.101911011E0,6.617738342E-1,6.740407602E0
1.707227250E0,2.430196381E0,-6.216871948E0,5.528004456E-1,6.697830962E0
1.717270250E0,1.883682861E0,-6.129603424E0,5.816903687E-1,6.438840186E0
1.727312250E0,1.196911011E0,-5.877677307E0,3.344046021E-1,6.007621237E0
1.737355250E0,-2.143542480E-1,-4.631518707E0,7.084767151E-1,4.690293438E0
1.747397250E0,-5.691165161E-1,-4.505780182E0,7.436535645E-1,4.602061416E0
1.757440250E0,-7.559280396E-2,-4.583019562E0,7.816744995E-1,4.649816942E0
1.767482250E0,6.854246521E-1,-4.713248749E0,4.185296631E-1,4.781180586E0
1.777525250E0,9.517208862E-1,-4.808600464E0,-8.412506104E-2,4.902600136E0
1.787567250E0,1.078806610E0,-5.390141144E0,9.475296021E-2,5.497856253E0
1.797610250E0,1.844314728E0,-7.018155670E0,4.802014160E-1,7.272317322E0
1.807652250E0,2.768642578E0,-1.013901581E1,1.200204163E0,1.057854023E1
1.817695250E0,2.246977386E0,-1.393003235E1,1.544039154E0,1.419432159E1
1.827737250E0,1.305135956E0,-1.671349411E1,1.879790955E0,1.686943625E1
1.837780250E0,4.927752686E-1,-1.954695190E1,2.524799652E0,1.971549567E1
1.847822250E0,-3.083587646E-1,-2.237457184E1,3.781586151E0,2.269398475E1
1.857865250E0,-2.848576355E-1,-2.380350037E1,5.169050903E0,2.435994378E1
1.867907250E0,-9.364526367E-1,-2.293859894E1,6.791526947E0,2.394120095E1
1.877950250E0,-2.143542480E0,-2.037577835E1,7.222031708E0,2.172383161E1
1.887992250E0,-2.491119690E0,-1.703337891E1,6.569987640E0,1.842569977E1
1.898035250E0,-2.179018707E0,-1.372929977E1,5.669011230E0,1.501264411E1
1.908077250E0,-1.582808533E0,-1.053688843E1,4.359683990E0,1.151252123E1
1.918120250E0,-1.107696533E0,-7.746990051E0,2.956052856E0,8.365470396E0
1.928162250E0,-1.103505249E0,-6.376440125E0,2.149380341E0,6.818837756E0
1.938205250E0,-1.321152649E0,-6.068081360E0,1.643731842E0,6.424088268E0
1.948247250E0,-1.346599731E0,-5.868097229E0,1.270707550E0,6.153258779E0
1.958290250E0,-1.410367126E0,-6.279741211E0,1.039288788E0,6.519540344E0
1.968332250E0,-1.310375061E0,-7.291936340E0,9.246272278E-1,7.466214161E0
1.978375250E0,-9.526190186E-1,-8.465346222E0,9.009764099E-1,8.566290221E0
1.988418250E0,-4.064048767E-1,-9.380093994E0,9.172924805E-1,9.433597074E0
1.998460250E0,5.364843750E-1,-9.959239655E0,1.023272095E0,1.002603390E1
2.008503250E0,1.313967590E0,-1.052551208E1,1.236728210E0,1.067906420E1
2.018545250E0,1.808389435E0,-1.098505646E1,1.388512573E0,1.121916685E1
2.028588250E0,1.976489868E0,-1.123877884E1,1.383722534E0,1.149484015E1
2.038630250E0,1.665586395E0,-1.135688324E1,1.307680664E0,1.155261891E1
2.048673250E0,1.378184052E0,-1.119477036E1,1.172062683E0,1.134001788E1
2.058715250E0,1.331780548E0,-1.068672684E1,9.939331055E-1,1.081515940E1
2.068758250E0,1.491648102E0,-1.015054184E1,6.252497864E-1,1.027859188E1
2.078800250E0,1.752106476E0,-9.573491821E0,1.344204712E-1,9.733431647E0
2.088843250E0,1.830842743E0,-9.247020721E0,-1.495390320E-1,9.427711244E0
2.098885250E0,1.685794373E0,-9.206455078E0,-2.739303589E-2,9.359565596E0
2.108928250E0,1.254541168E0,-9.263336792E0,3.553610229E-1,9.354654645E0
2.118970250E0,7.408094788E-1,-9.436676331E0,8.264314270E-1,9.501718148E0
2.129013250E0,2.947370911E-1,-9.608069916E0,1.260977783E0,9.694944168E0
2.139055250E0,-4.879852295E-2,-9.619895325E0,1.631457367E0,9.757377747E0
2.149098250E0,-2.838098145E-1,-9.498048706E0,1.914069672E0,9.693149124E0
2.159140250E0,-4.361929321E-1,-9.264234924E0,2.140099640E0,9.518210939E0
2.169183250E0,-5.153782654E-1,-9.019942932E0,2.319875793E0,9.327744044E0
2.179225250E0,-5.882766724E-1,-8.818312225E0,2.494412842E0,9.183180025E0
2.189268250E0,-6.637197876E-1,-8.708590393E0,2.690205688E0,9.138778761E0
2.199310625E0,-7.843688965E-1,-8.611741791E0,2.971021729E0,9.143538776E0
2.209353625E0,-1.001417542E0,-8.523126068E0,3.163820801E0,9.146380548E0
2.219395625E0,-1.188528442E0,-8.375083923E0,3.210823059E0,9.047873524E0
2.229438625E0,-1.137933655E0,-8.155789948E0,2.962938538E0,8.751617419E0
2.239480625E0,-5.126838684E-1,-7.863298187E0,2.225721588E0,8.188292845E0
2.249523625E0,1.535207520E0,-7.502099304E0,-7.330256653E-1,7.692573219E0
2.259565625E0,3.037633209E0,-7.583979034E0,-2.970273285E0,8.692898072E0
2.269608625E0,2.530038757E0,-7.806715851E0,-1.498384094E0,8.342125831E0
2.279650625E0,1.639091492E0,-7.771389313E0,3.243754578E-1,7.948983093E0
2.289693625E0,1.331930237E0,-7.850724335E0,1.378782806E0,8.081395471E0
2.299735625E0,1.499581604E0,-8.180039520E0,1.492845612E0,8.449282784E0
2.309778625E0,2.333796844E0,-8.590186615E0,1.088087311E0,8.967822912E0
2.319821625E0,3.362008667E0,-9.077273712E0,-6.539900208E-1,9.701943273E0
2.329863625E0,4.542603607E0,-9.873018951E0,-3.811823273E0,1.151701990E1
2.339906625E0,5.594466248E0,-1.027523254E1,-5.080584869E0,1.275503034E1
2.349948625E0,5.603746948E0,-1.047910858E1,-3.711831207E0,1.244955370E1
2.359991625E0,4.385729828E0,-1.054691757E1,-3.501219177E-1,1.142780302E1
2.370033625E0,2.754122772E0,-1.025906616E1,2.768492889E0,1.097716647E1
2.380076625E0,2.079775085E0,-9.547895050E0,2.668650513E0,1.012963276E1
2.390118625E0,2.459235992E0,-8.779243469E0,4.290078735E-1,9.127267133E0
2.400161625E0,3.570225677E0,-8.280031586E0,-1.395847321E0,9.124353357E0
2.410203625E0,4.621040497E0,-8.043074341E0,-1.429676971E0,9.385575974E0
2.420246625E0,4.697830811E0,-8.320297852E0,-4.912783813E-1,9.567566311E0
2.430288625E0,4.302203522E0,-8.885821838E0,1.281335449E-1,9.873358248E0
2.440331625E0,4.418361969E0,-9.224866791E0,-4.284091187E-1,1.023736412E1
2.450373625E0,5.208119659E0,-9.157357178E0,-8.267308044E-1,1.056717487E1
2.460416625E0,6.282734985E0,-8.954978027E0,-6.985972595E-1,1.096140632E1
2.470458625E0,7.152276764E0,-8.871152344E0,-1.539249115E0,1.149876927E1
2.480501625E0,7.077133026E0,-8.871601410E0,-1.694027252E0,1.147435627E1
2.490543625E0,5.931864624E0,-8.712033234E0,-2.626737671E0,1.086214950E1
2.500586625E0,5.307662659E0,-8.040379944E0,-3.128194885E0,1.012939267E1
2.510628625E0,5.654940491E0,-6.952442322E0,-3.648812256E0,9.676189181E0
2.520671625E0,5.828130341E0,-5.878725128E0,-4.379143524E0,9.365009899E0
2.530713625E0,5.369484100E0,-4.983436890E0,-4.243675232E0,8.466096043E0
2.540756625E0,4.665198669E0,-4.192930756E0,-4.437522125E0,7.683511538E0
2.550798625E0,4.099674683E0,-3.564537506E0,-4.301305389E0,6.929248746E0
2.560841625E0,3.995491333E0,-3.020269318E0,-3.957171021E0,6.383195143E0
2.570883625E0,4.594096527E0,-2.628983002E0,-3.868704987E0,6.556230075E0
2.580926625E0,5.903573456E0,-2.958747253E0,-3.091970215E0,7.291546110E0
2.590968625E0,7.553592224E0,-3.917353821E0,-2.391127625E0,8.838546700E0
2.601011625E0,8.578361206E0,-5.123246155E0,-1.703607330E0,1.013598590E1
2.611053625E0,8.921597443E0,-5.855223999E0,-1.155297546E0,1.073374405E1
2.621096625E0,9.013057251E0,-5.974825287E0,-1.890269165E0,1.097756147E1
2.631138625E0,8.875792694E0,-5.929020538E0,-2.402653656E0,1.094101115E1
2.641181625E0,8.441396027E0,-5.965843964E0,-2.577041016E0,1.065314984E1
2.651223625E0,7.786807251E0,-6.408024445E0,-3.052452393E0,1.053634709E1
2.661266625E0,7.208410034E0,-7.287745056E0,-2.930156708E0,1.066106100E1
2.671308625E0,6.801406403E0,-8.233179016E0,-2.767145691E0,1.103183852E1
2.681351625E0,6.485862579E0,-9.043294373E0,-2.608775024E0,1.143036717E1
2.691393625E0,6.086044006E0,-9.629475403E0,-2.739453278E0,1.171628492E1
2.701436625E0,5.743107147E0,-1.006641678E1,-3.848197632E0,1.221166047E1
2.711478625E0,5.592071228E0,-1.075947556E1,-5.007686462E0,1.311924154E1
2.721521625E0,4.708159332E0,-1.196057785E1,-5.193300476E0,1.386335301E1
2.731564625E0,3.391048279E0,-1.336869965E1,-5.115162964E0,1.471007243E1
2.741606625E0,2.635569305E0,-1.490570343E1,-4.636757812E0,1.583116368E1
2.751649625E0,2.998714142E0,-1.700643494E1,-5.005740509E0,1.797967057E1
2.761691625E0,3.085383911E0,-2.040421921E1,-4.315226440E0,2.108252676E1
2.771734625E0,2.829715576E0,-2.548166061E1,-2.132914581E0,2.572686616E1
2.781776625E0,2.444267120E0,-3.094544861E1,4.944218445E-1,3.104576757E1
2.791819625E0,1.314716034E0,-3.434667572E1,3.690425720E0,3.456937739E1
2.801861625E0,1.486408997E0,-3.658542023E1,5.887556763E0,3.708592333E1
2.811904625E0,2.483485565E0,-3.751259216E1,7.510182495E0,3.833751573E1
2.821946625E0,3.368295593E0,-3.660173630E1,8.152197418E0,3.764957952E1
2.831989625E0,4.181853790E0,-3.488106445E1,7.751331024E0,3.597582092E1
2.842031625E0,5.463039551E0,-3.319706635E1,7.868836670E0,3.455153550E1
2.852074625E0,6.994205475E0,-3.076327744E1,8.368647308E0,3.263943024E1
2.862116625E0,7.106472015E0,-2.683664291E1,7.926915894E0,2.887115070E1
2.872159625E0,6.650520172E0,-2.241139526E1,6.558311920E0,2.427985814E1
2.882201625E0,6.186784515E0,-1.798884201E1,4.855902100E0,1.963299582E1
2.892244625E0,4.455035706E0,-1.353979385E1,3.603755951E0,1.470239496E1
2.902286625E0,2.141895905E0,-9.186696167E0,4.355193329E0,1.038993809E1
2.912329625E0,4.956792297E0,-4.829706573E0,-2.648128189E1,2.737068041E1
2.922371625E0,2.085583008E1,-3.215164032E0,-7.472146591E1,7.764406221E1
2.932414625E0,1.263761993E1,-3.519930267E0,-7.243137817E0,1.498540597E1
2.942456625E0,4.859344940E0,-1.815574493E0,7.523504791E0,9.138526595E0
2.952499625E0,3.625460815E0,-1.944456482E0,4.849615173E0,6.359531780E0
2.962541625E0,2.505190430E0,-2.682421875E-1,2.802023163E0,3.768191445E0
2.972584625E0,1.629511414E0,3.860472107E-1,2.302062836E0,2.846723238E0
2.982626625E0,1.773511963E0,7.445516968E-1,2.944826202E0,3.517343212E0
2.992669625E0,2.059267731E0,9.530680847E-1,2.707270203E0,3.532454432E0
3.002711625E0,2.091151428E0,1.314117279E0,1.994302826E0,3.174438892E0
3.012754625E0,1.413360901E0,1.271006927E0,1.450932770E0,2.391287007E0
3.022796625E0,1.111139374E0,1.338067474E0,1.297950897E0,2.170191652E0
3.032839625E0,-1.429527283E-1,1.721120911E0,2.134261780E0,2.745499229E0
3.042881625E0,-8.870553589E-1,1.304088135E0,1.835483093E0,2.420022987E0
3.052924625E0,-7.467970276E-1,7.030879211E-1,1.043330383E0,1.463070987E0
3.062966625E0,-6.393205261E-1,6.167175293E-2,5.370831299E-1,8.372529060E-1
3.073009625E0,-4.517605591E-1,-4.742138672E-1,9.819580078E-2,6.622754788E-1
3.083051625E0,-4.090992737E-1,-6.773414612E-1,1.302291870E-1,8.019434593E-1
3.093094625E0,-4.664300537E-1,-6.902146912E-1,2.875520325E-1,8.812715168E-1
3.103136625E0,-4.079017639E-1,-5.866300964E-1,2.143542480E-1,7.459667973E-1
3.113179625E0,-2.992277527E-1,-3.167413330E-1,1.005908203E-1,4.471921658E-1
3.123221625E0,-2.191442871E-1,-1.007405090E-1,-1.050814819E-1,2.630874124E-1
3.133264625E0,-2.766247559E-1,-4.475692749E-2,-5.122348022E-1,5.838740710E-1
3.143306625E0,-5.234614563E-1,-9.834548950E-2,-1.398541718E0,1.496530209E0
3.153349625E0,-6.524931335E-1,-1.134640503E-1,-1.841919708E0,1.957368027E0
3.163392625E0,-3.282673645E-1,-8.307723999E-2,-1.240320740E0,1.285712576E0
3.173434625E0,3.577560425E-2,-1.616638184E-2,-5.038522339E-1,5.053793816E-1
3.183476625E0,1.311273193E-1,9.131011963E-3,-2.210902405E-1,2.572132261E-1
3.193519625E0,1.453477478E-1,1.377136230E-2,-1.761836243E-1,2.288149638E-1
3.203563500E0,1.284329224E-1,-2.365081787E-2,-1.104702759E-1,1.710498716E-1
3.213605500E0,4.969665527E-2,-1.175056458E-1,1.347198486E-2,1.282919666E-1
3.223648500E0,-5.254074097E-2,-2.664459229E-1,1.700463867E-1,3.204211805E-1
3.233690500E0,-1.905537415E-1,-4.272116089E-1,2.863545227E-1,5.484700537E-1
3.243733500E0,-3.421884155E-1,-5.676196289E-1,4.222718811E-1,7.858743515E-1
3.253775500E0,-4.525090027E-1,-6.604266357E-1,5.376818848E-1,9.643803959E-1
3.263818500E0,-5.477110291E-1,-7.580236816E-1,6.547384644E-1,1.141608396E0
3.273860500E0,-6.524931335E-1,-8.812174988E-1,7.460485840E-1,1.326227755E0
3.283903500E0,-7.740403748E-1,-9.867480469E-1,8.050259399E-1,1.490260707E0
3.293945500E0,-9.369017029E-1,-1.072220306E0,8.696914673E-1,1.668473684E0
3.303988500E0,-1.108894043E0,-1.130149841E0,8.994795227E-1,1.820974485E0
3.314030500E0,-1.331331482E0,-1.157692566E0,8.472381592E-1,1.957168386E0
3.324073500E0,-1.483864288E0,-1.053060150E0,7.382647705E-1,1.963625162E0
3.334115500E0,-1.465751953E0,-9.270222473E-1,5.670208740E-1,1.824640158E0
3.344158500E0,-1.369352417E0,-8.246351624E-1,4.186793518E-1,1.652404791E0
3.354200500E0,-1.305585022E0,-7.006929016E-1,3.186872864E-1,1.515613532E0
3.364243500E0,-1.074016571E0,-4.683760071E-1,2.182461548E-1,1.191855303E0
3.374285500E0,-7.650590515E-1,-1.782792664E-1,-8.876541138E-2,7.905555941E-1
3.384328500E0,9.704319763E-1,5.436694336E-1,-7.020700378E0,7.108273242E0
3.394370500E0,6.077362061E0,8.087681580E-1,-2.206741058E1,2.290325404E1
3.404413500E0,9.282496948E0,-5.322930908E-1,-2.740680725E1,2.894099461E1
3.414455500E0,9.333989868E0,-2.931054840E0,-1.182989960E1,1.535125317E1
3.424498500E0,7.072642365E0,-5.508095856E0,1.241428436E1,1.531260416E1
3.434540500E0,6.329138489E0,-7.425758057E0,1.697050964E1,1.957544570E1
3.444583500E0,1.109163483E1,-1.537752228E1,2.029928741E1,2.777685411E1
3.454625500E0,2.943404160E1,-4.625201843E1,1.801518723E1,5.770752970E1
3.464668500E0,4.359055298E1,-7.903369858E1,1.055949142E1,9.087334416E1
3.474710500E0,2.697660187E1,-7.689629333E1,1.374127487E1,8.264139164E1
3.484753500E0,6.446644135E0,-4.975114197E1,8.224946136E0,5.083684773E1
3.494795500E0,8.487350464E-2,-2.942461121E1,3.592828674E0,2.964326848E1
3.504838500E0,-6.256988525E-2,-2.189841202E1,-2.823728027E0,2.207980534E1
3.514880500E0,7.070546722E0,-2.134156998E1,-1.345971039E1,2.620341664E1
3.524923500E0,1.265483414E1,-2.372985352E1,-1.253777756E1,2.967232113E1
3.534965500E0,4.010609894E0,-2.528167648E1,-1.314117279E0,2.563152476E1
3.545008500E0,-1.958078156E0,-2.204540634E1,4.418062592E0,2.256885659E1
3.555050500E0,-2.536026306E0,-1.730551300E1,3.187471619E0,1.777841908E1
3.565093500E0,-2.136357422E0,-1.315314789E1,-6.331832886E-2,1.332566440E1
3.575135500E0,-1.097517700E0,-1.012689102E1,-2.101929016E0,1.040079672E1
3.585178500E0,5.613327026E-1,-8.376880188E0,-2.902015228E0,8.883068641E0
3.595220500E0,1.555565186E0,-8.672066345E0,-3.373385010E0,9.434206070E0
3.605263500E0,2.540367279E0,-9.738299103E0,-2.337838440E0,1.033215485E1
3.615305500E0,3.733236694E0,-9.760453033E0,-2.333647156E-1,1.045265319E1
3.625348500E0,4.695435791E0,-8.985813904E0,1.326092377E0,1.022499339E1
3.635390500E0,5.478607178E0,-7.885901184E0,2.460583191E0,9.912469104E0
3.645433500E0,6.185287628E0,-6.705006866E0,3.230132904E0,9.677223708E0
3.655475500E0,6.777755585E0,-5.640121307E0,3.584895172E0,9.518424897E0
3.665518500E0,7.094496918E0,-4.763693848E0,3.665727081E0,9.298506365E0
3.675560500E0,7.125482483E0,-3.977977753E0,3.572471008E0,8.908386875E0
3.685603500E0,6.732998657E0,-3.503015442E0,3.345842285E0,8.294519197E0
3.695645500E0,6.022426300E0,-3.400927734E0,2.952160950E0,7.520052012E0
3.705688500E0,5.486989746E0,-3.510350189E0,2.469115448E0,6.966071061E0
3.715730500E0,5.372178497E0,-3.855382690E0,1.630110168E0,6.810399156E0
3.725773500E0,5.650150452E0,-4.546196136E0,5.481600952E-1,7.272728438E0
3.735816500E0,5.729186096E0,-5.708229675E0,-3.547622681E-1,8.095265012E0
3.745858500E0,5.253475342E0,-6.920109558E0,-1.048270111E0,8.751330738E0
3.755901500E0,4.406237183E0,-7.898325348E0,-1.463207245E0,9.161847240E0
3.765943500E0,3.375929718E0,-8.575816498E0,-1.826352081E0,9.395588965E0
3.775986500E0,2.421065369E0,-8.980724487E0,-2.311642914E0,9.584292504E0
3.786028500E0,1.930685120E0,-9.232500916E0,-2.193239136E0,9.683848207E0
3.796071500E0,2.024090881E0,-9.332942047E0,-1.217118988E0,9.627155851E0
3.806113500E0,2.412982178E0,-9.347910919E0,1.347198486E-2,9.654330792E0
3.816156500E0,2.716101837E0,-9.259145508E0,9.080117798E-1,9.691928091E0
3.826198500E0,3.066972198E0,-9.084009705E0,1.305884399E0,9.676305330E0
3.836241500E0,3.348237305E0,-8.724008331E0,1.381477203E0,9.446030578E0
3.846283500E0,3.453169098E0,-8.424331512E0,1.416654053E0,9.214154707E0
3.856326500E0,3.424877930E0,-8.354875946E0,1.467697906E0,9.148107895E0
3.866368500E0,3.240461426E0,-8.451425171E0,1.534908142E0,9.180583896E0
3.876411500E0,3.031346283E0,-8.804840240E0,1.641037445E0,9.455542070E0
3.886453500E0,2.877166901E0,-9.228758698E0,1.752705231E0,9.824461924E0
3.896496500E0,2.707569580E0,-9.593250732E0,1.838925934E0,1.013622421E1
3.906538500E0,2.536175995E0,-9.864486694E0,1.852996674E0,1.035248198E1
3.916581500E0,2.350711670E0,-9.966873779E0,1.957180023E0,1.042568808E1
3.926623500E0,2.129022675E0,-9.927655334E0,2.021097107E0,1.035257994E1
3.936666500E0,1.942510529E0,-9.895322571E0,1.959724731E0,1.027284172E1
3.946708500E0,1.638492737E0,-9.859996033E0,1.819765778E0,1.015951415E1
3.956751500E0,1.345102844E0,-9.851463776E0,1.677262115E0,1.008334510E1
3.966793500E0,1.073417816E0,-9.753866730E0,1.654659119E0,9.951283273E0
3.976836500E0,6.941065979E-1,-9.502389679E0,1.671274567E0,9.673176947E0
3.986878500E0,3.838018799E-1,-9.142837372E0,1.718426514E0,9.310841464E0
3.996921500E0,1.625619507E-1,-8.780740356E0,1.766177216E0,8.958080685E0
4.006963500E0,-6.870712280E-2,-8.394842834E0,1.811383209E0,8.588318579E0
4.017006500E0,-1.701960754E-1,-8.078251190E0,1.830693054E0,8.284838324E0
4.027048500E0,-1.004411316E-1,-7.806715851E0,1.854044495E0,8.024486388E0
4.037091500E0,5.328918457E-2,-7.543712769E0,1.882485352E0,7.775229461E0
4.047133500E0,1.161584473E-1,-7.261549530E0,1.904489594E0,7.508040688E0
4.057176500E0,1.288819885E-1,-6.996600494E0,1.964664459E0,7.268351634E0
4.067218500E0,3.189866638E-1,-6.810387726E0,1.827848969E0,7.058623472E0
4.077261500E0,1.252595215E0,-6.702162781E0,3.903881836E-1,6.829376520E0
4.087303500E0,3.131188660E0,-6.642736359E0,-2.433489532E0,7.736417779E0
4.097346500E0,4.788991241E0,-6.799759827E0,-3.877835999E0,9.176534359E0
4.107388500E0,5.686524811E0,-7.064858551E0,-2.934647369E0,9.532100815E0
4.117431500E0,5.667065277E0,-7.421866150E0,-6.114784241E-1,9.358078428E0
4.127473500E0,5.187312927E0,-7.785160675E0,6.185137939E-1,9.375473399E0
4.137516500E0,4.816533966E0,-8.035440216E0,4.390370178E-1,9.378702065E0
4.147558500E0,4.887037354E0,-8.352929993E0,-1.476080475E0,9.789452851E0
4.157601500E0,3.884272614E0,-8.923094330E0,-3.260819092E0,1.026363129E1
4.167643500E0,1.298699341E0,-9.631571045E0,-1.308129730E0,9.806374670E0
4.177686500E0,-7.735913086E-1,-9.912087708E0,2.122735748E0,1.016631365E1
4.187728500E0,-1.428180084E0,-1.005040009E1,2.772983551E0,1.052329217E1
4.197770250E0,-1.990859985E-1,-9.968969421E0,-4.520599365E-1,9.981199564E0
4.207812250E0,4.267924805E0,-9.777367859E0,-5.854325867E0,1.216902772E1
4.217855250E0,9.131161652E0,-1.010264145E1,-8.641679535E0,1.612823929E1
4.227897250E0,1.047880920E1,-1.035591476E1,-6.494245148E0,1.610048549E1
4.237940250E0,9.245224457E0,-9.190887451E0,-4.512965240E0,1.379541383E1
4.247982250E0,8.393645325E0,-6.355633392E0,-4.207450562E0,1.133798915E1
4.258025250E0,7.940986633E0,-2.955903168E0,-3.174299011E0,9.048359324E0
4.268067250E0,7.120093689E0,-4.671784973E-1,2.291884003E0,7.494446088E0
4.278110250E0,5.969286804E0,6.032455444E-1,7.749085693E0,9.800235672E0
4.288152250E0,5.223238220E0,1.100810852E0,7.903714142E0,9.537436724E0
4.298195250E0,6.471791840E0,1.770967255E0,5.000202026E0,8.367940902E0
4.308237250E0,9.329050140E0,1.309476929E0,3.520828400E0,1.005694481E1
4.318280250E0,1.124132355E1,-2.697091370E0,4.461921387E0,1.239154548E1
4.328322250E0,9.333690491E0,-7.149282990E0,3.509452057E0,1.226973020E1
4.338365250E0,7.364535370E0,-9.707463226E0,-4.520599365E-2,1.218496069E1
4.348407250E0,7.373367004E0,-1.139310791E1,-1.940863953E0,1.370898981E1
4.358450250E0,7.715555420E0,-1.267055145E1,-3.128643951E0,1.516117022E1
4.368492250E0,8.168064423E0,-1.374561584E1,-4.083358612E0,1.650251644E1
4.378535250E0,8.249794464E0,-1.499147507E1,-2.132315826E0,1.724384540E1
4.388577250E0,7.762857056E0,-1.643627060E1,-6.948550415E-1,1.819054052E1
4.398620250E0,7.591164093E0,-1.830917587E1,-1.530417480E0,1.987948367E1
4.408662250E0,7.664661255E0,-2.088501938E1,-1.945354614E0,2.233193837E1
4.418705250E0,7.045698395E0,-2.433893692E1,-1.494641876E0,2.538227079E1
4.428747250E0,7.309898987E0,-2.795197357E1,-1.793719940E0,2.894762306E1
4.438790250E0,8.032745819E0,-3.055506042E1,-9.246272278E-1,3.160682930E1
4.448832250E0,8.245603180E0,-3.106175674E1,-1.435514832E-1,3.213787969E1
4.458875250E0,7.932604065E0,-3.023068497E1,2.122586060E-1,3.125484882E1
4.468917250E0,7.322173462E0,-2.922537552E1,1.270557861E0,3.015544919E1
4.478960250E0,6.365213470E0,-2.831631592E1,3.108585663E0,2.918891904E1
4.489002250E0,5.445675659E0,-2.776591049E1,4.273014221E0,2.861572678E1
4.499045250E0,5.119054871E0,-2.796275116E1,4.482428741E0,2.877867861E1
4.509087250E0,5.450914764E0,-2.902194855E1,4.223467255E0,2.982991192E1
4.519130250E0,6.519542542E0,-2.975991394E1,5.081932068E0,3.088661435E1
4.529173250E0,7.870782623E0,-3.007934967E1,8.003556519E0,3.210566013E1
4.539215250E0,8.529862061E0,-2.905502975E1,7.618108063E0,3.122481179E1
4.549258250E0,8.863069153E0,-2.454550735E1,6.526577911E0,2.690041162E1
4.559300250E0,7.916287994E0,-1.881512375E1,5.760321350E0,2.120985147E1
4.569343250E0,5.792055359E0,-1.355191864E1,3.921994171E0,1.525071941E1
4.579385250E0,3.330124969E0,-8.844058685E0,4.824168091E0,1.061035834E1
4.589428250E0,1.770218811E0,-6.168821869E0,6.347849579E0,9.026806310E0
4.599470250E0,1.869058273E1,-9.587412872E0,-2.661196014E1,3.390358080E1
4.609513250E0,2.954600876E1,-7.231462097E0,-4.027809128E1,5.047361008E1
4.619555250E0,1.114657059E1,-2.021246796E0,-7.715256042E0,1.370608078E1
4.629598250E0,7.354955292E0,3.295846252E0,-4.744234314E0,9.352311430E0
4.639640250E0,3.033441925E0,1.476679230E0,3.445834351E-1,3.391325582E0
4.649683250E0,1.193917236E0,4.215234375E-1,5.891748047E-1,1.396512558E0
4.659725250E0,1.221609650E0,1.031804352E0,9.964778137E-1,1.884122711E0
4.669768250E0,9.699829102E-1,1.255588989E0,9.081614685E-1,1.828148738E0
4.679810250E0,7.952961731E-1,1.313069458E0,2.502795410E-1,1.555405816E0
4.689853250E0,5.978567505E-1,1.233135681E0,4.950205994E-1,1.457086715E0
4.699895250E0,3.891906738E-3,2.084265747E0,1.233285370E0,2.421811647E0
4.709938250E0,-7.247927856E-1,2.595752106E0,1.715732117E0,3.194838067E0
4.719980250E0,-9.126521301E-1,1.847308502E0,1.116228790E0,2.343384161E0
4.730023250E0,-9.714797974E-1,1.120420074E0,5.661227417E-1,1.587327659E0
4.740065250E0,-1.031504974E0,5.989045715E-1,4.802014160E-1,1.285800372E0
4.750108250E0,-1.104852448E0,2.874023438E-1,4.863386536E-1,1.240896581E0
4.760150250E0,-1.186432800E0,1.404080200E-1,3.929328918E-1,1.257669853E0
4.770193250E0,-1.178499298E0,1.266366577E-1,1.766326904E-1,1.198372457E0
4.780235250E0,-1.184187469E0,4.954696655E-2,-3.544628906E-1,1.237092885E0
4.790278250E0,-1.371747437E0,8.173004150E-2,-1.559157715E0,2.078303060E0
4.800320250E0,-1.574276276E0,2.483335876E-1,-2.330204315E0,2.823095378E0
4.810363250E0,-1.473835144E0,4.619393921E-1,-1.350341949E0,2.051585098E0
4.820405250E0,-9.391470337E-1,6.417155457E-1,-4.445755005E-2,1.138320019E0
4.830448250E0,-4.400848389E-1,6.174659729E-1,4.514611816E-1,8.824715812E-1
4.840490250E0,-2.408491516E-1,4.987628174E-1,3.736230469E-1,6.681069099E-1
4.850533250E0,-2.026785278E-1,3.902384949E-1,2.561174011E-1,5.088819035E-1
4.860575250E0,-1.948947144E-1,3.152444458E-1,2.025288391E-1,4.223516792E-1
4.870618250E0,-1.387614441E-1,2.558180237E-1,2.311193848E-1,3.716366096E-1
4.880660250E0,3.847000122E-2,7.244934082E-2,4.349954224E-1,4.426622476E-1
4.890703250E0,9.041198730E-2,-3.007246399E-1,8.640032959E-1,9.192993701E-1
4.900745250E0,-7.080276489E-2,-6.048921204E-1,1.317410431E0,1.451370991E0
4.910788250E0,-2.619552612E-1,-7.002438354E-1,1.480271759E0,1.658362587E0
4.920830250E0,-4.330494690E-1,-6.782395935E-1,1.432521057E0,1.643063410E0
4.930873250E0,-6.074368286E-1,-6.060896301E-1,1.382225647E0,1.626920981E0
4.940915250E0,-6.177653503E-1,-3.342549133E-1,1.352886658E0,1.524356482E0
4.950958250E0,-5.102888489E-1,-1.291813660E-1,1.325343933E0,1.426050166E0
4.961000250E0,-4.099974060E-1,-8.487350464E-2,1.209484863E0,1.279904301E0
4.971043250E0,-2.906954956E-1,-1.701960754E-1,1.071771240E0,1.123460799E0
4.981085250E0,-3.185375977E-1,-2.833607483E-1,8.487350464E-1,9.497950799E-1
4.991128250E0,-3.263214111E-1,-3.170407104E-1,6.471043396E-1,7.910401392E-1
5.001170250E0,-2.830613708E-1,-3.222798157E-1,5.098397827E-1,6.662766867E-1
5.011213250E0,-2.532733154E-1,-3.448828125E-1,4.216731262E-1,6.007493255E-1
5.021255250E0,-2.330653381E-1,-3.713777161E-1,3.095562744E-1,5.367177534E-1
5.031298250E0,-2.248324585E-1,-4.002676392E-1,2.071691895E-1,5.036694257E-1
5.041340250E0,-1.803749084E-1,-4.210743713E-1,1.233435059E-1,4.743968320E-1
5.051383250E0,-4.610412598E-2,-5.697152710E-1,-5.920188904E-1,8.229139973E-1
5.061425250E0,3.144660645E0,-1.746118927E0,-1.354772736E1,1.401708737E1
5.071468250E0,5.007387085E0,-2.478994904E0,-1.640603348E1,1.733139566E1
5.081510250E0,3.876339111E0,-2.554587708E0,-7.900570679E0,9.163565917E0
5.091553250E0,3.991898804E0,-2.552791443E0,-2.402953033E0,5.312831965E0
5.101595250E0,4.115841064E0,-2.351909180E0,2.287093964E0,5.263309154E0
5.111638250E0,3.679947510E0,-2.036065979E0,4.152365112E0,5.910136578E0
5.121680250E0,4.138593750E0,-3.028053131E0,-1.509011993E0,5.345482316E0
5.131723250E0,2.435136108E0,-4.972808990E0,2.003134460E0,5.888231041E0
5.141765250E0,2.016307068E-1,-3.290008392E0,6.940616913E0,7.683552127E0
5.151808250E0,2.866539001E-1,-4.392316132E0,5.587879944E0,7.113298372E0
5.161850250E0,8.726852417E-2,-9.314829712E0,6.163882141E0,1.116991994E1
5.171893250E0,4.886438599E0,-2.398791687E1,1.344818436E1,2.793118509E1
5.181935250E0,3.497432053E1,-6.738267700E1,3.535228455E1,8.374611799E1
5.191978250E0,7.112519440E1,-1.062135777E2,1.960847397E1,1.293236623E2
5.202020875E0,5.801081589E1,-9.179406326E1,8.097710724E0,1.088897503E2
5.212063875E0,2.137674683E1,-4.598856628E1,3.644171906E0,5.084479838E1
5.222105875E0,6.515051880E0,-2.107811783E1,-5.809329437E1,6.214148215E1
5.232148875E0,-1.017583923E0,-1.811996933E1,-7.518445312E1,7.734384757E1
5.242190875E0,-3.581003265E0,-1.529070282E1,7.831863556E0,1.754899609E1
5.252233875E0,-1.152902527E0,-1.179861465E1,1.391132126E1,1.827734530E1
5.262275875E0,-1.475032654E0,-1.006027954E1,1.053359528E1,1.464040898E1
5.272318875E0,1.038390656E0,-7.784262543E0,1.287128403E1,1.507789611E1
5.282360875E0,3.749403076E0,-6.235882416E0,1.238449631E1,1.436384356E1
5.292403875E0,4.709207153E0,-6.079457703E0,1.294328430E1,1.505539925E1
5.302445875E0,4.393663330E0,-7.069947968E0,1.215517319E1,1.473216471E1
5.312488875E0,4.157005463E0,-8.750652924E0,8.899293823E0,1.315492499E1
5.322530875E0,5.822292480E0,-1.140164017E1,3.393592987E0,1.324435584E1
5.332573875E0,8.200546875E0,-1.449390976E1,-1.025966492E0,1.668457361E1
5.342615875E0,8.127349091E0,-1.745849487E1,-1.744921417E0,1.933643186E1
5.352658875E0,6.643335114E0,-1.973511063E1,-2.281854858E0,2.094792005E1
5.362700875E0,4.708009644E0,-1.975621674E1,-3.039429474E0,2.053561750E1
5.372743875E0,3.794010315E0,-1.702529572E1,-2.432441711E0,1.761170012E1
5.382785875E0,3.270099792E0,-1.387689285E1,2.020797729E-2,1.425700236E1
5.392828875E0,2.144290924E0,-1.122006775E1,1.806144104E0,1.156503612E1
5.402870875E0,1.137035522E0,-9.009764099E0,2.317181396E0,9.372194435E0
5.412913875E0,4.879852295E-1,-7.206015015E0,2.259102173E0,7.567583802E0
5.422955875E0,2.960842896E-1,-5.649402008E0,1.977388000E0,5.992785017E0
5.432998875E0,4.920268250E-1,-4.315825195E0,1.433419189E0,4.574180592E0
5.443040875E0,6.836283875E-1,-3.279979248E0,8.360115051E-1,3.453190825E0
5.453083875E0,8.614585876E-1,-2.666554871E0,3.469784546E-1,2.823653630E0
5.463125875E0,8.872050476E-1,-2.437980194E0,-1.851649475E-1,2.600993326E0
5.473168875E0,9.327104187E-1,-2.583178253E0,-5.405259705E-1,2.799093949E0
5.483210875E0,1.140478363E0,-2.900218964E0,-6.283932495E-1,3.179125510E0
5.493253875E0,1.408720551E0,-3.312312012E0,-4.173321533E-1,3.623543925E0
5.503295875E0,1.539698181E0,-3.718267822E0,-1.124162292E-1,4.026018318E0
5.513338875E0,1.654808807E0,-4.059558105E0,2.874023438E-1,4.393290829E0
5.523380875E0,1.995200958E0,-4.302353210E0,6.483018494E-1,4.786581797E0
5.533423875E0,2.623145142E0,-4.440515900E0,8.038284302E-1,5.219694630E0
5.543465875E0,3.365002441E0,-4.537813568E0,6.643185425E-1,5.688260941E0
5.553508875E0,4.117038574E0,-4.680766296E0,3.562591553E-1,6.243917066E0
5.563550875E0,4.721631317E0,-5.078189850E0,1.335223389E-1,6.935390592E0
5.573593875E0,5.231920166E0,-5.637127533E0,1.324745178E-1,7.692057263E0
5.583635875E0,5.773793335E0,-6.251150665E0,3.354524231E-1,8.516225833E0
5.593678875E0,6.408024445E0,-6.838529205E0,6.722520447E-1,9.395753391E0
5.603720875E0,7.176077271E0,-7.319029999E0,9.249266052E-1,1.029173330E1
5.613763875E0,7.801177368E0,-7.926766205E0,1.098116455E0,1.117577069E1
5.623805875E0,8.275690613E0,-8.641529846E0,1.253193970E0,1.203052735E1
5.633848875E0,8.413254547E0,-9.180708618E0,1.489851837E0,1.254144813E1
5.643890875E0,7.730224915E0,-9.404193878E0,1.686692505E0,1.228984017E1
5.653933875E0,6.384673004E0,-9.661209412E0,1.858535156E0,1.172847687E1
5.663975875E0,5.064119110E0,-1.008482849E1,1.950294342E0,1.145219263E1
5.674018875E0,3.754342804E0,-1.054691757E1,1.527423706E0,1.129891957E1
5.684060875E0,2.490071869E0,-1.083327209E1,8.669970703E-1,1.114952582E1
5.694103875E0,1.262474670E0,-1.078866486E1,5.231620789E-1,1.087487150E1
5.704145875E0,2.335144043E-2,-1.045126648E1,4.999603271E-2,1.045141215E1
5.714188875E0,-1.151255951E0,-9.940079498E0,-1.323697357E0,1.009369830E1
5.724230875E0,-1.927092590E0,-9.232500916E0,-3.018473053E0,9.902723796E0
5.734273875E0,-1.842967529E0,-8.334368591E0,-3.692671051E0,9.300217665E0
5.744315875E0,-7.749385071E-1,-7.515421600E0,-2.487078094E0,7.954096364E0
5.754358875E0,6.577322388E-1,-6.947502594E0,-2.936892700E-1,6.984744618E0
5.764400875E0,2.380948792E0,-6.604116669E0,1.742376709E0,7.233197821E0
5.774443875E0,4.666994934E0,-6.491999817E0,2.544259186E0,8.390480209E0
5.784485875E0,6.843917999E0,-6.932833099E0,2.543211365E0,1.006833216E1
5.794528875E0,7.662266235E0,-8.081843719E0,3.297492828E0,1.161464510E1
5.804570875E0,6.407575378E0,-9.398805084E0,4.317022705E0,1.216680912E1
5.814613875E0,4.545896759E0,-1.002585114E1,3.377725983E0,1.151485567E1
5.824655875E0,4.175716553E0,-9.748328247E0,4.198768616E-1,1.061333166E1
5.834698875E0,4.677173767E0,-9.317673798E0,-2.852019196E0,1.080874706E1
5.844740875E0,4.332440643E0,-9.208401031E0,-5.059029694E0,1.136479093E1
5.854783875E0,3.245550842E0,-9.072034607E0,-4.503983917E0,1.063584897E1
5.864825875E0,2.755619659E0,-8.556207275E0,-1.342558136E0,9.088706453E0
5.874868875E0,3.294049988E0,-7.736062775E0,1.588047638E0,8.556829312E0
5.884910875E0,4.248165894E0,-6.783743134E0,2.197580109E0,8.300327867E0
5.894953875E0,4.795876923E0,-6.205345917E0,5.450166321E-1,7.861539069E0
5.904995875E0,4.495301971E0,-6.271508331E0,-3.998185730E-1,7.726539423E0
5.915038875E0,4.346361694E0,-6.603218536E0,3.052153015E-1,7.911163720E0
5.925080875E0,5.336253204E0,-6.729705505E0,1.838776245E0,8.783258651E0
5.935123875E0,6.781048737E0,-6.337820435E0,2.762056274E0,9.683983927E0
5.945165875E0,7.860154724E0,-5.849236450E0,3.267405396E0,1.032819139E1
5.955208875E0,7.655081177E0,-5.908064117E0,4.925207977E0,1.085187371E1
5.965250875E0,6.090983734E0,-6.195316772E0,4.480183411E0,9.775176528E0
5.975293875E0,5.113666077E0,-6.162684631E0,3.655697937E0,8.802976202E0
5.985335875E0,4.772375793E0,-6.753805389E0,3.511547699E0,8.984454641E0
5.995378875E0,4.954247589E0,-8.319549408E0,1.772763519E0,9.843889578E0
6.005420875E0,4.682412872E0,-1.037597305E1,1.127605133E0,1.143928758E1
6.015463875E0,4.010160828E0,-1.229333588E1,-2.842588806E-1,1.293399783E1
6.025505875E0,3.931274872E0,-1.398017807E1,-7.496411133E-1,1.454174208E1
6.035548875E0,3.109034729E0,-1.546943115E1,2.100132751E-1,1.578016168E1
6.045590875E0,3.446283417E0,-1.696197739E1,-3.549119568E-1,1.731217805E1
6.055633875E0,5.881718903E0,-1.870734787E1,-5.474116516E-1,1.961782712E1
6.065675875E0,9.019793243E0,-2.150907166E1,-3.135978699E-1,2.332584784E1
6.075718875E0,1.131781448E1,-2.584166199E1,-3.953279114E-1,2.821419329E1
6.085760875E0,1.183903061E1,-3.077180969E1,3.216810608E-1,3.297226708E1
6.095803875E0,1.081141754E1,-3.467554184E1,2.028282166E-1,3.632245986E1
6.105845875E0,9.007818146E0,-3.552173218E1,-6.646179199E-1,3.665209355E1
6.115888875E0,7.344477081E0,-3.305740677E1,-5.795947266E-1,3.386841325E1
6.125930875E0,6.089187469E0,-2.977832565E1,1.467847595E0,3.042994347E1
6.135973875E0,5.184618530E0,-2.737357635E1,3.886667633E0,2.813003976E1
6.146015875E0,4.536316681E0,-2.630734360E1,5.099745026E0,2.717833504E1
6.156058875E0,4.915478210E0,-2.592114670E1,5.000800781E0,2.685285424E1
6.166100875E0,4.920867004E0,-2.625255753E1,5.529201965E0,2.727606612E1
6.176143875E0,4.971162415E0,-2.664219727E1,6.428531799E0,2.785399706E1
6.186185875E0,6.248306580E0,-2.632919815E1,7.135661316E0,2.798545466E1
6.196228875E0,7.515720978E0,-2.404449921E1,7.357949066E0,2.624430259E1
6.206270417E0,7.038513336E0,-1.932720886E1,7.131619720E0,2.177020147E1
6.216313417E0,4.959337006E0,-1.414857788E1,5.129682770E0,1.584584882E1
6.226355417E0,3.096311188E0,-9.323811035E0,5.714815979E0,1.136572553E1
6.236398417E0,8.032296753E-1,-5.164111176E0,9.361233215E0,1.072128301E1
6.246440417E0,7.170389099E0,-9.837991791E0,1.284628601E0,1.224135748E1
6.256483417E0,2.853067017E1,-1.270752457E1,-4.627791458E1,5.583122512E1
6.266525417E0,1.774889099E1,-4.864284668E0,-2.477213608E1,3.086005707E1
6.276568417E0,5.635031891E0,-3.932322693E-1,-5.113815765E0,7.619667165E0
6.286610417E0,3.436254272E0,2.327809296E0,-1.424288177E0,4.388067497E0
6.296653417E0,2.285746765E-1,6.523434448E-1,1.584455109E0,1.728668952E0
6.306695417E0,4.197271729E-1,7.322772217E-1,8.738827515E-1,1.214936991E0
6.316738417E0,9.644444275E-1,1.049617310E0,1.411414948E0,2.005976496E0
6.326780417E0,9.942324829E-1,1.016685791E0,1.171164551E0,1.842220028E0
6.336823417E0,1.062191162E0,9.915380859E-1,1.283431091E0,1.938709160E0
6.346865417E0,9.771679688E-1,1.328487396E0,1.876797180E0,2.498420232E0
6.356908417E0,1.079105988E0,2.020049286E0,2.855761414E0,3.660661429E0
6.366950417E0,1.028660889E0,2.728376312E0,4.086053009E0,5.019761918E0
6.376993417E0,1.127305756E0,2.627785492E0,3.288810883E0,4.358021556E0
6.387035417E0,1.090332642E0,1.521735535E0,8.256829834E-1,2.046034383E0
6.397078417E0,8.884025574E-1,7.631130981E-1,-1.457519073E0,1.869749329E0
6.407120417E0,1.374741211E0,3.341052246E-1,-3.099604340E0,3.407210994E0
6.417163417E0,2.048041077E0,-1.197509766E-2,-3.156935120E0,3.763091150E0
6.427205417E0,2.038011932E0,-9.610015869E-2,-2.072590027E0,2.908325514E0
6.437248417E0,1.636097717E0,8.532257080E-3,-1.271455994E0,2.072073571E0
6.447290417E0,1.266366577E0,-4.640350342E-3,-9.415420532E-1,1.578039061E0
6.457333417E0,1.080453186E0,-3.068618774E-2,-8.036787415E-1,1.346929935E0
6.467375417E0,9.506730652E-1,1.362167358E-1,-6.316864014E-1,1.149505105E0
6.477418417E0,6.379733276E-1,4.040098572E-1,-4.346960449E-1,8.713177279E-1
6.487460417E0,3.463796997E-1,4.222718811E-1,-3.513194275E-1,6.493980121E-1
6.497502417E0,8.442443848E-2,3.143463135E-1,-3.824546814E-1,5.022077996E-1
6.507545417E0,-3.517684937E-2,2.444416809E-1,-4.162843323E-1,4.840266433E-1
6.517587417E0,-5.313949585E-2,2.046244812E-1,-4.007167053E-1,4.530660683E-1
6.527630417E0,-1.034349060E-1,1.456471252E-1,-3.567082214E-1,3.989393690E-1
6.537672417E0,-1.347198486E-1,2.050735474E-2,-2.778222656E-1,3.094433720E-1
6.547715417E0,-1.308279419E-1,-1.296304321E-1,-2.408491516E-1,3.031968225E-1
6.557757417E0,-7.035369873E-2,-2.561174011E-1,-2.058219910E-1,3.360185383E-1
6.567800417E0,-5.718109131E-2,-3.543132019E-1,-1.457968140E-1,3.873812505E-1
6.577842417E0,-1.190025330E-1,-4.155358887E-1,-1.960922241E-2,4.326848729E-1
6.587885417E0,-1.874102783E-1,-4.866380310E-1,1.100212097E-1,5.329576458E-1
6.597927417E0,-2.863545227E-1,-5.821394348E-1,2.047741699E-1,6.803070593E-1
6.607970417E0,-3.155438232E-1,-6.101312256E-1,2.987786865E-1,7.490638960E-1
6.618012417E0,-3.317102051E-1,-6.870712280E-1,3.757186890E-1,8.504487438E-1
6.628055417E0,-3.203338623E-1,-7.885601807E-1,4.640350342E-1,9.694170696E-1
6.638097417E0,-2.665956116E-1,-9.577084351E-1,5.489085388E-1,1.135596429E0
6.648140417E0,-1.998344421E-1,-1.109193420E0,6.453080750E-1,1.298717198E0
6.658182417E0,-1.279838562E-1,-1.219963074E0,7.596702576E-1,1.442840486E0
6.668225417E0,-3.637435913E-2,-1.277892609E0,8.394543457E-1,1.529384259E0
6.678267417E0,1.475930786E-1,-1.335373077E0,9.009764099E-1,1.617641327E0
6.688310417E0,4.243675232E-1,-1.450034637E0,9.237290955E-1,1.770865237E0
6.698352417E0,7.424560547E-1,-1.794169006E0,7.488926697E-1,2.081135182E0
6.708395417E0,9.491761780E-1,-2.019151154E0,1.167572021E-1,2.234175249E0
6.718437417E0,1.290915527E0,-2.020049286E0,-7.066804504E-1,2.499291755E0
6.728480417E0,2.438728638E0,-2.221829681E0,-2.217339020E0,3.974986394E0
6.738522417E0,4.483476562E0,-2.521057434E0,-4.679269409E0,6.953621709E0
6.748565417E0,5.211263123E0,-2.514022064E0,-3.494932251E0,6.759594789E0
6.758607417E0,4.699178009E0,-2.455344086E0,-8.589138794E-1,5.371100594E0
6.768650417E0,7.241191864E0,-3.135080566E0,-2.825224915E0,8.381257995E0
6.778692417E0,5.697003021E0,-6.805148621E0,-3.951782227E-1,8.883808699E0
6.788735417E0,-1.901046753E-1,-8.105644226E0,2.877166901E0,8.603237616E0
6.798777417E0,-8.662486267E-1,-8.237070923E0,-1.422491913E0,8.403761498E0
6.808820417E0,1.007255402E0,-1.213915649E1,1.315614166E0,1.225171516E1
6.818862417E0,9.961035919E0,-2.599569168E1,5.903274078E0,2.845780855E1
6.828905417E0,4.627941147E1,-7.078540100E1,3.904929657E0,8.466171151E1
6.838947417E0,5.142945190E1,-9.637947784E1,1.960158829E1,1.109874522E2
6.848990417E0,1.959365479E1,-7.117863327E1,2.674159058E1,7.852020000E1
6.859032417E0,4.281247101E0,-3.809727631E1,9.494007111E0,3.949516059E1
6.869075417E0,-5.443580017E0,-2.229074615E1,-2.539738586E1,3.422772467E1
6.879117417E0,-1.114058304E1,-1.761462021E1,-4.548276810E1,5.003068688E1
6.889160417E0,-6.385271759E0,-1.435469925E1,4.260140991E-1,1.571657005E1
6.899202417E0,-3.557352448E0,-1.228270798E1,1.124985580E1,1.703170359E1
6.909245417E0,-3.110830994E0,-1.177496384E1,7.785160675E0,1.445461067E1
6.919287417E0,-5.089416504E-3,-1.065184937E1,6.126609650E0,1.228809451E1
6.929330417E0,7.413483582E0,-9.973310394E0,5.583389282E-2,1.242697777E1
6.939372417E0,8.585695953E0,-1.127440475E1,2.953358459E0,1.447579717E1
6.949415417E0,3.600612488E0,-1.323113571E1,5.598058777E0,1.481099674E1
6.959457417E0,1.270108795E0,-1.377420639E1,1.133293304E0,1.387898742E1
6.969500417E0,1.461710358E0,-1.279658936E1,-2.470312958E0,1.311456223E1
6.979542417E0,2.620301056E0,-1.174652298E1,-9.042695618E-1,1.206915420E1
6.989585417E0,3.489842834E0,-1.082908081E1,1.874551849E0,1.153091232E1
6.999627417E0,4.077221375E0,-1.051563263E1,2.976111145E0,1.166445461E1
7.009670417E0,5.113516388E0,-1.084659439E1,3.273542633E0,1.243031541E1
7.019712417E0,5.870641937E0,-1.144894180E1,3.309916992E0,1.328526461E1
7.029755417E0,5.688620453E0,-1.199695221E1,3.138074341E0,1.364312191E1
7.039797417E0,5.264701996E0,-1.211745163E1,2.706671448E0,1.348613330E1
7.049840417E0,4.546196136E0,-1.158815231E1,2.291584625E0,1.265719295E1
7.059882417E0,3.639082489E0,-1.044348267E1,1.939816132E0,1.122818499E1
7.069925417E0,3.279979248E0,-9.004225616E0,9.939331055E-1,9.634430229E0
7.079967417E0,3.626059570E0,-7.701784058E0,-1.998344421E-1,8.515029036E0
7.090010417E0,4.186045074E0,-6.760092316E0,-9.876461792E-1,8.012319668E0
7.100052417E0,4.069886627E0,-6.203399963E0,-7.605683899E-1,7.458190970E0
7.110095417E0,3.243305511E0,-5.751040649E0,-2.332150269E-1,6.606654860E0
7.120137417E0,2.336640930E0,-5.170996857E0,-4.236190796E-2,5.674583144E0
7.130180417E0,1.709295502E0,-4.525838470E0,1.103205872E-1,4.839119301E0
7.140222417E0,1.377435608E0,-4.054768066E0,1.179547119E-1,4.283968515E0
7.150265417E0,1.537452850E0,-3.851490784E0,-6.286926270E-2,4.147492624E0
7.160307417E0,2.209255829E0,-4.246669006E0,-4.176315308E-2,4.787144569E0
7.170350417E0,3.087030487E0,-5.227728882E0,3.370989990E-1,6.080505096E0
7.180392417E0,3.624113617E0,-6.278244324E0,5.041516113E-1,7.266685637E0
7.190435417E0,3.726800079E0,-7.290738831E0,2.998265076E-1,8.193522287E0
7.200477875E0,3.500620422E0,-8.187823334E0,3.037184143E-1,8.909940469E0
7.210520875E0,3.006797333E0,-8.875044250E0,6.996450806E-1,9.396634711E0
7.220562875E0,2.372566223E0,-9.298962708E0,9.532177734E-1,9.644086377E0
7.230605875E0,1.975142670E0,-9.514664154E0,1.128054199E0,9.782766930E0
7.240647875E0,1.783541107E0,-9.542206879E0,1.155896301E0,9.776033309E0
7.250690875E0,1.719324646E0,-9.374705200E0,1.057550812E0,9.589556223E0
7.260732875E0,1.581910400E0,-9.071136475E0,8.580157471E-1,9.247926712E0
7.270775875E0,1.332379303E0,-8.753197632E0,6.783892822E-1,8.879972714E0
7.280817875E0,1.118324432E0,-8.609646149E0,7.598199463E-1,8.715158214E0
7.290859875E0,9.873468018E-1,-8.801098022E0,1.042731628E0,8.917481111E0
7.300902875E0,8.219407654E-1,-9.188342743E0,1.226848755E0,9.306255254E0
7.310944875E0,6.887178040E-1,-9.656119995E0,1.350641327E0,9.774416482E0
7.320987875E0,7.337741089E-1,-1.001237915E1,1.582658844E0,1.016321650E1
7.331029875E0,9.148974609E-1,-1.017748581E1,1.935774536E0,1.040026335E1
7.341072875E0,9.785151672E-1,-1.006701553E1,2.242636414E0,1.036010192E1
7.351114875E0,9.708810425E-1,-9.654772797E0,2.467169495E0,1.001220121E1
7.361157875E0,1.063538361E0,-9.264384613E0,2.619552612E0,9.686175303E0
7.371199875E0,1.402733002E0,-9.017996979E0,2.732866974E0,9.526830075E0
7.381242875E0,1.836680603E0,-8.925639038E0,2.945874023E0,9.576982909E0
7.391284875E0,2.239343262E0,-8.787326660E0,3.109034729E0,9.586337414E0
7.401327875E0,2.856060791E0,-8.531209259E0,2.924019470E0,9.459836390E0
7.411369875E0,3.888014832E0,-8.180039520E0,2.196681976E0,9.319609304E0
7.421412875E0,4.720882874E0,-7.694898376E0,1.262923737E0,9.115545650E0
7.431454875E0,4.597090302E0,-7.329957275E0,1.070723419E0,8.718254501E0
7.441497875E0,4.069138184E0,-7.283703461E0,1.199904785E0,8.429115799E0
7.451539875E0,3.714675293E0,-7.442822571E0,1.166673889E0,8.399735015E0
7.461582875E0,3.404969330E0,-7.759713593E0,8.732839966E-1,8.518779027E0
7.471624875E0,2.709515533E0,-8.244705048E0,-2.567161560E-1,8.682311843E0
7.481667875E0,1.944905548E0,-8.780291290E0,-1.805545349E0,9.172576887E0
7.491709875E0,1.729054413E0,-9.145082703E0,-1.830393677E0,9.485383904E0
7.501752875E0,1.902393951E0,-9.301058350E0,-2.603086853E-1,9.497186414E0
7.511794875E0,2.165247345E0,-9.317823486E0,8.303233337E-1,9.602060582E0
7.521837875E0,2.624941406E0,-9.346563721E0,1.294508057E0,9.794096277E0
7.531879875E0,3.161874847E0,-9.258995819E0,2.624791718E0,1.012995497E1
7.541922875E0,3.734733582E0,-9.018895111E0,2.716550903E0,1.013253930E1
7.551964875E0,4.612208862E0,-8.592581635E0,4.441264343E-1,9.762283443E0
7.562007875E0,5.503455505E0,-8.102051697E0,-3.032543793E0,1.025317444E1
7.572049875E0,5.938301239E0,-7.547904053E0,-6.975943451E0,1.187004904E1
7.582092875E0,7.032376099E0,-6.818770294E0,-8.869505768E0,1.321431324E1
7.592134875E0,8.338110809E0,-5.952222290E0,-4.810097351E0,1.131768875E1
7.602177875E0,7.686815186E0,-4.879103851E0,6.072871399E-1,9.124778340E0
7.612219875E0,6.515051880E0,-3.328328705E0,2.960842896E0,7.892418110E0
7.622262875E0,5.878725128E0,-1.620081024E0,2.391127625E0,6.549928471E0
7.632304875E0,5.180427246E0,-6.054908752E-1,1.995350647E0,5.584341488E0
7.642347875E0,5.007237396E0,-3.001258850E-1,2.301763458E0,5.519113779E0
7.652389875E0,6.002368011E0,-7.985893250E-1,3.608545990E0,7.048955300E0
7.662432875E0,7.892786865E0,-1.966011658E0,5.028044128E0,9.562557926E0
7.672474875E0,1.049856812E1,-3.488345947E0,4.726121979E0,1.203015872E1
7.682517875E0,1.154564072E1,-5.230123901E0,3.698359222E0,1.320355545E1
7.692559875E0,9.094487915E0,-7.086413727E0,3.076701965E0,1.193285653E1
7.702602875E0,5.964347076E0,-8.278085632E0,4.054618378E0,1.097907409E1
7.712644875E0,4.840484161E0,-8.199199677E0,5.614973602E0,1.105373651E1
7.722687875E0,4.557273102E0,-8.171806641E0,5.586383057E0,1.089746932E1
7.732729875E0,4.499193878E0,-9.126221924E0,4.919968872E0,1.130206910E1
7.742772875E0,4.418511658E0,-1.111678253E1,3.711980896E0,1.252537031E1
7.752814875E0,4.178261261E0,-1.373423950E1,1.262774048E0,1.441116928E1
7.762857875E0,4.162543945E0,-1.654509430E1,-2.226320343E0,1.720533114E1
7.772899875E0,4.166585541E0,-1.953168365E1,-4.179458771E0,2.040379810E1
7.782942875E0,4.078269196E0,-2.253713379E1,-4.240382080E0,2.329239187E1
7.792984875E0,4.488266602E0,-2.468591537E1,-3.841910706E0,2.538305011E1
7.803027875E0,5.213807831E0,-2.708737152E1,-3.155737610E0,2.776451274E1
7.813069875E0,5.722749481E0,-3.070729385E1,-4.048181763E0,3.149723056E1
7.823112875E0,5.667664032E0,-3.389042450E1,-1.633253632E0,3.439986636E1
7.833154875E0,5.740263062E0,-3.537339066E1,1.276695099E0,3.585885298E1
7.843197875E0,5.858068085E0,-3.470877274E1,2.091899872E0,3.526176274E1
7.853239875E0,5.526357880E0,-3.331861359E1,2.984793091E0,3.390545137E1
7.863282875E0,4.937183075E0,-3.218591904E1,4.439019012E0,3.286356723E1
7.873324875E0,4.463867340E0,-3.120665543E1,5.433999939E0,3.198921396E1
7.883367875E0,4.848118286E0,-3.036151291E1,5.220992889E0,3.118628679E1
7.893409875E0,5.309458923E0,-2.991139893E1,6.199208679E0,3.100503714E1
7.903451875E0,6.080206146E0,-2.911161209E1,7.505093079E0,3.067215818E1
7.913494875E0,7.012018433E0,-2.764556076E1,8.036038971E0,2.963145887E1
7.923536875E0,7.312443695E0,-2.411530197E1,8.540939026E0,2.660765419E1
7.933579875E0,7.201823730E0,-1.892559402E1,8.635242920E0,2.201390003E1
7.943621875E0,6.383625183E0,-1.352722000E1,9.497599640E0,1.771837324E1
7.953664875E0,3.175795898E0,-9.642498322E0,7.504194946E0,1.262443643E1
7.963706875E0,2.900817719E0,-6.258335724E0,3.550167389E0,7.757911959E0
7.973749875E0,1.306333466E0,-3.071762238E0,7.576943665E0,8.279631976E0
7.983791875E0,7.110064545E0,-6.926396484E0,-4.582271118E0,1.093275787E1
7.993834875E0,1.743993347E1,-6.475683746E0,-2.072904373E1,2.785280980E1
8.003876875E0,9.514664154E0,-3.338806915E0,-6.348747711E0,1.191566461E1
8.013919875E0,3.441493378E0,-1.411864014E0,-1.581611023E0,4.042119505E0
8.023961875E0,2.835703125E0,8.866062927E-1,-3.415447540E0,4.526871418E0
8.034004875E0,6.435716858E0,3.825744324E0,-1.065259781E1,1.302046893E1
8.044046875E0,9.848470001E0,4.429289246E0,-1.901046753E1,2.186341328E1
8.054089875E0,9.368118896E0,3.441792755E0,-1.905312881E1,2.150881928E1
8.064131875E0,4.040098572E0,1.634600830E0,-3.323838043E0,5.481077967E0
8.074174875E0,3.900438995E0,1.511257324E0,1.314266968E-1,4.185044329E0
8.084216875E0,3.813918915E0,2.420616302E0,-1.219813385E0,4.679028261E0
8.094259875E0,2.510130157E0,1.180744629E0,-4.326004028E-2,2.774307610E0
8.104301875E0,2.499651947E0,7.529342651E-2,4.923262024E-1,2.548786779E0
8.114344875E0,2.623743896E0,-2.577639771E-1,7.457492065E-1,2.739820465E0
8.124386875E0,2.626587982E0,-4.288581848E-1,7.873626709E-1,2.775396142E0
8.134429875E0,2.415975952E0,-4.650828552E-1,6.333329773E-1,2.540541778E0
8.144471875E0,2.029779053E0,-3.159928894E-1,5.282514954E-1,2.121062034E0
8.154514875E0,1.540746002E0,8.232879639E-3,4.778063965E-1,1.613153736E0
8.164556875E0,1.206491089E0,1.606159973E-1,5.632786560E-1,1.341156624E0
8.174599875E0,1.125808868E0,1.555265808E-1,9.304650879E-1,1.468808839E0
8.184641875E0,9.475296021E-1,5.179229736E-2,1.301244049E0,1.610506400E0
8.194684875E0,5.698649597E-1,-3.134481812E-1,1.298250275E0,1.452050140E0
8.204727042E0,3.382965088E-1,-8.081694031E-1,1.042432251E0,1.361707498E0
8.214770042E0,5.505551147E-1,-1.326990509E0,9.458830261E-1,1.720089952E0
8.224812042E0,8.481362915E-1,-1.544937286E0,1.149609375E0,2.104226248E0
8.234855042E0,1.096320190E0,-1.529818726E0,1.486708374E0,2.398450559E0
8.244897042E0,1.059496765E0,-1.516346741E0,1.736239471E0,2.536999869E0
8.254940042E0,7.604187012E-1,-1.480421448E0,1.862726440E0,2.497925951E0
8.264982042E0,4.414320374E-1,-1.471290436E0,1.970502319E0,2.498486978E0
8.275025042E0,1.450483704E-1,-1.472637634E0,2.087558899E0,2.558828401E0
8.285067042E0,-9.969268799E-2,-1.548230438E0,2.216440887E0,2.705469706E0
8.295110042E0,-3.342549133E-1,-1.624871063E0,2.342029724E0,2.870023615E0
8.305152042E0,-5.456153870E-1,-1.629511414E0,2.275867310E0,2.851767103E0
8.315194042E0,-7.476951599E-1,-1.637295227E0,2.189496918E0,2.834374793E0
8.325237042E0,-7.915539551E-1,-1.662442932E0,2.055375824E0,2.759500669E0
8.335279042E0,-6.894662476E-1,-1.700463867E0,1.848056946E0,2.604276396E0
8.345322042E0,-5.833369446E-1,-1.586251373E0,1.635498962E0,2.351878455E0
8.355364042E0,-5.508544922E-1,-1.394200745E0,1.373843079E0,2.033391549E0
8.365407042E0,-6.059399414E-1,-1.239721985E0,1.079105988E0,1.751725876E0
8.375449042E0,-6.807843018E-1,-1.074016571E0,8.045768738E-1,1.504766695E0
8.385492042E0,-7.596702576E-1,-8.849597168E-1,6.116281128E-1,1.316944019E0
8.395534042E0,-7.894583130E-1,-6.917115784E-1,4.655319214E-1,1.148228769E0
8.405577042E0,-7.349716187E-1,-4.529580688E-1,3.832031250E-1,9.445628234E-1
8.415619042E0,-6.030958557E-1,-2.157014465E-1,3.567082214E-1,7.331387866E-1
8.425662042E0,-4.070036316E-1,-5.987548828E-3,3.773652649E-1,5.550606724E-1
8.435704042E0,-1.794767761E-1,2.035766602E-1,4.465214539E-1,5.225292130E-1
8.445747042E0,8.921447754E-2,3.932322693E-1,5.379812622E-1,6.723203694E-1
8.455789042E0,2.912942505E-1,4.613406372E-1,4.903802490E-1,7.335941061E-1
8.465832042E0,4.002676392E-1,5.282514954E-1,4.748126221E-1,8.152980138E-1
8.475874042E0,7.318281555E-1,6.569837952E-1,4.658312988E-1,1.088209059E0
8.485917042E0,6.519542542E0,6.902146912E-1,-1.156824371E1,1.329680766E1
8.495959042E0,1.389425674E1,-4.891827393E-1,-1.604363708E1,2.122941264E1
8.506002042E0,9.311686249E0,-3.661236420E0,2.691403198E-1,1.000922522E1
8.516044042E0,2.334096222E0,-5.010081482E0,1.945653992E0,5.859564069E0
8.526087042E0,2.245929565E0,-6.914122009E0,-3.150947571E-1,7.276576632E0
8.536129042E0,4.874463501E0,-1.428479462E1,2.595602417E0,1.531512010E1
8.546172042E0,1.326676163E1,-3.447166580E1,8.292006683E0,3.785578004E1
8.556214042E0,3.343282608E1,-7.504793701E1,1.902064636E1,8.433108382E1
8.566257042E0,4.396043381E1,-1.005222629E2,2.011217651E1,1.115425691E2
8.576299042E0,2.020887543E1,-7.249679214E1,1.586715408E1,7.691521368E1
8.586342042E0,5.165458374E0,-3.923371307E1,1.083626587E1,4.102914647E1
8.596384042E0,-9.627978516E-1,-2.405856995E1,8.392597504E0,2.549857762E1
8.606427042E0,-7.809709625E0,-1.869612122E1,-2.259895523E1,3.035208873E1
8.616469042E0,-1.262848892E1,-1.429871567E1,-4.889971252E1,5.248917876E1
8.626512042E0,-5.517975311E0,-1.075318863E1,-5.437293091E0,1.325304770E1
8.636554042E0,-1.399739227E0,-1.050021469E1,1.032837204E1,1.479489937E1
8.646597042E0,-6.701564026E-1,-1.187076462E1,8.318501587E0,1.451074191E1
8.656639042E0,1.490749969E0,-1.242910355E1,6.851701813E0,1.427062606E1
8.666682042E0,5.625451813E0,-1.441562256E1,4.561464386E0,1.613266374E1
8.676724042E0,4.910688171E0,-1.725671448E1,5.898034973E0,1.888639376E1
8.686767042E0,1.832040253E0,-1.900208496E1,4.498595123E0,1.961308141E1
8.696809042E0,2.404000854E-1,-1.852846985E1,1.314865723E0,1.857662130E1
8.706852042E0,7.066804504E-1,-1.625619507E1,-8.265811157E-1,1.629252932E1
8.716894042E0,1.797462158E0,-1.407478134E1,-9.243278503E-1,1.421916742E1
8.726937042E0,2.017205200E0,-1.229797623E1,2.212399292E-1,1.246428029E1
8.736979042E0,1.527423706E0,-1.091964249E1,1.350641327E0,1.110836834E1
8.747021042E0,8.246351624E-1,-1.006836273E1,1.880689087E0,1.027564804E1
8.757064042E0,2.866539001E-1,-9.502539368E0,1.945953369E0,9.703976474E0
8.767106042E0,7.349716187E-2,-8.953930206E0,1.817071381E0,9.136739920E0
8.777149042E0,3.183879089E-1,-8.355624390E0,1.602268066E0,8.513817755E0
8.787191042E0,7.342231750E-1,-7.691754913E0,1.357227631E0,7.845013968E0
8.797234042E0,1.214274902E0,-7.002887421E0,1.060394897E0,7.186051287E0
8.807276042E0,1.646276550E0,-6.322552185E0,6.956034851E-1,6.570293511E0
8.817319042E0,1.880838776E0,-5.636678467E0,2.317181396E-1,5.946712700E0
8.827361042E0,2.049088898E0,-5.065316620E0,-1.504371643E-1,5.466153045E0
8.837404042E0,2.151625671E0,-4.565056915E0,-2.595602417E-1,5.053376019E0
8.847446042E0,2.078128510E0,-4.216581573E0,-2.448907471E-1,4.707244390E0
8.857489042E0,1.898052979E0,-4.022435303E0,4.685256958E-2,4.448009222E0
8.867531042E0,1.746717682E0,-3.922443237E0,7.321275330E-1,4.355754164E0
8.877574042E0,1.516646118E0,-3.870800629E0,9.735754395E-1,4.269796493E0
8.887616042E0,1.461410980E0,-4.216431885E0,9.131011963E-1,4.554972413E0
8.897659042E0,1.447340240E0,-4.955295410E0,7.207511902E-1,5.212411021E0
8.907701042E0,1.548829193E0,-5.852978668E0,4.782554626E-1,6.073298893E0
8.917744042E0,1.663490753E0,-6.925498352E0,4.975653076E-1,7.139838944E0
8.927786042E0,2.064057770E0,-8.142467651E0,8.319699097E-1,8.441107028E0
8.937829042E0,2.774031372E0,-9.717043304E0,1.213825836E0,1.017789535E1
8.947871042E0,3.535348206E0,-1.154324570E1,1.448837128E0,1.215912567E1
8.957914042E0,4.270020447E0,-1.319550980E1,1.709894257E0,1.397420093E1
8.967956042E0,4.268673248E0,-1.374142456E1,1.814826050E0,1.450316910E1
8.977999042E0,3.402723999E0,-1.231968109E1,1.747017059E0,1.289981168E1
8.988041042E0,2.289189606E0,-9.981393585E0,1.542991333E0,1.035613003E1
8.998084042E0,1.552421722E0,-8.322393494E0,1.268162842E0,8.560402074E0
9.008126042E0,1.102906494E0,-7.440427551E0,1.024768982E0,7.591213101E0
9.018169042E0,8.069718933E-1,-7.246131592E0,8.002359009E-1,7.334712277E0
9.028211042E0,5.990542603E-1,-7.844886475E0,7.027885437E-1,7.899051940E0
9.038254042E0,4.258644104E-1,-8.759035492E0,7.105723572E-1,8.798123454E0
9.048296042E0,3.896397400E-1,-9.530830536E0,8.285270691E-1,9.574706624E0
9.058339042E0,4.079017639E-1,-1.004725662E1,9.732760620E-1,1.010252522E1
9.068381042E0,3.673361206E-1,-1.045875092E1,1.114282837E0,1.052435427E1
9.078423042E0,2.396516418E-1,-1.074435699E1,1.268312531E0,1.082161064E1
9.088466042E0,-1.284329224E-1,-1.088177124E1,1.389859772E0,1.097092296E1
9.098508042E0,-5.676196289E-1,-1.102607117E1,1.625918884E0,1.115975133E1
9.108551042E0,-9.520202637E-1,-1.106154739E1,1.916764069E0,1.126668353E1
9.118593042E0,-1.309177551E0,-1.094688583E1,2.066752167E0,1.121693897E1
9.128636042E0,-1.540147247E0,-1.060769119E1,2.062261505E0,1.091549763E1
9.138678042E0,-1.698068848E0,-1.004935226E1,2.039508820E0,1.039386910E1
9.148721042E0,-1.727407837E0,-9.446555786E0,1.982327728E0,9.805660471E0
9.158763042E0,-1.737137604E0,-8.961863708E0,1.909878387E0,9.326322085E0
9.168806042E0,-1.720372467E0,-8.612789612E0,1.809287567E0,8.967348985E0
9.178848042E0,-1.657203827E0,-8.427025909E0,1.671124878E0,8.749499903E0
9.188891042E0,-1.585353241E0,-8.419391785E0,1.511107635E0,8.699594773E0
9.198933042E0,-1.530716858E0,-8.429271240E0,1.327589264E0,8.669382965E0
9.208975875E0,-1.494192810E0,-8.373137970E0,1.197210388E0,8.589258660E0
9.219017875E0,-1.468146973E0,-8.195158081E0,1.110989685E0,8.399426742E0
9.229060875E0,-1.535806274E0,-7.976313171E0,1.169817352E0,8.206628136E0
9.239102875E0,-1.564097443E0,-7.750582581E0,1.329235840E0,8.017780183E0
9.249145875E0,-1.542093201E0,-7.534282379E0,1.589694214E0,7.853062466E0
9.259187875E0,-1.511706390E0,-7.345973969E0,1.874402161E0,7.730586861E0
9.269230875E0,-1.181493073E0,-7.183262329E0,2.094594269E0,7.575124337E0
9.279272875E0,-3.770658875E-1,-6.990612946E0,1.804198151E0,7.229521354E0
9.289315875E0,5.281616821E0,-7.263345795E0,-4.404590607E0,1.000260400E1
9.299357875E0,9.148076477E0,-7.234156494E0,-5.520819397E0,1.290347900E1
9.309400875E0,7.024143219E0,-7.111262054E0,-6.248007202E-1,1.001493944E1
9.319442875E0,6.877298584E0,-7.215894470E0,1.076710968E0,1.002624932E1
9.329485875E0,7.564968567E0,-6.873256989E0,1.179098053E0,1.028886210E1
9.339527875E0,8.802744598E0,-6.427334290E0,-1.556762695E-2,1.089950370E1
9.349570875E0,8.905730438E0,-6.176755371E0,-1.598675537E0,1.095536878E1
9.359612875E0,7.762707367E0,-6.107898560E0,-2.648442535E0,1.022645092E1
9.369655875E0,5.286107483E0,-6.211782532E0,-2.171983337E0,8.440775211E0
9.379697875E0,3.747157745E0,-6.322552185E0,-9.246272278E-1,7.407482218E0
9.389740875E0,3.787424011E0,-6.681655426E0,-1.541344757E0,7.833571569E0
9.399782875E0,4.965623932E0,-7.436685333E0,-2.326911163E0,9.239925613E0
9.409824875E0,5.572462006E0,-8.322842560E0,-3.363505554E-1,1.002173502E1
9.419867875E0,3.692072296E0,-8.928932190E0,2.251767426E0,9.921072746E0
9.429909875E0,2.188898163E0,-8.861871643E0,1.871109009E0,9.317998342E0
9.439952875E0,3.459755402E0,-8.576564941E0,-1.179547119E-1,9.248853277E0
9.449994875E0,5.875881042E0,-8.406668243E0,5.495072937E-1,1.027131964E1
9.460037875E0,7.907306671E0,-8.164322205E0,3.338208160E0,1.184589758E1
9.470079875E0,9.142537994E0,-7.886350250E0,5.984704742E0,1.347580098E1
9.480122875E0,8.415499878E0,-7.844736786E0,7.811655579E0,1.390620352E1
9.490164875E0,6.720275116E0,-7.381749573E0,7.957003326E0,1.276582259E1
9.500207875E0,6.818171539E0,-6.130501556E0,7.033423920E0,1.155593201E1
9.510249875E0,7.345524902E0,-5.580545197E0,5.780229950E0,1.088624265E1
9.520292875E0,6.957831116E0,-7.047195282E0,4.144132233E0,1.073537177E1
9.530334875E0,6.013894043E0,-9.616153107E0,1.846709747E0,1.149119920E1
9.540377875E0,5.461842041E0,-1.183768341E1,5.025050354E-1,1.304664625E1
9.550419875E0,4.832251282E0,-1.358859238E1,6.432124329E-1,1.443655837E1
9.560462875E0,4.525239716E0,-1.439795929E1,4.297563171E-1,1.509846736E1
9.570504875E0,4.526137848E0,-1.469194794E1,2.682421875E-1,1.537566948E1
9.580547875E0,3.974834290E0,-1.511930923E1,-4.086502075E-2,1.563312155E1
9.590589875E0,2.791095886E0,-1.573946960E1,-1.789528656E0,1.608488522E1
9.600632875E0,1.300944672E0,-1.679791855E1,-1.304237823E0,1.689862601E1
9.610674875E0,2.086660767E-1,-1.855780884E1,-9.180409241E-1,1.858167402E1
9.620717875E0,-1.588197327E-1,-2.082499420E1,-1.308279419E0,2.086665288E1
9.630759875E0,5.141807556E-1,-2.352882156E1,-6.459068298E-1,2.354330099E1
9.640802875E0,2.290836182E0,-2.678769470E1,-1.766326904E-1,2.688605060E1
9.650844875E0,5.076243896E0,-3.014685928E1,1.927990723E-1,3.057185876E1
9.660887875E0,7.539671173E0,-3.314482498E1,4.843927002E-1,3.399500994E1
9.670929875E0,8.471932526E0,-3.547517899E1,1.340462494E0,3.649738079E1
9.680972875E0,7.684420166E0,-3.645549042E1,2.273621979E0,3.732589519E1
9.691014875E0,5.946983185E0,-3.579356689E1,2.891836395E0,3.639929612E1
9.701057875E0,4.906646576E0,-3.370930115E1,2.954705658E0,3.419243264E1
9.711099875E0,4.242627411E0,-3.070714417E1,3.250789948E0,3.116883420E1
9.721142875E0,3.575614471E0,-2.777728683E1,3.363206177E0,2.820769112E1
9.731184875E0,3.220103760E0,-2.489607834E1,3.553759918E0,2.535375701E1
9.741227875E0,3.552861786E0,-2.264820282E1,4.865332489E0,2.343577133E1
9.751269875E0,4.133953400E0,-2.074970078E1,6.355334015E0,2.209139931E1
9.761311875E0,4.410129089E0,-1.734847366E1,6.644382935E0,1.909362725E1
9.771354875E0,4.214785309E0,-1.219049973E1,7.665559387E0,1.500444932E1
9.781396875E0,2.142045593E0,-8.633296967E0,7.630532227E0,1.171952208E1
9.791439875E0,1.200802917E0,-5.973029022E0,4.086053009E0,7.335859359E0
9.801481875E0,9.413923645E-1,-3.999682617E0,1.502874756E0,4.375192928E0
9.811524875E0,6.195616150E-1,-1.902843018E0,2.339634705E0,3.078726798E0
9.821566875E0,3.157833252E0,-7.209008789E-1,2.876119080E0,4.331705194E0
9.831609875E0,1.537093597E1,-3.522025909E0,-2.112512009E1,2.636173435E1
9.841651875E0,1.157497971E1,-1.270557861E0,-1.212523544E1,1.681118101E1
9.851694875E0,5.761668549E0,3.507206726E-1,-4.707261200E0,7.448364751E0
9.861736875E0,5.581593018E0,2.975512390E0,-6.032156067E0,8.740409682E0
9.871779875E0,5.623805237E0,4.808301086E0,-5.559439087E0,9.254961245E0
9.881821875E0,2.557880859E0,3.190166016E0,-2.867437134E0,4.994207586E0
9.891864875E0,1.817520447E0,2.274969177E0,-1.770069122E0,3.407639950E0
9.901906875E0,2.167792053E0,1.902543640E0,-1.736688538E0,3.366761317E0
9.911949875E0,2.286944275E0,1.541195068E0,-1.862427063E0,3.327766657E0
9.921991875E0,2.674338684E0,1.563049622E0,-3.345542908E0,4.559371543E0
9.932034875E0,2.092348938E0,1.364263000E0,-2.363734589E0,3.438950249E0
9.942076875E0,1.424737244E0,1.159039764E0,-1.398092651E-1,1.841954402E0
9.952119875E0,1.224154358E0,1.037791901E0,1.027313690E0,1.905502385E0
9.962161875E0,1.159488831E0,5.475613403E-1,8.915460205E-1,1.561759289E0
9.972204875E0,6.926097107E-1,1.513352966E-1,1.311273193E-1,7.209750046E-1
9.982246875E0,1.216969299E-1,-0.000000000E0,-7.858657837E-1,7.952327790E-1
9.992288875E0,-2.589614868E-1,-1.134640503E-1,-1.423090668E0,1.450903922E0
1.000233188E1,-2.805166626E-1,-2.191442871E-1,-1.313967590E0,1.361331938E0
1.001237388E1,-1.796264648E-2,-2.844085693E-1,-8.572673035E-1,9.033925617E-1
1.002241687E1,1.333726501E-1,-3.957769775E-1,-5.141807556E-1,6.624269991E-1
1.003245887E1,2.005828857E-1,-5.996530151E-1,-2.760260010E-1,6.899330300E-1
1.004250187E1,2.658471680E-1,-8.467890930E-1,-8.622070312E-2,8.917177213E-1
1.005254387E1,1.838177490E-1,-1.051114197E0,2.221380615E-1,1.089942814E0
1.006258687E1,9.969268799E-2,-1.188827820E0,6.388714600E-1,1.353294853E0
1.007262888E1,1.990859985E-2,-1.195563812E0,9.105564880E-1,1.502957850E0
1.008267188E1,-1.288819885E-1,-1.010249176E0,1.077010345E0,1.482283795E0
1.009271387E1,-2.532733154E-1,-7.367678833E-1,1.087189178E0,1.337518073E0
1.010275687E1,-2.778222656E-1,-5.498066711E-1,1.014739838E0,1.187084464E0
1.011279887E1,-1.748364258E-1,-4.719685364E-1,8.875044250E-1,1.020287302E0
1.012284187E1,-7.289840698E-2,-4.432283020E-1,7.324269104E-1,8.591942065E-1
1.013288387E1,-6.301895142E-2,-5.213658142E-1,6.306385803E-1,8.206696774E-1
1.014292688E1,-9.759704590E-2,-5.996530151E-1,5.733078003E-1,8.353387072E-1
1.015296888E1,-8.427474976E-2,-6.499484253E-1,6.056405640E-1,8.923764238E-1
1.016301188E1,-6.286926270E-2,-7.032376099E-1,7.032376099E-1,9.965133296E-1
1.017305387E1,-1.359173584E-1,-7.939489746E-1,8.400531006E-1,1.163837495E0
1.018309687E1,-2.748284912E-1,-9.514215088E-1,1.002016296E0,1.408818741E0
1.019313887E1,-3.074606323E-1,-1.094823303E0,1.181493073E0,1.639846330E0
1.020318150E1,-1.273851013E-1,-1.187330933E0,1.347048798E0,1.800145042E0
1.021322350E1,1.652563477E-1,-1.158590698E0,1.450034637E0,1.863395427E0
1.022326650E1,5.102888489E-1,-1.004411316E0,1.632505188E0,1.983509513E0
1.023330850E1,9.139993286E-1,-7.902067566E-1,1.755699005E0,2.131267343E0
1.024335050E1,1.400936737E0,-5.915698242E-1,1.570384369E0,2.186020509E0
1.025339350E1,1.886377258E0,-4.677772522E-1,1.081051941E0,2.223939751E0
1.026343550E1,2.170336761E0,-5.334906006E-1,7.274871826E-1,2.350364116E0
1.027347850E1,2.518213348E0,-7.021897888E-1,5.876779175E-1,2.679521282E0
1.028352050E1,3.203638000E0,-9.521699524E-1,-1.618135071E-1,3.346058527E0
1.029356350E1,4.846920776E0,-1.171014862E0,-2.562820587E0,5.606421870E0
1.030360550E1,7.103927307E0,-1.605261841E0,-5.614674225E0,9.196043465E0
1.031364850E1,1.003064117E1,-2.704875183E0,-7.683671722E0,1.292164553E1
1.032369050E1,8.143216095E0,-4.311334534E0,2.189646606E0,9.470698290E0
1.033373350E1,8.977431335E0,-9.314979401E0,4.442312164E0,1.367834975E1
1.034377550E1,1.430470322E1,-2.032563263E1,8.161178741E0,2.616028888E1
1.035381850E1,2.659624283E1,-4.565910141E1,1.660706543E1,5.538870188E1
1.036386050E1,3.269381287E1,-7.985983063E1,1.550655396E1,8.767514564E1
1.037390350E1,2.291270279E1,-8.920235275E1,9.550290070E0,9.259189881E1
1.038394550E1,6.472240906E0,-6.338718567E1,2.623444519E0,6.377074306E1
1.039398850E1,2.466870117E-1,-3.826028732E1,3.330574036E-1,3.826253217E1
1.040403050E1,-2.048041077E0,-2.715802460E1,2.593656464E0,2.735835935E1
1.041407350E1,-6.824907532E0,-2.360800690E1,-5.668412476E0,2.521999707E1
1.042411550E1,-1.870929382E1,-1.913036819E1,-2.554273361E1,3.699243035E1
1.043415850E1,-1.642085266E1,-1.417746780E1,-9.802515564E0,2.380618211E1
1.044420050E1,-6.669979706E0,-1.564292038E1,-1.865121460E-1,1.700659796E1
1.045424350E1,-4.192781067E0,-1.963526825E1,-7.376660156E-1,2.009147390E1
1.046428550E1,-3.952680359E0,-1.845287704E1,7.092251587E-1,1.888479159E1
1.047432850E1,-4.882846069E0,-1.347153580E1,3.357817383E0,1.471731633E1
1.048437050E1,-3.148702240E0,-1.038375687E1,5.247936859E0,1.205311469E1
1.049441350E1,-9.888436890E-1,-9.215436401E0,6.058800659E0,1.107299171E1
1.050445550E1,-2.517764282E-1,-9.556277618E0,5.609734497E0,1.108399542E1
1.051449850E1,5.602848816E-1,-1.113504456E1,2.935096436E0,1.152900375E1
1.052454050E1,2.608775024E0,-1.345761475E1,2.457888794E-1,1.371034332E1
1.053458350E1,4.167333984E0,-1.501228180E1,5.688171387E-3,1.557996501E1
1.054462550E1,4.703968048E0,-1.501063522E1,3.785627747E-1,1.573498634E1
1.055466750E1,5.081782379E0,-1.377106293E1,-1.152603149E-2,1.467878807E1
1.056471050E1,5.222789154E0,-1.168544998E1,-7.006929016E-1,1.281866757E1
1.057475250E1,5.411247253E0,-9.661508789E0,-4.215234375E-1,1.108169802E1
1.058479550E1,5.492677917E0,-8.073610840E0,6.734495544E-1,9.788066050E0
1.059483750E1,5.183720398E0,-6.735693054E0,1.535656586E0,8.637057325E0
1.060488050E1,4.460574188E0,-5.569617920E0,1.880838776E0,7.379357720E0
1.061492250E1,3.580105133E0,-4.639901276E0,1.860032043E0,6.148622270E0
1.062496550E1,2.798430634E0,-3.957320709E0,1.673669586E0,5.127647715E0
1.063500750E1,2.212548981E0,-3.557053070E0,1.822160797E0,4.568180109E0
1.064505050E1,1.957030334E0,-3.489992523E0,1.800605621E0,4.387732461E0
1.065509250E1,1.864672394E0,-3.711082764E0,1.522933044E0,4.423625603E0
1.066513550E1,1.995500336E0,-4.116589508E0,1.177152100E0,4.723771569E0
1.067517750E1,2.331401825E0,-4.848717041E0,7.015910339E-1,5.425654006E0
1.068522050E1,2.699636078E0,-5.809269562E0,2.977308655E-1,6.412822426E0
1.069526250E1,2.922372894E0,-6.995402985E0,1.002914429E-2,7.581294536E0
1.070530550E1,2.740351410E0,-8.030350800E0,-1.646575928E-2,8.485065170E0
1.071534750E1,2.281555481E0,-8.722661133E0,3.429368591E-1,9.022633670E0
1.072539050E1,1.929786987E0,-9.228758698E0,6.393205261E-1,9.450015643E0
1.073543250E1,1.793121185E0,-9.528884583E0,5.598358154E-1,9.712277854E0
1.074547550E1,1.803449707E0,-9.678124237E0,3.462300110E-1,9.850806810E0
1.075551750E1,1.923799438E0,-9.662257233E0,2.647993469E-1,9.855472480E0
1.076556050E1,1.973496094E0,-9.549691315E0,3.703298950E-1,9.758505791E0
1.077560250E1,1.993404694E0,-9.494755554E0,3.876937866E-1,9.709498019E0
1.078564450E1,1.936822357E0,-9.578431549E0,3.788621521E-1,9.779630275E0
1.079568750E1,1.783541107E0,-9.755662994E0,3.975732422E-1,9.925323361E0
1.080572950E1,1.618135071E0,-9.914183350E0,4.264631653E-1,1.005441512E1
1.081577250E1,1.419198761E0,-1.002091141E1,4.724176025E-1,1.013192820E1
1.082581450E1,1.186582489E0,-1.004710693E1,5.146298218E-1,1.013001380E1
1.083585750E1,1.011596375E0,-9.977950745E0,5.044509888E-1,1.004177769E1
1.084589950E1,9.762698364E-1,-9.897268524E0,5.122348022E-1,9.958484399E0
1.085594250E1,9.089099121E-1,-9.770631866E0,6.376739502E-1,9.833513734E0
1.086598450E1,8.207432556E-1,-9.678423615E0,7.652087402E-1,9.743256518E0
1.087602750E1,6.830296326E-1,-9.629475403E0,8.777746582E-1,9.693493403E0
1.088606950E1,6.080355835E-1,-9.650431824E0,1.011746063E0,9.722354229E0
1.089611250E1,4.604425049E-1,-9.627978516E0,1.116378479E0,9.703415816E0
1.090615450E1,2.201921082E-1,-9.570498047E0,1.213526459E0,9.649640610E0
1.091619750E1,-1.002914429E-2,-9.566456451E0,1.330732727E0,9.658573353E0
1.092623950E1,-2.336640930E-1,-9.551786957E0,1.432820435E0,9.661480599E0
1.093628250E1,-4.596940613E-1,-9.540859680E0,1.505868530E0,9.669899798E0
1.094632450E1,-6.542893982E-1,-9.617200928E0,1.605261841E0,9.772180610E0
1.095636750E1,-8.454418945E-1,-9.678124237E0,1.731898499E0,9.868147402E0
1.096640950E1,-9.782157898E-1,-9.696685638E0,1.847907257E0,9.919545339E0
1.097645250E1,-1.074765015E0,-9.663604431E0,1.923649750E0,9.911649651E0
1.098649450E1,-1.079405365E0,-9.620793457E0,1.891316986E0,9.864170651E0
1.099653750E1,-9.494755554E-1,-9.576485596E0,1.775906982E0,9.785929992E0
1.100657950E1,-8.009843445E-1,-9.490564270E0,1.509760437E0,9.643223665E0
1.101662250E1,-6.715036011E-1,-9.423204346E0,1.264869690E0,9.531400346E0
1.102666450E1,-4.227209473E-1,-9.382638702E0,1.102158051E0,9.456603745E0
1.103670650E1,-1.344204712E-1,-9.364975433E0,1.034349060E0,9.422882346E0
1.104674950E1,1.014889526E-1,-9.372310181E0,1.073717194E0,9.434159567E0
1.105679150E1,2.809657288E-1,-9.461225281E0,1.149759064E0,9.534970973E0
1.106683450E1,4.977149963E-1,-9.613159332E0,1.191971283E0,9.699554016E0
1.107687650E1,7.649093628E-1,-9.812544708E0,1.178948364E0,9.912670641E0
1.108691950E1,1.041085052E0,-9.911189575E0,1.097817078E0,1.002600315E1
1.109696150E1,1.269060974E0,-9.964778137E0,1.062789917E0,1.010132870E1
1.110700450E1,1.447789307E0,-9.947264557E0,1.087937622E0,1.011077516E1
1.111704650E1,1.517993317E0,-9.802515564E0,1.113983459E0,9.981711989E0
1.112708950E1,1.444346466E0,-9.517059174E0,1.097218323E0,9.688366223E0
1.113713150E1,1.339863739E0,-9.228159943E0,1.025966492E0,9.381192782E0
1.114717450E1,1.255289612E0,-8.990753632E0,8.991801453E-1,9.122386081E0
1.115721650E1,1.124311981E0,-8.737480316E0,7.864645386E-1,8.844555737E0
1.116725950E1,8.930429077E-1,-8.441096649E0,7.819738770E-1,8.524149308E0
1.117730150E1,6.173162842E-1,-8.325836334E0,8.530760193E-1,8.392161149E0
1.118734450E1,3.239263916E-1,-8.459358673E0,9.174421692E-1,8.515126400E0
1.119738650E1,7.484436035E-2,-8.881181488E0,9.375004578E-1,8.930839457E0
1.120742912E1,-1.007405090E-1,-9.351204071E0,9.026229858E-1,9.395205931E0
1.121747112E1,-1.535806274E-1,-9.629176025E0,9.310638428E-1,9.675303500E0
1.122751412E1,3.667373657E-2,-9.534572754E0,9.696835327E-1,9.583825370E0
1.123755612E1,4.655319214E-1,-9.088051300E0,1.035097504E0,9.158647457E0
1.124759913E1,1.438807983E0,-8.387508087E0,1.038690033E0,8.573175451E0
1.125764113E1,3.169508972E0,-7.468419342E0,3.077600098E-1,8.118977203E0
1.126768312E1,4.300407257E0,-6.392456818E0,3.197351074E-1,7.710981603E0
1.127772612E1,4.484524384E0,-5.427413635E0,1.359622650E0,7.170519609E0
1.128776812E1,3.992497559E0,-5.251978455E0,1.055305481E0,6.681091535E0
1.129781112E1,3.992497559E0,-5.428461456E0,-4.773573303E-1,6.755449693E0
1.130785313E1,5.777086487E0,-5.660478973E0,-2.467768250E0,8.456100201E0
1.131789613E1,7.136110382E0,-6.048621826E0,-2.888094177E0,9.790351646E0
1.132793813E1,7.947722626E0,-6.216572571E0,-5.782475281E-1,1.010675218E1
1.133798112E1,7.147187347E0,-6.628964996E0,2.677182770E0,1.010904404E1
1.134802312E1,6.635551300E0,-7.544012146E0,2.667303314E0,1.039505494E1
1.135806612E1,7.032076721E0,-8.098758545E0,4.634362793E-1,1.073567726E1
1.136810812E1,7.883955231E0,-7.993976440E0,-1.044976959E0,1.127618669E1
1.137815112E1,8.818461914E0,-7.387737122E0,-1.724713440E0,1.163265089E1
1.138819313E1,8.904383240E0,-6.643784180E0,-2.170486450E0,1.131984631E1
1.139823613E1,7.967481537E0,-5.943690033E0,-1.775008850E0,1.009746848E1
1.140827812E1,6.265071716E0,-5.379812622E0,2.275268555E-2,8.257967374E0
1.141832112E1,4.987628174E0,-4.512067108E0,1.732946320E0,6.945378848E0
1.142836312E1,5.272186432E0,-3.601211243E0,2.183359680E0,6.747720480E0
1.143840612E1,5.716462555E0,-3.409160614E0,3.242557068E0,7.403681285E0
1.144844812E1,4.794529724E0,-4.266577606E0,5.578000488E0,8.503251683E0
1.145849113E1,3.763174438E0,-5.494474182E0,7.549101563E0,1.006676029E1
1.146853313E1,4.351301422E0,-6.604416046E0,7.132817230E0,1.065031535E1
1.147857512E1,6.590195618E0,-7.726033630E0,4.692891083E0,1.118684498E1
1.148861812E1,7.511230316E0,-9.489366760E0,4.128265228E0,1.278707301E1
1.149866012E1,7.133565674E0,-1.226369751E1,3.055446167E0,1.451281458E1
1.150870312E1,6.025270386E0,-1.558948151E1,2.103874969E0,1.684523988E1
1.151874512E1,4.131259003E0,-1.842623245E1,1.325343933E0,1.893013153E1
1.152878813E1,3.204536133E0,-1.990650421E1,-2.387535095E-1,2.016420008E1
1.153883013E1,2.812501373E0,-2.036634796E1,-1.471589813E0,2.061222622E1
1.154887312E1,1.543141022E0,-2.063563797E1,-1.901944885E0,2.078047721E1
1.155891512E1,3.995191956E-1,-2.109158981E1,-1.825753326E0,2.117423320E1
1.156895812E1,2.757266235E-1,-2.209061234E1,-1.687440948E0,2.215668377E1
1.157900012E1,1.137035522E0,-2.370021515E1,-3.610491943E-1,2.373022133E1
1.158904312E1,2.934946747E0,-2.654744431E1,9.880952454E-1,2.672745861E1
1.159908513E1,5.253475342E0,-3.077540222E1,1.914668427E0,3.127923177E1
1.160912813E1,7.250322876E0,-3.528552338E1,2.790497131E0,3.613062712E1
1.161917012E1,7.929909668E0,-3.841057480E1,2.804867249E0,3.932077064E1
1.162921312E1,7.223977661E0,-3.913177505E1,2.758763123E0,3.988850017E1
1.163925512E1,6.155349884E0,-3.682117996E1,2.735112305E0,3.743218489E1
1.164929812E1,5.319937134E0,-3.270429108E1,2.681523743E0,3.324248720E1
1.165934012E1,4.399501190E0,-2.936713074E1,2.568508759E0,2.980572455E1
1.166938313E1,3.911066895E0,-2.710039444E1,2.999462585E0,2.754495596E1
1.167942513E1,4.712649994E0,-2.551324493E1,4.361031189E0,2.630880708E1
1.168946812E1,5.162464600E0,-2.316163513E1,4.915777588E0,2.423380391E1
1.169951012E1,5.141358490E0,-2.019555313E1,4.973258057E0,2.142492075E1
1.170955312E1,4.802762604E0,-1.589215210E1,6.284680939E0,1.775173911E1
1.171959512E1,3.990401917E0,-1.082908081E1,1.077803696E1,1.579108544E1
1.172963712E1,3.028651886E0,-6.991361389E0,1.190040298E1,1.413051512E1
1.173968013E1,1.547781372E0,-4.874164124E0,5.386249237E0,7.427299908E0
1.174972213E1,7.475454712E-1,-2.637365570E0,3.261118469E0,4.260213029E0
1.175976512E1,7.696994019E-1,-1.244362335E0,5.072950745E0,5.279744695E0
1.176980712E1,8.372688904E0,-4.184847565E0,-1.412552582E1,1.694536362E1
1.177985012E1,1.604049362E1,-1.949695587E0,-2.674667999E1,3.124873820E1
1.178989212E1,7.634573822E0,9.406439209E-1,-8.277037811E0,1.129959660E1
1.179993512E1,4.235442352E0,3.764521637E0,-5.714067535E0,8.047432067E0
1.180997713E1,2.462379456E0,3.586841125E0,-2.595901794E0,5.066305159E0
1.182002013E1,8.273295593E-1,2.438578949E0,-1.311422882E0,2.889804745E0
1.183006212E1,7.888595581E-1,2.168839874E0,-9.692344666E-1,2.503114311E0
1.184010512E1,8.232879639E-1,1.364263000E0,-2.453398132E-1,1.612206013E0
1.185014712E1,1.199455719E0,1.114133148E0,-1.871408386E0,2.486394185E0
1.186019012E1,1.656904449E0,1.426832886E0,-6.240073700E0,6.612087735E0
1.187023212E1,-1.480421448E-1,8.825646973E-1,-4.064198456E0,4.161555720E0
1.188027513E1,-4.900808716E-1,2.585124207E-1,-1.133592682E0,1.261760794E0
1.189031713E1,6.915618896E-2,2.157014465E-1,-6.107299805E-2,2.346052080E-1
1.190036013E1,2.065704346E-1,1.356179810E-1,-2.891986084E-1,3.803937648E-1
1.191040212E1,-4.730163574E-2,-1.990859985E-2,-4.909790039E-1,4.936539065E-1
1.192044412E1,-6.915618896E-2,-1.133143616E-1,1.140628052E-1,1.750229886E-1
1.193048712E1,-6.960525513E-2,-1.772314453E-1,-4.041595459E-3,1.904526483E-1
1.194052912E1,-5.164260864E-2,-2.682421875E-1,-8.981323242E-3,2.733157411E-1
1.195057213E1,1.651066589E-1,-4.379891968E-1,2.799179077E-2,4.689118101E-1
1.196061413E1,3.350033569E-1,-5.837860107E-1,1.098715210E-1,6.819861484E-1
1.197065712E1,5.578898621E-1,-6.625222778E-1,2.797682190E-1,9.101907070E-1
1.198069912E1,8.996292114E-1,-6.418652344E-1,4.330494690E-1,1.186952206E0
1.199074212E1,1.277443542E0,-5.827381897E-1,4.806504822E-1,1.484072332E0
1.200078412E1,1.590143280E0,-6.209088135E-1,4.813989258E-1,1.773648311E0
1.201082712E1,1.921105042E0,-7.050338745E-1,5.215155029E-1,2.111799177E0
1.202086913E1,2.160906372E0,-8.077203369E-1,5.617817688E-1,2.374347752E0
1.203091213E1,2.399510193E0,-9.395960999E-1,5.608836365E-1,2.637248652E0
1.204095412E1,2.902763672E0,-9.780661011E-1,3.231779480E-1,3.080112696E0
1.205099712E1,3.318149872E0,-1.005010071E0,7.694000244E-2,3.467864412E0
1.206103912E1,3.203488312E0,-8.982820129E-1,2.290237427E-1,3.334921260E0
1.207108212E1,2.526745605E0,-6.361770630E-1,3.830534363E-1,2.633608655E0
1.208112412E1,1.676813049E0,-4.394860840E-1,3.803590393E-1,1.774689556E0
1.209116713E1,1.036295013E0,-3.224295044E-1,3.914360046E-1,1.153728862E0
1.210120913E1,5.545967102E-1,-2.490820312E-1,3.912863159E-1,7.229967844E-1
1.211125112E1,1.675016785E-1,-1.727407837E-1,3.841012573E-1,4.532438268E-1
1.212129412E1,-1.344204712E-1,-6.945556641E-2,3.882925415E-1,4.167301724E-1
1.213133612E1,-3.472778320E-1,-4.340972900E-3,4.170327759E-1,5.427126982E-1
1.214137912E1,-5.068460083E-1,4.490661621E-2,4.339476013E-1,6.687450942E-1
1.215142112E1,-5.670208740E-1,8.083190918E-2,4.701722717E-1,7.410185114E-1
1.216146413E1,-6.289920044E-1,7.110214233E-2,5.292993164E-1,8.251328515E-1
1.217150613E1,-6.219566345E-1,-6.586303711E-3,5.278024292E-1,8.157504759E-1
1.218154913E1,-4.653822327E-1,-1.673519897E-1,5.310955811E-1,7.257064332E-1
1.219159112E1,-2.561174011E-1,-3.040177917E-1,5.275030518E-1,6.605167753E-1
1.220163412E1,-9.879455566E-2,-4.402345276E-1,4.974156189E-1,6.715572213E-1
1.221167700E1,9.310638428E-2,-6.265969849E-1,4.411326599E-1,7.719395079E-1
1.222172000E1,3.752696228E-1,-8.830137634E-1,2.267784119E-1,9.858849042E-1
1.223176200E1,1.169667664E0,-1.290765839E0,-1.007405090E0,2.012228593E0
1.224180500E1,2.248025208E0,-1.593885498E0,-2.033820648E0,3.424983904E0
1.225184700E1,3.630400543E0,-2.162103882E0,-5.089865570E0,6.615227345E0
1.226189000E1,6.475084991E0,-3.212020569E0,-1.134745285E1,1.345393950E1
1.227193200E1,6.051016846E0,-5.251080322E0,5.373825073E-1,8.029783894E0
1.228197500E1,2.009421387E0,-5.826334076E0,3.372187500E0,7.025353486E0
1.229201700E1,1.410666504E0,-7.654482422E0,-1.104403381E0,7.861347719E0
1.230205900E1,2.994672546E0,-1.358140732E1,2.335144043E-1,1.390960881E1
1.231210200E1,6.992259521E0,-2.657887894E1,2.409689026E0,2.758867702E1
1.232214400E1,1.634361328E1,-5.278293732E1,6.630461884E0,5.565173125E1
1.233218700E1,3.560376160E1,-7.930448547E1,2.014076706E1,8.923272804E1
1.234222900E1,3.439143265E1,-7.813661407E1,2.849519394E1,9.000042876E1
1.235227200E1,1.650557648E1,-5.280239685E1,1.169398224E1,5.654446382E1
1.236231400E1,8.856183472E0,-3.049982529E1,-1.547975967E1,3.533120841E1
1.237235700E1,1.471140747E0,-2.061093933E1,-3.659080902E1,4.202216534E1
1.238239900E1,-5.506000214E0,-1.446980988E1,-2.704456055E1,3.116247248E1
1.239244200E1,-4.291126556E0,-1.167407364E1,2.180216217E0,1.262739503E1
1.240248400E1,-3.050356750E0,-9.901609497E0,7.921227722E0,1.304194754E1
1.241252700E1,-3.732937317E0,-9.504635010E0,7.858358459E0,1.288513505E1
1.242256900E1,-2.532134399E0,-1.066247726E1,6.465953979E0,1.272433444E1
1.243261200E1,-2.094145203E-1,-1.522992920E1,1.034049683E1,1.840979284E1
1.244265400E1,-5.526507568E-1,-1.932990326E1,1.177586197E1,2.264114635E1
1.245269700E1,9.195378113E-1,-1.954096436E1,5.385051727E0,2.029023459E1
1.246273900E1,3.787723389E0,-1.769590118E1,-1.792821808E0,1.818532313E1
1.247278200E1,5.341192932E0,-1.588197327E1,-4.695286102E0,1.740146914E1
1.248282400E1,5.272485809E0,-1.460632599E1,-3.210224304E0,1.585715629E1
1.249286700E1,5.200186157E0,-1.392494293E1,-1.498084717E0,1.493955252E1
1.250290900E1,6.848558350E0,-1.338591385E1,8.523275757E-1,1.506027567E1
1.251295100E1,6.329587555E0,-1.221190521E1,1.115480347E0,1.379994942E1
1.252299400E1,5.017565918E0,-1.257894196E1,6.098318481E-1,1.355646131E1
1.253303600E1,5.447022858E0,-1.232521957E1,1.461860046E0,1.355426613E1
1.254307900E1,4.500840454E0,-1.109777206E1,1.919757843E0,1.212862646E1
1.255312100E1,2.424208832E0,-9.739047546E0,2.407294006E0,1.032089628E1
1.256316400E1,3.112028503E-1,-8.671317902E0,2.367476807E0,8.994084044E0
1.257320600E1,-6.978488159E-1,-7.880662079E0,1.488654327E0,8.050336606E0
1.258324900E1,-3.670367432E-1,-6.826554108E0,1.422042847E0,6.982747512E0
1.259329100E1,3.948788452E-1,-5.956563263E0,1.230441284E0,6.095126000E0
1.260333400E1,1.173260193E0,-5.212011566E0,7.991880798E-1,5.401879824E0
1.261337600E1,1.782642975E0,-4.570445709E0,4.186793518E-1,4.923624920E0
1.262341900E1,2.119592285E0,-4.085005188E0,1.348695374E-1,4.604142551E0
1.263346100E1,2.249671783E0,-3.739523621E0,-1.131646729E-1,4.365531615E0
1.264350400E1,2.334844666E0,-3.615731049E0,-2.375559998E-1,4.310619849E0
1.265354600E1,2.430944824E0,-3.683989105E0,-1.489402771E-1,4.416271241E0
1.266358900E1,2.446063385E0,-4.009711761E0,1.588197327E-1,4.699599792E0
1.267363100E1,2.370620270E0,-4.457430725E0,5.900729370E-1,5.082982904E0
1.268367400E1,2.183509369E0,-4.995112610E0,9.842033386E-1,5.539631699E0
1.269371600E1,2.167342987E0,-5.656886444E0,1.335373077E0,6.203302437E0
1.270375800E1,2.551893311E0,-6.535110168E0,1.439855804E0,7.161913789E0
1.271380100E1,3.503015442E0,-7.840844879E0,8.517288208E-1,8.629913533E0
1.272384300E1,5.046904907E0,-9.549092560E0,-1.727407837E-1,1.080214133E1
1.273388600E1,6.171815643E0,-1.126512405E1,-9.538165283E-1,1.288037632E1
1.274392800E1,6.146218872E0,-1.259331207E1,-7.768844604E-1,1.403463804E1
1.275397100E1,4.973258057E0,-1.280961227E1,5.343887329E-2,1.374126333E1
1.276401300E1,3.037483521E0,-1.148142426E1,8.348139954E-1,1.190572650E1
1.277405600E1,1.541494446E0,-9.607770538E0,1.140628052E0,9.797269630E0
1.278409800E1,8.969348145E-1,-8.364156647E0,8.593629456E-1,8.455892215E0
1.279414100E1,6.927593994E-1,-7.876321106E0,1.116677856E-1,7.907516642E0
1.280418300E1,8.123606873E-1,-7.886350250E0,-3.829037476E-1,7.937321049E0
1.281422600E1,1.149459686E0,-8.171806641E0,-2.092648315E-1,8.254906003E0
1.282426800E1,1.319506073E0,-8.544830933E0,3.528163147E-1,8.653306379E0
1.283431100E1,1.141675873E0,-9.023834839E0,9.300160217E-1,9.143191390E0
1.284435300E1,8.110134888E-1,-9.460626526E0,1.287173309E0,9.582171584E0
1.285439600E1,4.161346436E-1,-9.823621674E0,1.353485413E0,9.925151565E0
1.286443800E1,1.598675537E-1,-1.013272888E1,1.219064941E0,1.020705009E1
1.287448100E1,4.610412598E-2,-1.031549881E1,1.020128632E0,1.036592030E1
1.288452300E1,-1.392105103E-2,-1.037537430E1,9.672885132E-1,1.042037584E1
1.289456500E1,1.197509766E-2,-1.033959869E1,9.889933777E-1,1.038679703E1
1.290460800E1,-5.089416504E-3,-1.022074585E1,1.035097504E0,1.027302772E1
1.291465000E1,6.197113037E-2,-1.008497818E1,1.176403656E0,1.015354868E1
1.292469300E1,1.526824951E-2,-9.831854553E0,1.300495605E0,9.917504015E0
1.293473500E1,-8.412506104E-2,-9.618398438E0,1.390608215E0,9.718768273E0
1.294477800E1,-1.803749084E-1,-9.504635010E0,1.415606232E0,9.611168648E0
1.295482000E1,-2.737806702E-1,-9.384884033E0,1.364113312E0,9.487455365E0
1.296486300E1,-3.279679871E-1,-9.260642395E0,1.260229340E0,9.351750561E0
1.297490500E1,-3.610491943E-1,-9.137598267E0,1.187929688E0,9.221563617E0
1.298494800E1,-3.074606323E-1,-8.971443787E0,1.150806885E0,9.050176360E0
1.299499000E1,-1.886077881E-1,-8.734336853E0,1.102307739E0,8.805639983E0
1.300503300E1,-1.007405090E-1,-8.449928284E0,9.693841553E-1,8.505947466E0
1.301507500E1,-6.152206421E-2,-8.142168274E0,8.659492493E-1,8.188318342E0
1.302511800E1,3.427871704E-2,-7.888146515E0,8.187973022E-1,7.930602719E0
1.303516000E1,2.854563904E-1,-7.781717834E0,7.710466003E-1,7.825032311E0
1.304520300E1,8.184979248E-1,-7.809709625E0,5.324427795E-1,7.870514506E0
1.305524500E1,1.828597412E0,-7.942483521E0,8.158035278E-2,8.150672875E0
1.306528700E1,2.048490143E0,-8.079598389E0,6.547384644E-1,8.360915287E0
1.307533000E1,1.629361725E0,-8.381520538E0,1.639540558E0,8.694411964E0
1.308537200E1,1.437311096E0,-8.901988220E0,1.896855469E0,9.214625230E0
1.309541500E1,1.667532349E0,-9.313332825E0,1.438209229E0,9.570124253E0
1.310545700E1,2.338437195E0,-9.386081543E0,5.017565918E-1,9.685998912E0
1.311550000E1,3.318748627E0,-9.048383789E0,-7.644602966E-1,9.668078464E0
1.312554200E1,3.539988556E0,-8.711135101E0,-1.127305756E0,9.470280460E0
1.313558500E1,2.942131805E0,-8.507109375E0,-9.409432983E-1,9.050548258E0
1.314562700E1,2.519261169E0,-8.588540039E0,-1.030157776E0,9.009490656E0
1.315567000E1,2.690505066E0,-8.865763550E0,-6.691085815E-1,9.289148891E0
1.316571200E1,3.353027344E0,-8.960666199E0,2.154020691E-1,9.569886579E0
1.317575500E1,4.107907562E0,-8.902586975E0,9.217831421E-1,9.847875078E0
1.318579700E1,5.291196899E0,-8.790619812E0,-5.322930908E-1,1.027400103E1
1.319584000E1,5.570516052E0,-8.632398834E0,-1.133742371E0,1.033606939E1
1.320588192E1,3.932771759E0,-8.462502136E0,4.673281860E-1,9.343395087E0
1.321592492E1,2.582579498E0,-8.237220612E0,9.689350891E-1,8.686792013E0
1.322596692E1,2.816692657E0,-8.035290527E0,4.074526978E-1,8.524416055E0
1.323600892E1,3.579057312E0,-7.784412231E0,3.838018799E-1,8.576364551E0
1.324605192E1,3.686533813E0,-7.725285187E0,2.570155334E-1,8.563680270E0
1.325609392E1,3.287613373E0,-7.898175659E0,-1.215771790E0,8.641046318E0
1.326613692E1,3.500620422E0,-8.028404846E0,-1.355880432E0,8.862733182E0
1.327617892E1,4.333039398E0,-8.058342590E0,-3.716770935E-1,9.156978737E0
1.328622192E1,5.166506195E0,-7.857759705E0,-1.764830017E-1,9.405759942E0
1.329626392E1,5.925727386E0,-7.366631012E0,-1.495390320E-1,9.455361413E0
1.330630692E1,7.018005981E0,-6.944508820E0,-9.445358276E-2,9.873577476E0
1.331634892E1,6.906188507E0,-6.696773987E0,8.773255920E-1,9.659809611E0
1.332639192E1,6.242319031E0,-6.282285919E0,9.104067993E-1,8.902949163E0
1.333643392E1,6.051166534E0,-5.756279755E0,8.620573425E-1,8.396101232E0
1.334647692E1,5.833519135E0,-5.480553131E0,1.566193085E0,8.155940712E0
1.335651892E1,5.875731354E0,-5.419031067E0,1.313219147E0,8.100287722E0
1.336656192E1,5.588179321E0,-5.592819672E0,1.600621490E0,8.066558694E0
1.337660392E1,4.708309021E0,-5.621410217E0,2.115101624E0,7.631649988E0
1.338664692E1,4.437671814E0,-5.415588226E0,1.424886932E0,7.145056314E0
1.339668892E1,5.450615387E0,-5.428012390E0,1.324745178E0,7.805605447E0
1.340673092E1,6.936874695E0,-5.698649597E0,1.508562927E0,9.103329054E0
1.341677392E1,7.849227448E0,-6.084846497E0,2.506238251E0,1.024289796E1
1.342681592E1,7.994275818E0,-6.182443542E0,2.483934631E0,1.040677593E1
1.343685892E1,7.641010437E0,-6.100414124E0,4.214785309E0,1.064727703E1
1.344690092E1,6.876250763E0,-6.311624908E0,6.539301453E0,1.139657392E1
1.345694392E1,7.252418518E0,-6.487359467E0,4.207151184E0,1.060110977E1
1.346698592E1,8.638236694E0,-7.622898102E0,3.660038910E0,1.208815923E1
1.347702892E1,9.537416840E0,-1.022493713E1,2.286794586E0,1.416831284E1
1.348707092E1,9.749974823E0,-1.286409897E1,1.175804901E0,1.618423827E1
1.349711392E1,9.220076752E0,-1.512739243E1,9.279203796E-1,1.774003532E1
1.350715592E1,8.236023102E0,-1.644225815E1,8.460406494E-1,1.840912041E1
1.351719892E1,6.953041077E0,-1.638522675E1,9.907896423E-1,1.782700479E1
1.352724092E1,5.954617310E0,-1.546748520E1,1.157692566E0,1.661447615E1
1.353728392E1,5.347030792E0,-1.459494965E1,9.886940002E-1,1.557500592E1
1.354732592E1,5.107079773E0,-1.436532715E1,9.687854004E-1,1.527689213E1
1.355736892E1,5.095553741E0,-1.498848129E1,3.459306335E-1,1.583473736E1
1.356741092E1,4.993915100E0,-1.644315628E1,-3.781137085E-1,1.718893675E1
1.357745392E1,5.098397827E0,-1.847817444E1,-5.369334412E-1,1.917615416E1
1.358749592E1,5.832022247E0,-2.079625397E1,-4.712200928E-1,2.160367355E1
1.359753792E1,6.571484528E0,-2.317286179E1,-7.508386230E-1,2.409833378E1
1.360758092E1,6.720724182E0,-2.502660690E1,-3.754193115E-1,2.591602065E1
1.361762292E1,6.275400238E0,-2.610421600E1,-2.656974792E-1,2.684923344E1
1.362766592E1,5.847589874E0,-2.661166077E1,-2.776725769E-1,2.724797053E1
1.363770792E1,5.201533356E0,-2.685580307E1,2.835104370E-1,2.735636098E1
1.364775092E1,4.453838196E0,-2.682661377E1,1.408570862E0,2.723027640E1
1.365779292E1,3.808829498E0,-2.716955063E1,2.551743622E0,2.755363967E1
1.366783592E1,3.528312836E0,-2.769376053E1,3.733236694E0,2.816612185E1
1.367787792E1,3.794160004E0,-2.795526672E1,3.830384674E0,2.847041332E1
1.368792092E1,4.153113556E0,-2.813294724E1,3.589236145E0,2.866345563E1
1.369796292E1,4.086202698E0,-2.814342545E1,3.822750549E0,2.869430031E1
1.370800592E1,4.152514801E0,-2.656585602E1,4.415966949E0,2.724864858E1
1.371804792E1,4.546345825E0,-2.349259689E1,5.302722931E0,2.450898284E1
1.372809092E1,4.783901825E0,-1.981489471E1,5.851332092E0,2.120740098E1
1.373813292E1,4.699028320E0,-1.509535904E1,5.470973053E0,1.672968254E1
1.374817592E1,3.662284241E0,-1.126856689E1,3.858825531E0,1.246127843E1
1.375821792E1,2.863545227E0,-7.704628143E0,3.804937592E0,9.057523733E0
1.376826092E1,1.678010559E0,-2.599494324E0,8.766819305E0,9.296784977E0
1.377830292E1,1.195878159E1,-7.141349487E0,-1.155596924E1,1.809839094E1
1.378834492E1,2.842588806E1,-9.883497162E0,-4.130989563E1,5.110990222E1
1.379838792E1,1.293984146E1,-3.469185791E0,-1.264330811E1,1.842085739E1
1.380842992E1,8.151748352E0,4.797523499E-1,-7.574698334E0,1.113809761E1
1.381847292E1,3.226690063E0,9.729766846E-3,-9.120533752E-1,3.353127614E0
1.382851492E1,4.905299377E-1,4.596940613E-1,2.983296204E-1,7.354854262E-1
1.383855792E1,1.708247681E0,1.079105988E0,4.311035156E-1,2.066017936E0
1.384859992E1,2.625839539E0,1.371597748E0,7.451504517E-1,3.054760688E0
1.385864292E1,2.676733704E0,1.651365967E0,6.640191650E-1,3.214472636E0
1.386868492E1,2.415077820E0,1.814826050E0,2.844085693E-2,3.021093072E0
1.387872792E1,1.605261841E0,1.901196442E0,-4.522096252E-1,2.529013055E0
1.388876992E1,4.760101318E-1,2.023192749E0,1.059796143E-1,2.081135801E0
1.389881292E1,-2.695893860E-1,1.749412079E0,1.450783081E0,2.288644273E0
1.390885492E1,-9.430389404E-2,1.024020538E0,1.898801422E0,2.159388369E0
1.391889792E1,-6.721023560E-2,5.210664368E-1,1.472787323E0,1.563691129E0
1.392893992E1,-1.520837402E-1,3.915856934E-1,1.138981476E0,1.213980075E0
1.393898192E1,-1.110690308E-1,3.323089600E-1,9.391470337E-1,1.002378534E0
1.394902492E1,-6.107299805E-2,2.442919922E-1,7.095245361E-1,7.528834942E-1
1.395906692E1,-8.367599487E-2,2.200424194E-1,5.532495117E-1,6.012531586E-1
1.396910992E1,-1.728904724E-1,2.142045593E-1,5.421725464E-1,6.080508028E-1
1.397915192E1,-3.128494263E-1,2.194436646E-1,6.206094360E-1,7.288253272E-1
1.398919492E1,-4.601431274E-1,2.345622253E-1,7.453001404E-1,9.067653691E-1
1.399923692E1,-6.057902527E-1,2.383044434E-1,1.004860382E0,1.197294962E0
1.400927992E1,-7.334747314E-1,2.342628479E-1,1.274300079E0,1.488860288E0
1.401932192E1,-8.228388977E-1,2.501298523E-1,1.301842804E0,1.560263914E0
1.402936492E1,-8.351133728E-1,3.020718384E-1,1.191821594E0,1.486304294E0
1.403940692E1,-6.563850403E-1,4.076023865E-1,9.488768005E-1,1.223661803E0
1.404944992E1,-4.587959290E-1,4.638853455E-1,7.682025146E-1,1.007878178E0
1.405949192E1,-2.983296204E-1,5.131329346E-1,6.566844177E-1,8.851781716E-1
1.406953492E1,-2.429447937E-1,4.810995483E-1,6.370751953E-1,8.344721401E-1
1.407957692E1,-2.264790344E-1,4.831951904E-1,6.646179199E-1,8.523422579E-1
1.408961992E1,-3.050656128E-1,4.626878357E-1,7.929011536E-1,9.673868413E-1
1.409966192E1,-5.430706787E-1,3.710783386E-1,8.726852417E-1,1.092796608E0
1.410970392E1,-7.737409973E-1,1.965412903E-1,8.475375366E-1,1.164312452E0
1.411974692E1,-9.319619751E-1,-1.975891113E-2,7.752378845E-1,1.212409714E0
1.412978892E1,-9.261241150E-1,-2.287243652E-1,7.198530579E-1,1.195077042E0
1.413983192E1,-8.922944641E-1,-3.474275208E-1,6.417155457E-1,1.152689956E0
1.414987392E1,-8.966354370E-1,-3.712280273E-1,5.426216125E-1,1.111846918E0
1.415991692E1,-8.482859802E-1,-3.591032410E-1,4.315525818E-1,1.017242288E0
1.416995892E1,-7.577243042E-1,-2.746788025E-1,2.776725769E-1,8.524650290E-1
1.418000192E1,-6.710545349E-1,-1.960922241E-1,1.416055298E-1,7.133151304E-1
1.419004392E1,-5.644761658E-1,-1.218466187E-1,3.113525391E-2,5.783159554E-1
1.420008692E1,-4.718188477E-1,-1.278341675E-1,-3.966751099E-2,4.904366532E-1
1.421012837E1,-3.409909058E-1,-1.868115234E-1,-9.580078125E-2,4.004386754E-1
1.422017137E1,-2.317181396E-1,-3.055146790E-1,-1.483415222E-1,4.111419737E-1
1.423021337E1,-1.815724182E-1,-3.876937866E-1,-1.363664246E-1,4.493003639E-1
1.424025637E1,-1.182540894E-1,-3.719764709E-1,-1.067280579E-1,4.046497287E-1
1.425029838E1,-7.259902954E-2,-3.818559265E-1,-8.771759033E-2,3.984707560E-1
1.426034038E1,-3.802093506E-2,-3.956272888E-1,-3.308120728E-2,3.988244093E-1
1.427038337E1,1.437011719E-2,-4.394860840E-1,2.574645996E-2,4.404740611E-1
1.428042537E1,1.069825287E0,-6.120771790E-1,-2.568209381E0,2.848660043E0
1.429046837E1,1.433179688E1,-3.445984039E0,-3.434622665E1,3.737564037E1
1.430051037E1,6.773564301E0,-7.807314606E0,-1.032163605E1,1.460724154E1
1.431055337E1,-1.037193146E0,-5.829926605E0,1.183439026E1,1.323316314E1
1.432059538E1,5.279521179E-1,-3.668271790E0,3.030747528E0,4.787523571E0
1.433063838E1,2.988086243E0,-1.015458344E1,6.228996735E0,1.228188196E1
1.434068037E1,1.676453796E1,-3.477777924E1,1.664329010E1,4.204215464E1
1.435072337E1,3.054158844E1,-8.429929871E1,2.366623581E1,9.273214709E1
1.436076537E1,2.947819977E1,-1.062230081E2,2.516237457E1,1.130727059E2
1.437080837E1,1.483999008E1,-7.786163589E1,1.455827591E1,8.058910005E1
1.438085037E1,6.697672119E0,-4.656277222E1,4.055815887E0,4.721652476E1
1.439089338E1,4.308340759E0,-2.916864349E1,1.054646851E1,3.131452636E1
1.440093538E1,1.799857178E0,-2.476090942E1,-8.399034119E-1,2.484044201E1
1.441097838E1,-1.257385254E1,-1.958512253E1,-7.896588959E1,8.232430085E1
1.442102037E1,-7.910599823E0,-1.713726288E1,-4.344266052E1,4.736589619E1
1.443106237E1,-3.422782288E0,-2.076945969E1,1.218436249E1,2.432168957E1
1.444110537E1,-1.570384369E0,-2.399180878E1,8.069269867E0,2.536111416E1
1.445114737E1,-7.071295166E-1,-2.230391876E1,7.398514709E0,2.350963301E1
1.446119038E1,-1.995500336E0,-1.747256561E1,4.168232117E0,1.807337073E1
1.447123238E1,-2.851270752E0,-1.335792206E1,2.510728912E0,1.388767750E1
1.448127538E1,-2.344574432E0,-1.066307602E1,2.549647980E0,1.121155316E1
1.449131737E1,-1.694027252E0,-8.536148987E0,3.051853638E0,9.222221993E0
1.450136037E1,-1.295256500E0,-6.732100525E0,3.206332397E0,7.568317800E0
1.451140237E1,-1.153501282E0,-5.146148529E0,2.712958374E0,5.930729553E0
1.452144537E1,-1.025816803E0,-3.756438446E0,1.987417145E0,4.371836779E0
1.453148738E1,-5.480104065E-1,-2.653531952E0,1.309925995E0,3.009560323E0
1.454153038E1,2.281256104E-1,-2.002386017E0,8.225395203E-1,2.176732027E0
1.455157237E1,1.035696259E0,-1.709295502E0,4.866380310E-1,2.056981873E0
1.456161537E1,1.851948853E0,-1.763033752E0,5.757028198E-1,2.620960950E0
1.457165737E1,2.686912537E0,-2.277214508E0,1.181792450E0,3.715082541E0
1.458170037E1,3.165766754E0,-3.299139404E0,1.627864838E0,4.853487806E0
1.459174237E1,3.342399445E0,-3.980522461E0,4.382736053E0,6.798865231E0
1.460178438E1,3.378474426E0,-4.610412598E0,4.947212219E0,7.559424747E0
1.461182738E1,3.907474365E0,-4.661606140E0,4.098776550E0,7.334773134E0
1.462186937E1,3.776047668E0,-4.899311829E0,2.818488922E0,6.797475428E0
1.463191237E1,3.010988617E0,-5.337001648E0,1.853745117E0,6.402031709E0
1.464195437E1,2.405497742E0,-6.035000153E0,1.352437592E0,6.636017907E0
1.465199737E1,2.067350922E0,-7.141050110E0,1.257684631E0,7.539914266E0
1.466203937E1,1.938019867E0,-8.839867401E0,1.195114746E0,9.128388463E0
1.467208238E1,2.092049561E0,-1.100286942E1,6.957531738E-1,1.122158096E1
1.468212438E1,2.839595032E0,-1.347782272E1,-9.457333374E-1,1.380613693E1
1.469216738E1,3.659739532E0,-1.535851181E1,-2.836152191E0,1.604123866E1
1.470220937E1,2.976859589E0,-1.561028824E1,-3.463946686E0,1.626473850E1
1.471225237E1,1.488953705E0,-1.427371765E1,-3.588188324E0,1.479294069E1
1.472229437E1,4.231700134E-1,-1.204605011E1,-3.968547363E0,1.268998677E1
1.473233737E1,-3.875440979E-1,-9.976753235E0,-3.949836273E0,1.073717850E1
1.474237938E1,-9.957293701E-1,-8.749156036E0,-2.629282379E0,9.189795110E0
1.475242138E1,-8.683442688E-1,-8.122559052E0,-6.167175293E-1,8.192089344E0
1.476246438E1,-5.548960876E-1,-7.878117371E0,8.357121277E-1,7.941728888E0
1.477250637E1,-6.719526672E-1,-8.568631439E0,1.645827484E0,8.751097830E0
1.478254937E1,-1.055305481E0,-9.541608124E0,1.921703796E0,9.790245182E0
1.479259137E1,-8.669970703E-1,-9.829758911E0,2.870281219E0,1.027688467E1
1.480263437E1,-1.293310547E0,-1.038270905E1,4.070934448E0,1.122701236E1
1.481267638E1,-2.364632721E0,-1.124820923E1,4.237987061E0,1.225047889E1
1.482271938E1,-2.655178528E0,-1.202449493E1,4.187541962E0,1.300668901E1
1.483276138E1,-2.367925873E0,-1.168350403E1,4.089046783E0,1.260284265E1
1.484280437E1,-1.531614990E0,-1.062999481E1,4.217779083E0,1.153829687E1
1.485284637E1,-4.358935547E-1,-9.575138397E0,4.054319000E0,1.040724657E1
1.486288937E1,2.010319519E-1,-8.840615845E0,3.514691162E0,9.515774079E0
1.487293137E1,5.074447632E-1,-8.270601196E0,2.957400055E0,8.798099762E0
1.488297437E1,8.020321655E-1,-7.865543518E0,2.548749847E0,8.306994415E0
1.489301638E1,1.246607666E0,-7.688461761E0,2.331252136E0,8.130265153E0
1.490305938E1,1.734592896E0,-7.816445618E0,2.229314117E0,8.311165745E0
1.491310137E1,2.261946259E0,-8.251590729E0,2.066602478E0,8.802045003E0
1.492314337E1,2.928360443E0,-8.939111023E0,1.927990723E0,9.602090866E0
1.493318637E1,3.844156036E0,-9.628876648E0,1.500479736E0,1.047588853E1
1.494322837E1,5.117258606E0,-1.006791367E1,2.109114075E-1,1.129573835E1
1.495327137E1,5.722300415E0,-1.004995102E1,-5.218148804E-1,1.157663718E1
1.496331338E1,5.331313477E0,-9.744286652E0,-3.053649902E-1,1.111158285E1
1.497335638E1,4.805906067E0,-9.570348358E0,7.723937988E-2,1.070954092E1
1.498339837E1,4.437522125E0,-9.501192169E0,1.417552185E-1,1.048734236E1
1.499344137E1,4.031416626E0,-9.360185394E0,-6.586303711E-1,1.021269722E1
1.500348337E1,3.796405334E0,-9.107361145E0,-2.116149445E0,1.009132345E1
1.501352637E1,3.545077972E0,-8.812025299E0,-2.930156708E0,9.940079780E0
1.502356838E1,3.159330139E0,-8.373287659E0,-2.226919098E0,9.222390244E0
1.503361138E1,2.525099030E0,-8.188871155E0,-4.737648010E-1,8.582434910E0
1.504365338E1,1.840273132E0,-8.228538666E0,6.810836792E-1,8.459274718E0
1.505369637E1,1.284029846E0,-8.287366333E0,1.122964783E0,8.461100595E0
1.506373837E1,1.043031006E0,-8.391699371E0,1.132245483E0,8.531735571E0
1.507378037E1,8.466394043E-1,-8.425079956E0,1.265618134E0,8.561574610E0
1.508382337E1,6.258485413E-1,-8.416248322E0,1.834135895E0,8.636490994E0
1.509386538E1,3.242257690E-1,-8.474028168E0,2.150577850E0,8.748671946E0
1.510390838E1,-8.756790161E-2,-8.606352997E0,1.644929352E0,8.762577966E0
1.511395038E1,-8.547225952E-2,-8.688532104E0,2.643502808E-1,8.692972835E0
1.512399337E1,2.082170105E-1,-8.692424011E0,-1.220412140E0,8.780147795E0
1.513403537E1,2.820135498E-1,-8.707692261E0,-1.328337708E0,8.812940327E0
1.514407837E1,8.752299500E-1,-8.564739532E0,2.450404358E-1,8.612829706E0
1.515412037E1,1.687740326E0,-8.497080231E0,1.850751343E0,8.858561982E0
1.516416337E1,2.596350861E0,-8.532257080E0,1.661245422E0,9.071944942E0
1.517420538E1,3.370840302E0,-8.710386658E0,5.409750366E-1,9.355536011E0
1.518424838E1,3.213367767E0,-8.870553589E0,3.947291565E-1,9.442894921E0
1.519429037E1,2.776127014E0,-8.825946350E0,7.213499451E-1,9.280331671E0
1.520433337E1,2.916535034E0,-8.720565491E0,-3.001258850E-1,9.200245357E0
1.521437542E1,3.161425781E0,-8.494236145E0,-1.368154907E0,9.166161056E0
1.522441742E1,2.729274445E0,-8.221353607E0,-4.016148376E-1,8.671844591E0
1.523446042E1,2.839744720E0,-7.939789124E0,6.620732117E-1,8.458294293E0
1.524450242E1,3.968996429E0,-7.944579163E0,2.357597351E-1,8.883966084E0
1.525454542E1,4.983436890E0,-8.371491394E0,-5.667214966E-1,9.758979693E0
1.526458742E1,5.611830139E0,-8.939709778E0,-8.461903381E-1,1.058900782E1
1.527463042E1,5.028343506E0,-9.478289795E0,-3.849993896E-1,1.073640724E1
1.528467242E1,3.663930817E0,-9.863887939E0,3.378474426E-1,1.052781151E1
1.529471542E1,3.758534088E0,-9.672286377E0,7.565267944E-1,1.040442382E1
1.530475742E1,4.911137238E0,-8.961264954E0,1.215173035E0,1.029078151E1
1.531480042E1,5.965095520E0,-7.921976166E0,2.540666656E0,1.023694574E1
1.532484242E1,6.604715424E0,-6.780300293E0,3.058589630E0,9.947346803E0
1.533488542E1,6.016887817E0,-5.745801544E0,2.633922729E0,8.726667367E0
1.534492742E1,4.465813293E0,-4.882995758E0,3.691623230E0,7.577283023E0
1.535497042E1,3.797902222E0,-4.150718536E0,5.731581116E0,8.031410072E0
1.536501242E1,5.142256622E0,-3.476670227E0,4.844974823E0,7.874250445E0
1.537505442E1,6.152805176E0,-4.267475739E0,4.258793793E0,8.614272185E0
1.538509742E1,5.936804352E0,-7.075037384E0,3.449277191E0,9.858971196E0
1.539513942E1,5.651198273E0,-9.766889648E0,2.082918549E0,1.147461219E1
1.540518242E1,5.164859619E0,-1.133203491E1,4.539759521E0,1.325519546E1
1.541522442E1,5.929768982E0,-1.183079773E1,5.331762543E0,1.426736230E1
1.542526742E1,7.114106140E0,-1.224393860E1,4.589605865E0,1.488586647E1
1.543530942E1,6.743476868E0,-1.342198883E1,2.594853973E0,1.524327824E1
1.544535242E1,5.943989410E0,-1.487337067E1,1.043180695E0,1.605105576E1
1.545539442E1,5.833219757E0,-1.563768127E1,1.155447235E0,1.673016995E1
1.546543742E1,5.983357544E0,-1.547122742E1,1.182091827E0,1.662999658E1
1.547547942E1,5.437143402E0,-1.476589417E1,9.815089417E-1,1.576570705E1
1.548552242E1,5.173691254E0,-1.391356659E1,8.202941895E-1,1.486698688E1
1.549556442E1,5.470224609E0,-1.318218750E1,8.445437622E-1,1.429708637E1
1.550560742E1,5.570965118E0,-1.286963745E1,1.238374786E0,1.407823826E1
1.551564942E1,5.301525421E0,-1.283550842E1,1.528321838E0,1.397112078E1
1.552569142E1,4.781506805E0,-1.293430298E1,1.757794647E0,1.390139716E1
1.553573442E1,4.571343842E0,-1.308488983E1,1.619631958E0,1.395473877E1
1.554577642E1,4.812192993E0,-1.344998062E1,1.316063232E0,1.434542445E1
1.555581942E1,4.886438599E0,-1.429467407E1,1.081051941E0,1.514541720E1
1.556586142E1,4.612508240E0,-1.590831848E1,5.120851135E-1,1.657142300E1
1.557590442E1,3.622916107E0,-1.855152191E1,2.534230042E-1,1.890366921E1
1.558594642E1,2.195933533E0,-2.231843857E1,1.944456482E-1,2.242705137E1
1.559598942E1,1.002165985E0,-2.733241196E1,6.694079590E-1,2.735896904E1
1.560603142E1,1.053060150E0,-3.256912216E1,2.155068512E0,3.265732650E1
1.561607442E1,1.785786438E0,-3.734254578E1,3.105442200E0,3.751397779E1
1.562611642E1,2.445764008E0,-4.001628571E1,4.507576447E0,4.034356366E1
1.563615942E1,2.543211365E0,-3.825190475E1,4.802313538E0,3.863597231E1
1.564620142E1,2.443668365E0,-3.317131989E1,5.050647125E0,3.364248823E1
1.565624442E1,2.345472565E0,-2.902733734E1,5.993536377E0,2.973230622E1
1.566628642E1,2.352358246E0,-2.529125656E1,6.453679504E0,2.620746510E1
1.567632942E1,3.047812042E0,-2.075434113E1,6.991062012E0,2.211123655E1
1.568637142E1,3.697161713E0,-1.572480011E1,6.708000641E0,1.749101529E1
1.569641342E1,3.865411835E0,-1.079435303E1,7.337890778E0,1.361264511E1
1.570645642E1,1.954186249E0,-6.576573944E0,7.384294281E0,1.007958187E1
1.571649842E1,9.301657104E-1,-2.186952209E0,6.835086365E0,7.236461416E0
1.572654142E1,2.688409424E-1,-9.171427917E-1,7.323071594E0,7.385174604E0
1.573658342E1,8.341403961E0,-5.159021759E0,-5.017416229E0,1.101675956E1
1.574662642E1,1.595996109E1,-5.633385315E0,-1.494237717E1,2.257720141E1
1.575666842E1,1.147573608E1,-3.160078583E0,-5.415887604E0,1.307709654E1
1.576671142E1,8.064330139E0,-7.914042664E-1,-2.527194672E0,8.488018274E0
1.577675342E1,5.614674225E0,1.916913757E0,-2.099384308E0,6.293372663E0
1.578679642E1,4.781656494E0,3.876189423E0,-1.899100800E0,6.441713057E0
1.579683842E1,7.148833923E0,4.620890808E0,-4.409829712E0,9.586712492E0
1.580688142E1,9.200766907E0,4.302652588E0,-8.794212341E0,1.343521871E1
1.581692342E1,7.328610077E0,3.591631165E0,-7.485034790E0,1.107402754E1
1.582696542E1,4.856201477E0,2.769840088E0,-4.244573364E0,7.019338284E0
1.583700842E1,3.496279449E0,2.049388275E0,-1.986668701E0,4.513403906E0
1.584705042E1,2.974015503E0,1.605411530E0,-7.830216980E-1,3.469183963E0
1.585709342E1,2.855312347E0,1.073866882E0,-6.532415771E-1,3.119731277E0
1.586713542E1,2.231260071E0,5.619314575E-1,-8.442443848E-1,2.450925753E0
1.587717842E1,1.266665955E0,2.862048340E-1,-9.834548950E-1,1.628968808E0
1.588722042E1,5.837860107E-1,3.487747192E-2,-1.149160309E0,1.289415356E0
1.589726342E1,1.984872437E-1,-2.112107849E-1,-1.164428558E0,1.199958770E0
1.590730542E1,1.188528442E-1,-4.635859680E-1,-9.379495239E-1,1.052989676E0
1.591734842E1,2.444416809E-1,-6.991960144E-1,-5.508544922E-1,9.230750097E-1
1.592739042E1,3.758683777E-1,-8.011340332E-1,-1.669029236E-1,9.005272691E-1
1.593743342E1,4.388873291E-1,-8.867559814E-1,1.454974365E-1,1.000063879E0
1.594747542E1,4.074526978E-1,-9.577084351E-1,2.329156494E-1,1.066523721E0
1.595751742E1,2.525248718E-1,-9.696835327E-1,2.466870117E-1,1.031944498E0
1.596756042E1,4.520599365E-2,-9.457333374E-1,3.656895447E-1,1.014979788E0
1.597760242E1,-2.347119141E-1,-9.201365662E-1,4.915777588E-1,1.069294008E0
1.598764542E1,-4.155358887E-1,-7.795788574E-1,5.674699402E-1,1.049969239E0
1.599768742E1,-6.652166748E-1,-6.459068298E-1,5.926176453E-1,1.100411074E0
1.600773042E1,-8.002359009E-1,-5.399272156E-1,6.316864014E-1,1.153657924E0
1.601777242E1,-9.825567627E-1,-4.215234375E-1,6.830296326E-1,1.268711661E0
1.602781542E1,-1.113534393E0,-3.511697388E-1,7.068301392E-1,1.364876506E0
1.603785742E1,-1.199006653E0,-3.707789612E-1,7.923023987E-1,1.484195770E0
1.604790042E1,-1.143172760E0,-4.397854614E-1,8.674461365E-1,1.500905730E0
1.605794242E1,-1.075064392E0,-5.542973328E-1,9.506730652E-1,1.538436953E0
1.606798542E1,-1.026864624E0,-7.288343811E-1,1.000369720E0,1.608225758E0
1.607802742E1,-9.651928711E-1,-9.578581238E-1,1.113833771E0,1.757758554E0
1.608806942E1,-8.918453979E-1,-1.180744629E0,1.277593231E0,1.954940039E0
1.609811242E1,-7.716453552E-1,-1.392254791E0,1.437909851E0,2.145086175E0
1.610815442E1,-6.512956238E-1,-1.500180359E0,1.641187134E0,2.316942448E0
1.611819742E1,-5.438191223E-1,-1.582209778E0,1.826501770E0,2.476940802E0
1.612823942E1,-4.360432434E-1,-1.657952271E0,1.987267456E0,2.624532603E0
1.613828242E1,-3.796105957E-1,-1.655557251E0,1.980830841E0,2.609341840E0
1.614832442E1,-3.212319946E-1,-1.589394836E0,1.864672394E0,2.471106853E0
1.615836742E1,-2.165995789E-1,-1.466500397E0,1.622476044E0,2.197718659E0
1.616840942E1,-7.170089722E-2,-1.355431366E0,1.309327240E0,1.885914374E0
1.617845242E1,6.526428223E-2,-1.244661713E0,1.011895752E0,1.605420574E0
1.618849442E1,4.180805969E-1,-1.066831512E0,9.154962158E-1,1.466647259E0
1.619853742E1,1.670526123E0,-1.350641327E0,4.174818420E-1,2.188419660E0
1.620857954E1,8.223598938E0,-4.529580688E0,-9.399254150E0,1.328497871E1
1.621862154E1,5.799539795E0,-5.361849976E0,1.252894592E0,7.997114595E0
1.622866454E1,5.107379150E0,-9.068442078E0,3.393592987E0,1.094707435E1
1.623870654E1,7.415279846E0,-1.771970169E1,4.234095154E0,1.966981863E1
1.624874954E1,1.006372238E1,-3.367292679E1,9.879006500E0,3.650670180E1
1.625879154E1,1.595053070E1,-6.585944458E1,2.370635239E1,7.179050782E1
1.626883454E1,1.989587631E1,-9.543119980E1,2.137779465E1,9.979964876E1
1.627887654E1,1.068193680E1,-7.856412506E1,-8.009843445E-1,7.929102784E1
1.628891954E1,4.583768005E0,-4.630575668E1,-1.099553467E1,4.781355262E1
1.629896154E1,9.159452820E-1,-2.805271408E1,-7.274722137E0,2.899509105E1
1.630900454E1,-5.226082306E0,-2.082918549E1,-2.553120758E1,3.336179649E1
1.631904654E1,-1.223555603E1,-1.565459610E1,-3.042228653E1,3.633580504E1
1.632908954E1,-8.352031860E0,-1.282024017E1,-5.788762207E0,1.635924088E1
1.633913154E1,-2.527943115E0,-1.230261658E1,2.669249268E0,1.284016210E1
1.634917454E1,5.774990845E-1,-1.388542511E1,3.643872528E0,1.436719676E1
1.635921654E1,2.421215057E0,-1.676274170E1,3.063679047E0,1.721156358E1
1.636925954E1,8.969348145E-1,-1.711465988E1,3.872746582E0,1.757026582E1
1.637930154E1,-7.834707642E-1,-1.502440659E1,4.993166656E0,1.585176119E1
1.638934354E1,-1.409618683E0,-1.245589783E1,4.717290344E0,1.339362698E1
1.639938654E1,-1.753004608E0,-1.059631485E1,2.962489471E0,1.114142080E1
1.640942854E1,-2.013462982E0,-9.251361694E0,7.108717346E-1,9.494580823E0
1.641947154E1,-1.980681152E0,-8.125852203E0,-7.346722412E-1,8.395970174E0
1.642951354E1,-1.600621490E0,-7.253915405E0,-1.617536316E0,7.602479964E0
1.643955654E1,-1.441951447E0,-6.503675537E0,1.157093811E-1,6.662612710E0
1.644959854E1,-1.355131989E0,-4.011807404E0,4.972808990E0,6.531447818E0
1.645964154E1,-2.182461548E-1,-3.174748077E0,3.114124146E0,4.452462906E0
1.646968354E1,4.745132446E-2,-4.037703552E0,2.493514709E0,4.745831562E0
1.647972654E1,8.809181213E-1,-4.568499756E0,1.424587555E0,4.865866465E0
1.648976854E1,1.953138428E0,-5.019960938E0,7.420069885E-1,5.437401209E0
1.649981154E1,3.232527924E0,-5.509892120E0,-6.227050781E-2,6.388429038E0
1.650985354E1,4.231400757E0,-5.975424042E0,-7.846682739E-1,7.363840652E0
1.651989554E1,4.586163025E0,-6.207291870E0,-1.158141632E0,7.804143495E0
1.652993854E1,4.136797485E0,-6.081403656E0,-6.478527832E-1,7.383513872E0
1.653998054E1,3.411555634E0,-6.126459961E0,3.906875610E-2,7.012399722E0
1.655002354E1,2.572700043E0,-6.098168793E0,4.849914551E-1,6.636389444E0
1.656006554E1,1.972448273E0,-6.125412140E0,6.604266357E-1,6.468955821E0
1.657010854E1,1.682650909E0,-6.287525024E0,7.060816956E-1,6.546971542E0
1.658015054E1,1.608405304E0,-6.557114410E0,7.714956665E-1,6.795433951E0
1.659019354E1,1.704804840E0,-6.987469482E0,9.595046997E-1,7.256151775E0
1.660023554E1,1.710642700E0,-7.544012146E0,1.249751129E0,7.835834071E0
1.661027854E1,1.498533783E0,-8.196804657E0,1.703757019E0,8.505057205E0
1.662032054E1,1.271006927E0,-8.963061218E0,2.398312683E0,9.365032234E0
1.663036354E1,1.427880707E0,-9.941726074E0,3.259471893E0,1.055939949E1
1.664040554E1,1.444945221E0,-1.148052612E1,3.555406494E0,1.210500979E1
