"Time (s)","Acceleration x (m/s^2)","Acceleration y (m/s^2)","Acceleration z (m/s^2)","Absolute acceleration (m/s^2)"
5.625416670E-4,1.222133560E1,1.150806885E1,2.536924438E0,1.697741671E1
1.057054167E-2,1.177960419E1,1.055649765E1,2.621348877E0,1.603340848E1
2.057854167E-2,1.119312378E1,9.325008545E0,2.592908020E0,1.479746520E1
3.058654167E-2,1.047087570E1,8.227341156E0,2.711910553E0,1.358980645E1
4.059454167E-2,9.656269684E0,7.060218201E0,2.880759430E0,1.230402374E1
5.060154167E-2,8.692723389E0,5.816753998E0,2.710114288E0,1.080475758E1
6.060954167E-2,7.773035889E0,4.837340698E0,2.560874634E0,9.506736078E0
7.061754167E-2,6.870263214E0,3.964206390E0,2.564167786E0,8.336090533E0
8.062554167E-2,6.024671631E0,3.073259125E0,2.414628754E0,7.181366299E0
9.063354167E-2,5.245392151E0,2.199226685E0,2.111658783E0,6.067111310E0
1.006415417E-1,4.428241425E0,1.493893433E0,1.869612122E0,5.033536449E0
1.106485417E-1,3.644920349E0,8.882528687E-1,1.706301727E0,4.121395770E0
1.206565417E-1,3.007695465E0,3.155438232E-1,1.502725067E0,3.376978315E0
1.306645417E-1,2.478396149E0,-1.877096558E-1,1.276395721E0,2.794077383E0
1.406725417E-1,1.963466949E0,-5.553451538E-1,1.103804626E0,2.319912790E0
1.506805417E-1,1.493144989E0,-8.725355530E-1,9.948312378E-1,1.995116398E0
1.606885417E-1,1.166374512E0,-1.300495605E0,8.631051636E-1,1.948504258E0
1.706955417E-1,8.508306885E-1,-1.694176941E0,8.443940735E-1,2.075367370E0
1.807035417E-1,4.204756165E-1,-1.664538574E0,9.313632202E-1,1.953183519E0
1.907115417E-1,-4.266128540E-2,-1.696122894E0,8.972341919E-1,1.919292071E0
2.007195417E-1,-3.817062378E-1,-1.916165314E0,9.026229858E-1,2.152235446E0
2.107275417E-1,-6.551875305E-1,-2.092947693E0,8.909472656E-1,2.367168726E0
2.207345417E-1,-8.623567200E-1,-2.118694153E0,8.982820129E-1,2.457526114E0
2.307425417E-1,-1.065634003E0,-2.143542480E0,8.312214661E-1,2.534024333E0
2.407505417E-1,-1.212628326E0,-2.166145477E0,8.406518555E-1,2.620944339E0
2.507585417E-1,-1.265767822E0,-2.201921082E0,7.708969116E-1,2.654224308E0
2.607665417E-1,-1.269360352E0,-2.274520111E0,6.917115784E-1,2.695029192E0
2.707745417E-1,-1.209933929E0,-2.191442871E0,7.533833313E-1,2.614182169E0
2.807815417E-1,-9.825567627E-1,-2.007475433E0,7.809260559E-1,2.367534775E0
2.907895417E-1,-6.069877625E-1,-1.912572784E0,7.167095947E-1,2.130737300E0
3.007975417E-1,-2.344125366E-1,-1.729204102E0,6.716532898E-1,1.869816623E0
3.108055417E-1,1.933978271E-1,-1.380279694E0,6.045927429E-1,1.519245582E0
3.208135417E-1,6.876699829E-1,-1.045725403E0,5.733078003E-1,1.376631199E0
3.308215417E-1,1.269210663E0,-6.120771790E-1,5.548960876E-1,1.514412047E0
3.408321667E-1,2.130669250E0,-7.783813477E-3,8.669970703E-1,2.300325186E0
3.508401667E-1,3.356919250E0,7.372169495E-1,1.395697632E0,3.709496942E0
3.608481667E-1,4.957989807E0,1.704355774E0,1.776954803E0,5.535707715E0
3.708561667E-1,6.891069946E0,2.606230316E0,2.120789795E0,7.666617952E0
3.808641667E-1,8.974138184E0,3.449726257E0,2.603386230E0,9.960591712E0
3.908721667E-1,1.119911133E1,4.711302795E0,2.941832428E0,1.250083384E1
4.008791667E-1,1.335193451E1,6.507268066E0,3.114722900E0,1.517630362E1
4.108871667E-1,1.539593399E1,8.351732483E0,3.303929443E0,1.782420177E1
4.208951667E-1,1.737167542E1,9.834399261E0,3.597019958E0,2.028371436E1
4.309031667E-1,1.855930573E1,1.108909012E1,3.757785645E0,2.194394453E1
4.409111667E-1,1.905612259E1,1.283236496E1,3.763473816E0,2.328023053E1
4.509181667E-1,1.982447479E1,1.508997025E1,3.981121216E0,2.523026613E1
4.609261667E-1,2.054357941E1,1.658042084E1,3.992198181E0,2.669993738E1
4.709341667E-1,2.099908218E1,1.775068726E1,3.824397125E0,2.776102239E1
4.809421667E-1,2.114622620E1,1.885449188E1,4.256997528E0,2.864920199E1
4.909501667E-1,2.067126389E1,1.940639420E1,4.692442017E0,2.873896829E1
5.009581667E-1,1.971565109E1,1.958676910E1,4.880151672E0,2.821638358E1
5.109651667E-1,1.857053238E1,1.922452240E1,5.128784637E0,2.721674790E1
5.209731667E-1,1.731614090E1,1.833686829E1,5.285658417E0,2.576873414E1
5.309811667E-1,1.580727859E1,1.745714767E1,5.142705688E0,2.410538287E1
5.409891667E-1,1.422821228E1,1.664733170E1,4.928950195E0,2.244705387E1
5.509971667E-1,1.318862411E1,1.576746140E1,4.800068207E0,2.110908098E1
5.610051667E-1,1.280197815E1,1.499416946E1,4.581073608E0,2.024109676E1
5.710121667E-1,1.274629395E1,1.424856995E1,4.262236633E0,1.958714926E1
5.810201667E-1,1.266007324E1,1.350656296E1,3.900139618E0,1.891866239E1
5.910281667E-1,1.254346573E1,1.289358765E1,3.581751709E0,1.834153974E1
6.010361667E-1,1.241937378E1,1.235740265E1,3.323388977E0,1.783230663E1
6.110441667E-1,1.231953140E1,1.165371597E1,3.057990875E0,1.723169342E1
6.210521667E-1,1.226130249E1,1.090317673E1,2.912643127E0,1.666440192E1
6.310591667E-1,1.218945190E1,1.026445496E1,2.959645386E0,1.620806201E1
6.410671667E-1,1.203766754E1,9.449250183E0,3.091670837E0,1.561256537E1
6.510751667E-1,1.166928360E1,8.397537231E0,3.136128387E0,1.471482628E1
6.610831667E-1,1.100810852E1,7.485483856E0,3.251688080E0,1.370344472E1
6.710911667E-1,1.023781036E1,6.584657135E0,3.400778046E0,1.263866140E1
6.810991667E-1,9.366622009E0,5.661826172E0,3.462000732E0,1.147934373E1
6.911061667E-1,8.339458008E0,4.774321747E0,3.398083649E0,1.019253062E1
7.011141667E-1,7.261848907E0,4.041595459E0,3.310665436E0,8.945918010E0
7.111221667E-1,6.277795258E0,3.408861237E0,3.126847687E0,7.797962855E0
7.211301667E-1,5.456153870E0,2.882705383E0,2.928061066E0,6.830310899E0
7.311381667E-1,4.636608124E0,2.379451904E0,2.673440552E0,5.857235751E0
7.411461667E-1,3.827690277E0,1.981429596E0,2.355501709E0,4.911788310E0
7.511531667E-1,3.082390137E0,1.595681763E0,2.016007690E0,4.013927783E0
7.611611667E-1,2.367476807E0,1.364712067E0,1.755249939E0,3.247812772E0
7.711691667E-1,1.794169006E0,1.203048248E0,1.595831451E0,2.685711364E0
7.811771667E-1,1.332379303E0,9.352551270E-1,1.470392303E0,2.193624919E0
7.911851667E-1,7.996371460E-1,6.959028625E-1,1.262624359E0,1.648611729E0
8.011931667E-1,1.312770081E-1,4.646337891E-1,1.056353302E0,1.161464812E0
8.112001667E-1,-4.501139832E-1,2.888992310E-1,9.683363342E-1,1.106228105E0
8.212081667E-1,-8.473878479E-1,1.805245972E-1,9.756710815E-1,1.304833075E0
8.312161667E-1,-1.078207855E0,4.056564331E-2,9.397457886E-1,1.430838879E0
8.412241667E-1,-1.167572021E0,-1.570234680E-1,8.806187439E-1,1.470839953E0
8.512321667E-1,-1.202449493E0,-3.821553040E-1,7.858657837E-1,1.486442899E0
8.612391667E-1,-1.186732178E0,-4.787045288E-1,8.147557068E-1,1.517009608E0
8.712471667E-1,-1.103654938E0,-3.719764709E-1,8.041278076E-1,1.415288751E0
8.812551667E-1,-1.059047699E0,-2.751278687E-1,7.391629028E-1,1.320469299E0
8.912631667E-1,-1.000669098E0,-2.375559998E-1,6.803352356E-1,1.233137271E0
9.012711667E-1,-9.270222473E-1,-1.953437805E-1,5.807922363E-1,1.111237626E0
9.112791667E-1,-7.625143433E-1,-1.044827271E-1,5.797444153E-1,9.635602477E-1
9.212861667E-1,-6.242019653E-1,1.062789917E-2,5.510041809E-1,8.326743980E-1
9.312941667E-1,-5.084925842E-1,2.439926147E-2,4.695735168E-1,6.925744147E-1
9.413021667E-1,-3.100053406E-1,-1.255888367E-1,4.555027771E-1,5.651182593E-1
9.513101667E-1,-5.313949585E-2,-2.098635864E-1,6.038442993E-1,6.414783463E-1
9.613181667E-1,2.600093079E-1,-1.493893433E-1,7.581733704E-1,8.153213327E-1
9.713261667E-1,7.214996338E-1,-2.034269714E-1,8.199948120E-1,1.111006636E0
9.813331667E-1,1.421893158E0,-2.348616028E-1,1.123563538E0,1.827384784E0
9.913411667E-1,2.381397858E0,2.484832764E-2,1.315015411E0,2.720466638E0
1.001349167E0,3.417094116E0,3.357518005E-1,1.266366577E0,3.659637383E0
1.011357167E0,4.416416016E0,4.266128540E-1,1.363065491E0,4.641624337E0
1.021365167E0,5.447771301E0,7.908055115E-1,1.513502655E0,5.709139672E0
1.031373167E0,6.630461884E0,1.566642151E0,1.745819550E0,7.033155644E0
1.041380167E0,8.139473877E0,2.050436096E0,2.004182281E0,8.629720146E0
1.051388167E0,9.843829651E0,2.387984161E0,2.124232635E0,1.034967704E1
1.061396167E0,1.128937363E1,3.053350525E0,2.096240845E0,1.188137753E1
1.071404167E0,1.226534409E1,4.020339661E0,2.254461823E0,1.310283918E1
1.081412167E0,1.332948120E1,4.983885956E0,2.598147125E0,1.446597929E1
1.091420167E0,1.464240097E1,5.933062134E0,2.861748962E0,1.605586309E1
1.101427167E0,1.616832779E1,7.347620544E0,2.941682739E0,1.800155128E1
1.111435167E0,1.782628006E1,9.257798309E0,3.008593597E0,2.031095088E1
1.121443167E0,1.934382431E1,1.127949417E1,3.084785156E0,2.260368172E1
1.131451167E0,2.082978424E1,1.331930237E1,3.107837219E0,2.491871544E1
1.141459167E0,2.219958572E1,1.556283691E1,3.038381653E0,2.728104218E1
1.151467167E0,2.328258362E1,1.766761002E1,2.968177643E0,2.937742708E1
1.161474167E0,2.360755783E1,1.896286652E1,2.707120514E0,3.040124331E1
1.171482167E0,2.294368835E1,1.969095245E1,2.493215332E0,3.033747792E1
1.181490167E0,2.178943863E1,2.002999741E1,2.309247894E0,2.968691728E1
1.191498167E0,2.020558228E1,1.973226654E1,2.057321777E0,2.831714094E1
1.201506167E0,1.840452759E1,1.893547348E1,1.845212860E0,2.647042882E1
1.211514167E0,1.656829605E1,1.799213516E1,1.679806824E0,2.451626221E1
1.221521167E0,1.510344223E1,1.705583221E1,1.597777405E0,2.283786926E1
1.231529167E0,1.414708099E1,1.607222763E1,1.441652069E0,2.146007368E1
1.241537167E0,1.360730347E1,1.521136780E1,1.265618134E0,2.044862360E1
1.251545167E0,1.332349365E1,1.449241287E1,1.071920929E0,1.971533739E1
1.261553167E0,1.330208817E1,1.384979919E1,8.672964478E-1,1.922276490E1
1.271561167E0,1.347737366E1,1.321811279E1,6.601272583E-1,1.888898818E1
1.281568167E0,1.354697891E1,1.238958572E1,3.589535522E-1,1.836168074E1
1.291576167E0,1.332394272E1,1.161584473E1,2.049238586E-1,1.767759294E1
1.301584167E0,1.300675232E1,1.081635727E1,3.589535522E-1,1.692034391E1
1.311592167E0,1.259136612E1,9.742640076E0,6.096821594E-1,1.593214514E1
1.321600167E0,1.200009567E1,8.670270081E0,9.196875000E-1,1.483312862E1
1.331608167E0,1.141166931E1,7.842790833E0,1.346300354E0,1.391215617E1
1.341615167E0,1.083431992E1,7.016509094E0,1.736987915E0,1.302424719E1
1.351622875E0,1.028421387E1,6.153703308E0,2.055076447E0,1.215962411E1
1.361630875E0,9.842332764E0,5.467081146E0,2.429897003E0,1.151802457E1
1.371638875E0,9.380093994E0,4.811743927E0,2.724634094E0,1.088864886E1
1.381646875E0,8.749455414E0,4.194577332E0,2.821482697E0,1.010486089E1
1.391654875E0,8.067623291E0,3.667074280E0,2.894381104E0,9.322629528E0
1.401661875E0,7.439529419E0,2.981200562E0,2.803070984E0,8.490663208E0
1.411669875E0,6.597680054E0,2.274071045E0,2.621947632E0,7.454890381E0
1.421677875E0,5.602250061E0,1.816772003E0,2.511926422E0,6.402783817E0
1.431685875E0,4.701423340E0,1.479074249E0,2.392923889E0,5.478788807E0
1.441693875E0,3.864813080E0,1.087488556E0,2.090103607E0,4.526361076E0
1.451701875E0,2.997366943E0,7.084767151E-1,1.678309937E0,3.507545024E0
1.461708875E0,2.100881195E0,4.507127380E-1,1.346450043E0,2.535699408E0
1.471716875E0,1.297801208E0,4.087998962E-1,1.084644470E0,1.740074412E0
1.481724875E0,7.080276489E-1,3.357518005E-1,8.222401428E-1,1.135830654E0
1.491732875E0,2.847079468E-1,1.728904724E-1,6.008505249E-1,6.870015165E-1
1.501740875E0,3.293151855E-3,1.261875916E-1,4.529580688E-1,4.702182102E-1
1.511748875E0,-2.776725769E-1,5.269042969E-2,1.615141296E-1,3.255228954E-1
1.521755875E0,-5.837860107E-2,-3.697311401E-2,3.359014893E-1,3.429356830E-1
1.531763875E0,1.734892273E-1,1.646575928E-2,2.613565063E-1,3.141287262E-1
1.541771875E0,-1.127156067E-1,1.275347900E-1,2.909948730E-1,3.371171114E-1
1.551779875E0,-5.445675659E-1,4.894821167E-2,2.740800476E-1,6.116123231E-1
1.561787875E0,-6.215075684E-1,-5.388793945E-3,2.954855347E-1,6.881950289E-1
1.571795875E0,-4.403842163E-1,6.047424316E-2,4.279600525E-1,6.170455401E-1
1.581802875E0,-3.462300110E-1,6.212081909E-2,5.063969421E-1,6.165809596E-1
1.591810875E0,-2.195933533E-1,1.571731567E-2,5.429209900E-1,5.858596045E-1
1.601818875E0,4.819976807E-2,-1.466949463E-2,5.792953491E-1,5.814821693E-1
1.611826875E0,2.787203979E-1,-9.175918579E-2,6.815327454E-1,7.420186597E-1
1.621834875E0,4.688250732E-1,-1.029858398E-1,7.144642639E-1,8.607335342E-1
1.631842875E0,7.210505676E-1,7.783813477E-3,5.492079163E-1,9.064236560E-1
1.641849875E0,9.948312378E-1,1.296304321E-1,3.700305176E-1,1.069306235E0
1.651857875E0,1.354832611E0,2.510279846E-1,3.074606323E-1,1.411778486E0
1.661865875E0,1.856738892E0,3.817062378E-1,2.508782959E-1,1.912098032E0
1.671873875E0,2.455493774E0,5.221142578E-1,2.531236267E-1,2.523118020E0
1.681881875E0,3.099454651E0,7.083270264E-1,3.764671326E-1,3.201573646E0
1.691889875E0,3.806733856E0,9.355545044E-1,6.331832886E-1,3.970819306E0
1.701897875E0,4.692442017E0,1.325343933E0,9.232800293E-1,4.962660036E0
1.711904875E0,5.840853882E0,1.904489594E0,1.196461945E0,6.258927693E0
1.721912875E0,7.221283264E0,2.564167786E0,1.397793274E0,7.789461756E0
1.731920875E0,8.702453156E0,3.326682129E0,1.542392578E0,9.443435804E0
1.741928875E0,1.041818527E1,4.311334534E0,1.945653992E0,1.144166768E1
1.751936875E0,1.217762650E1,5.464985504E0,2.553539886E0,1.358974685E1
1.761944875E0,1.379276779E1,6.609804840E0,3.197650452E0,1.562545781E1
1.771951875E0,1.513263153E1,7.882907410E0,3.510200500E0,1.742005378E1
1.781959875E0,1.615665207E1,9.289382629E0,3.524570618E0,1.896714617E1
1.791967875E0,1.680210983E1,1.095631622E1,3.653153229E0,2.038865588E1
1.801975875E0,1.734248611E1,1.300226166E1,3.936364288E0,2.202987963E1
1.811983875E0,1.799677551E1,1.486663467E1,3.940106506E0,2.367330130E1
1.821991875E0,1.833552109E1,1.620066055E1,3.804189148E0,2.476135277E1
1.831998875E0,1.840632385E1,1.733320541E1,3.674708405E0,2.554870348E1
1.842006875E0,1.830648148E1,1.843207031E1,3.199147339E0,2.617447275E1
1.852014875E0,1.801384003E1,1.945998276E1,2.612217865E0,2.664606995E1
1.862022875E0,1.738724304E1,1.999856277E1,2.212698669E0,2.659238179E1
1.872030875E0,1.636277344E1,2.008478348E1,1.648222504E0,2.595872723E1
1.882038875E0,1.528321838E1,2.015393967E1,1.325792999E0,2.532816170E1
1.892045875E0,1.454405548E1,1.986264542E1,1.101559296E0,2.464280150E1
1.902053875E0,1.421339310E1,1.916434753E1,8.485853577E-1,2.387494203E1
1.912061875E0,1.423030792E1,1.840632385E1,7.923023987E-1,2.327922173E1
1.922069875E0,1.445738571E1,1.757719803E1,8.970845032E-1,2.277671295E1
1.932077875E0,1.464255066E1,1.658521088E1,1.148711243E0,2.215384949E1
1.942085875E0,1.464255066E1,1.539877808E1,1.524579620E0,2.130377899E1
1.952092875E0,1.454525299E1,1.418405411E1,2.023641815E0,2.041682888E1
1.962100875E0,1.430739761E1,1.293160858E1,2.541115723E0,1.945213089E1
1.972108875E0,1.383228561E1,1.151046387E1,2.844684448E0,1.821853818E1
1.982116875E0,1.330463287E1,1.016116974E1,3.173251190E0,1.703913582E1
1.992124875E0,1.274853928E1,8.925189972E0,3.480262756E0,1.594667672E1
2.002132875E0,1.198243240E1,7.736362152E0,3.589685211E0,1.470767914E1
2.012140875E0,1.110570557E1,6.649172974E0,3.605851593E0,1.343690303E1
2.022147875E0,1.029873367E1,5.718408508E0,3.653153229E0,1.233327368E1
2.032155875E0,9.497749329E0,4.842879181E0,3.661685486E0,1.127247363E1
2.042163875E0,8.686137085E0,3.985462189E0,3.522325287E0,1.018526690E1
2.052171875E0,7.890092468E0,3.211721191E0,3.321592712E0,9.143395995E0
2.062179875E0,7.097640381E0,2.517913971E0,3.101699982E0,8.144748769E0
2.072187875E0,6.228847046E0,1.877096558E0,2.813549194E0,7.087883046E0
2.082194875E0,5.329367523E0,1.293759613E0,2.516417084E0,6.033931312E0
2.092202875E0,4.518653412E0,7.779322815E-1,2.196681976E0,5.084173384E0
2.102210875E0,3.756737823E0,4.123924255E-1,1.920356598E0,4.239211725E0
2.112218875E0,2.997816010E0,1.294807434E-1,1.679208069E0,3.438517970E0
2.122226875E0,2.330653381E0,-8.801696777E-2,1.469045105E0,2.756408114E0
2.132234875E0,1.870510254E0,-1.728904724E-1,1.376687164E0,2.328941235E0
2.142241875E0,1.620829468E0,-2.499801636E-1,1.289718018E0,2.086372644E0
2.152249875E0,1.441502380E0,-2.790197754E-1,1.142424316E0,1.860353318E0
2.162257875E0,1.332828369E0,-2.161505127E-1,1.074914703E0,1.725860401E0
2.172265875E0,1.256487122E0,-2.167492676E-1,1.069226532E0,1.664026895E0
2.182273875E0,1.127156067E0,-1.185534668E-1,8.861572266E-1,1.438683549E0
2.192281875E0,9.759704590E-1,1.008901978E-1,6.906637573E-1,1.199880658E0
2.202288875E0,8.187973022E-1,1.098715210E-1,5.553451538E-1,9.954441286E-1
2.212296875E0,6.544390869E-1,9.610015869E-2,4.031117249E-1,7.746126914E-1
2.222304875E0,3.601510620E-1,1.657054138E-1,2.799179077E-1,4.853051686E-1
2.232312875E0,1.047821045E-1,1.091230774E-1,2.603086853E-1,3.010776430E-1
2.242320875E0,-6.496490479E-2,3.353027344E-2,2.671943665E-1,2.770154284E-1
2.252328875E0,-2.071691895E-1,1.161584473E-1,3.068618774E-1,3.880413248E-1
2.262336875E0,-1.814227295E-1,2.158511353E-1,2.721340942E-1,3.918710051E-1
2.272343875E0,-2.634521484E-2,3.763174438E-1,1.330732727E-1,4.000217304E-1
2.282351875E0,1.788780212E-1,5.757028198E-1,2.404000854E-1,6.490171680E-1
2.292359875E0,5.119354248E-1,9.120533752E-1,3.017724609E-1,1.088570557E0
2.302367875E0,9.080117798E-1,1.303788757E0,2.276765442E-1,1.605050505E0
2.312375875E0,1.314716034E0,1.721420288E0,4.240681458E-1,2.207170100E0
2.322383875E0,1.819316711E0,2.289339294E0,7.664062500E-1,3.022973080E0
2.332390875E0,2.400857391E0,2.805765381E0,1.217867432E0,3.888397699E0
2.342398875E0,3.152893524E0,3.493435364E0,1.695673828E0,5.002013389E0
2.352403542E0,4.075275421E0,4.340523834E0,2.108814697E0,6.316258096E0
2.362411542E0,4.950954437E0,4.918921051E0,2.423161011E0,7.387790159E0
2.372419542E0,5.683081970E0,5.650898895E0,2.750829620E0,8.473319456E0
2.382427542E0,6.335724792E0,6.381978607E0,3.201242981E0,9.545628120E0
2.392434542E0,6.923402710E0,6.929539948E0,3.547622681E0,1.041814070E1
2.402442542E0,7.427554321E0,7.651338959E0,3.866160278E0,1.134278389E1
2.412450542E0,8.068820801E0,8.414152679E0,4.006867676E0,1.232715794E1
2.422458542E0,8.824150085E0,9.327253876E0,3.947740631E0,1.343309144E1
2.432466542E0,9.480385437E0,9.917326813E0,3.825444946E0,1.424307229E1
2.442474542E0,1.002106110E1,1.031684601E1,3.919000397E0,1.490696284E1
2.452482542E0,1.050799850E1,1.088955505E1,4.270768890E0,1.572386431E1
2.462489542E0,1.102277802E1,1.159907959E1,4.620890808E0,1.665511676E1
2.472497542E0,1.183723434E1,1.247356110E1,5.088668060E0,1.793333170E1
2.482505542E0,1.298145493E1,1.350701202E1,5.447621613E0,1.950984692E1
2.492513542E0,1.407837387E1,1.472637634E1,5.651647339E0,2.114256107E1
2.502521542E0,1.500000732E1,1.598660568E1,5.951623535E0,2.271549259E1
2.512529542E0,1.565205139E1,1.721584946E1,6.247109070E0,2.409146233E1
2.522536542E0,1.589784027E1,1.815439774E1,6.418502655E0,2.497039565E1
2.532544542E0,1.564307007E1,1.857038269E1,6.401288452E0,2.511058041E1
2.542552542E0,1.505554184E1,1.849598740E1,6.405479736E0,2.469415033E1
2.552560542E0,1.436862030E1,1.805665100E1,6.494544525E0,2.397246344E1
2.562568542E0,1.339579330E1,1.740924728E1,6.352639618E0,2.286668317E1
2.572576542E0,1.232237549E1,1.676319077E1,6.283633118E0,2.173314398E1
2.582583542E0,1.166524200E1,1.619602020E1,6.389463043E0,2.095743733E1
2.592591542E0,1.144475052E1,1.565758987E1,6.447841644E0,2.043812851E1
2.602599542E0,1.152782776E1,1.532782562E1,6.445596313E0,2.023311056E1
2.612607542E0,1.179801590E1,1.477517487E1,6.256539459E0,1.991590464E1
2.622615542E0,1.210068649E1,1.398436935E1,6.072721710E0,1.946450998E1
2.632623542E0,1.239437576E1,1.329505280E1,5.865103455E0,1.909917323E1
2.642631542E0,1.238060440E1,1.236189331E1,5.453309784E0,1.832578400E1
2.652638542E0,1.193408295E1,1.119342316E1,5.104834442E0,1.713984809E1
2.662646542E0,1.105645798E1,9.997260590E0,4.860392761E0,1.567845337E1
2.672654542E0,1.003034180E1,8.748706970E0,4.532424774E0,1.406024554E1
2.682662542E0,8.881929932E0,7.436535645E0,4.026476898E0,1.226390060E1
2.692670542E0,7.689659271E0,6.131399689E0,3.513493652E0,1.044363727E1
2.702678542E0,6.531966705E0,4.907844086E0,2.982547760E0,8.697649898E0
2.712685542E0,5.503305817E0,3.836072845E0,2.390977936E0,7.121699606E0
2.722693542E0,4.684957581E0,2.837798767E0,1.927841034E0,5.806763335E0
2.732701542E0,4.088897095E0,1.885179749E0,1.545236664E0,4.760329661E0
2.742709542E0,3.498075714E0,1.023272095E0,1.198258209E0,3.836592527E0
2.752717542E0,2.922672272E0,2.406994629E-1,9.424401855E-1,3.080282932E0
2.762725542E0,2.410287781E0,-5.384303284E-1,6.626719666E-1,2.557054661E0
2.772733542E0,1.858834534E0,-1.191372528E0,5.516029358E-1,2.275719693E0
2.782740542E0,1.362466736E0,-1.645228729E0,5.872288513E-1,2.215385046E0
2.792748542E0,9.511221313E-1,-2.041005707E0,5.653742981E-1,2.321634274E0
2.802756542E0,5.653742981E-1,-2.439776459E0,4.713697815E-1,2.548400819E0
2.812764542E0,1.474433899E-1,-2.742147675E0,4.113446045E-1,2.776745902E0
2.822772542E0,-3.177891541E-1,-2.903661804E0,4.150868225E-1,2.950345554E0
2.832780542E0,-6.469546509E-1,-2.983894958E0,4.207749939E-1,3.082082257E0
2.842787542E0,-8.485853577E-1,-3.051554260E0,3.477268982E-1,3.186376391E0
2.852795542E0,-1.037193146E0,-2.919079742E0,1.920506287E-1,3.103816942E0
2.862803542E0,-1.180445251E0,-2.766247559E0,3.936813354E-2,3.007844144E0
2.872811542E0,-1.232686615E0,-2.689906311E0,2.619552612E-2,2.959019848E0
2.882819542E0,-1.209335175E0,-2.487826538E0,1.329235840E-1,2.769375584E0
2.892827542E0,-1.096769257E0,-2.179168396E0,2.354603577E-1,2.450942529E0
2.902834542E0,-8.830137634E-1,-1.921703796E0,3.332070923E-1,2.140954403E0
2.912842542E0,-5.406756592E-1,-1.637145538E0,4.351451111E-1,1.778180798E0
2.922850542E0,-1.781295776E-2,-1.240919495E0,6.075865173E-1,1.381795886E0
2.932858542E0,5.715115356E-1,-6.689588928E-1,8.119116211E-1,1.197218408E0
2.942866542E0,1.210382996E0,-1.079255676E-1,1.016236725E0,1.584112371E0
2.952874542E0,2.082319794E0,4.803511047E-1,1.438059540E0,2.575812133E0
2.962882542E0,3.234623566E0,1.253493347E0,1.812580719E0,3.914011248E0
2.972889542E0,4.483925629E0,2.380200348E0,2.286495209E0,5.567674836E0
2.982897542E0,5.893394623E0,3.447480927E0,2.715203705E0,7.347758575E0
2.992905542E0,7.309449921E0,4.435875549E0,2.944227448E0,9.042871518E0
3.002913542E0,8.769962769E0,5.672753448E0,3.312012634E0,1.095727185E1
3.012921542E0,1.009545639E1,7.077133026E0,3.558849335E0,1.283235988E1
3.022929542E0,1.128323639E1,8.727900238E0,3.689228210E0,1.473424823E1
3.032937542E0,1.240156082E1,1.024140289E1,3.852987671E0,1.653875926E1
3.042944542E0,1.316242859E1,1.151794830E1,3.810925140E0,1.790072093E1
3.052952542E0,1.364188156E1,1.280587006E1,3.864064636E0,1.910555511E1
3.062960542E0,1.406400375E1,1.346614700E1,3.827989655E0,1.984406263E1
3.072968542E0,1.448388062E1,1.401655243E1,3.783681793E0,2.050762755E1
3.082976542E0,1.494956223E1,1.525178375E1,4.053570557E0,2.173793349E1
3.092984542E0,1.519834488E1,1.633852386E1,4.190535736E0,2.270457308E1
3.102991542E0,1.494896347E1,1.713950821E1,4.137695618E0,2.311611506E1
3.112999542E0,1.471574844E1,1.806937454E1,4.176764374E0,2.367490041E1
3.123007542E0,1.465946548E1,1.849718491E1,4.134552155E0,2.396122491E1
3.133015542E0,1.444675781E1,1.864043701E1,4.151317291E0,2.394594201E1
3.143023542E0,1.434407135E1,1.867561386E1,4.367617493E0,2.395009433E1
3.153031542E0,1.417791687E1,1.850481903E1,4.411476288E0,2.372557222E1
3.163039542E0,1.367945343E1,1.840797043E1,4.421056366E0,2.335651003E1
3.173046542E0,1.315449509E1,1.808658875E1,4.378095703E0,2.278888228E1
3.183054542E0,1.280572037E1,1.752810013E1,4.244573364E0,2.211870637E1
3.193062542E0,1.246098724E1,1.692156143E1,4.230053558E0,2.143615631E1
3.203070542E0,1.226309875E1,1.635064865E1,4.236340485E0,2.087280247E1
3.213078542E0,1.225157272E1,1.555026306E1,4.042493591E0,2.020528322E1
3.223086542E0,1.210442871E1,1.452160217E1,3.689377899E0,1.926150652E1
3.233093542E0,1.191357559E1,1.361658417E1,3.534300385E0,1.843463932E1
3.243101542E0,1.186148392E1,1.270093826E1,3.379971313E0,1.770403456E1
3.253109542E0,1.166524200E1,1.172736282E1,3.056793365E0,1.682120375E1
3.263117542E0,1.141391464E1,1.084824097E1,3.001408539E0,1.603029110E1
3.273125542E0,1.124311981E1,1.004785538E1,3.111729126E0,1.539642812E1
3.283133542E0,1.112606323E1,9.066945190E0,3.169508972E0,1.469845452E1
3.293141542E0,1.065035248E1,7.866591339E0,3.035687256E0,1.358413281E1
3.303148542E0,9.839937744E0,6.826703796E0,2.992576904E0,1.234438237E1
3.313156542E0,8.996591492E0,5.724096680E0,2.789149933E0,1.102194623E1
3.323164542E0,8.102800140E0,4.581672363E0,2.400857391E0,9.613074845E0
3.333172542E0,7.152127075E0,3.581751709E0,2.115999756E0,8.274014864E0
3.343180250E0,6.275549927E0,2.592758331E0,1.829196167E0,7.032132057E0
3.353188250E0,5.478607178E0,1.703158264E0,1.381327515E0,5.901182117E0
3.363196250E0,4.579726410E0,1.112636261E0,9.702822876E-1,4.811787730E0
3.373203250E0,3.678600311E0,5.939648438E-1,6.737489319E-1,3.786665038E0
3.383211250E0,2.864443359E0,4.266128540E-2,3.468287659E-1,2.885679458E0
3.393219250E0,2.112856293E0,-4.041595459E-1,7.604187012E-2,2.152507612E0
3.403227250E0,1.502126312E0,-7.188052368E-1,-7.619155884E-2,1.666994175E0
3.413235250E0,1.095122681E0,-1.062041473E0,-2.203417969E-1,1.541355340E0
3.423243250E0,8.063731384E-1,-1.393751678E0,-3.112028503E-1,1.640008718E0
3.433250250E0,5.499563599E-1,-1.645528107E0,-3.685336304E-1,1.773705665E0
3.443258250E0,2.067201233E-1,-1.745520172E0,-4.927752686E-1,1.825486605E0
3.453266250E0,-1.335223389E-1,-1.873354340E0,-5.783972168E-1,1.965153439E0
3.463274250E0,-5.327421570E-1,-1.927990723E0,-6.908134460E-1,2.116172405E0
3.473282250E0,-9.584568787E-1,-1.808838501E0,-7.812254333E-1,2.191084090E0
3.483290250E0,-1.220412140E0,-1.813778229E0,-7.432044983E-1,2.309014981E0
3.493298250E0,-1.284927979E0,-1.863175507E0,-6.649172974E-1,2.358935754E0
3.503305250E0,-1.200353851E0,-1.844314728E0,-4.894821167E-1,2.254315623E0
3.513313250E0,-9.891430664E-1,-1.737586670E0,-2.543211365E-1,2.015512511E0
3.523321250E0,-6.728507996E-1,-1.635349274E0,3.966751099E-2,1.768804386E0
3.533329250E0,-3.748205566E-1,-1.426982574E0,2.266287231E-1,1.492692298E0
3.543337250E0,-1.086740112E-1,-1.085392914E0,2.856060791E-1,1.127589753E0
3.553345250E0,1.655557251E-1,-7.149133301E-1,3.924838257E-1,8.321978858E-1
3.563352250E0,5.513035583E-1,-1.922003174E-1,4.957690430E-1,7.659396317E-1
3.573360250E0,9.782157898E-1,4.326004028E-1,5.712121582E-1,1.212572707E0
3.583368250E0,1.498683472E0,1.159937897E0,7.830216980E-1,2.050519703E0
3.593376250E0,2.152523804E0,2.147584076E0,1.056353302E0,3.218906396E0
3.603384250E0,3.088826752E0,3.113375702E0,1.387913818E0,4.600028666E0
3.613392250E0,4.447551270E0,3.905827789E0,1.791324921E0,6.184258079E0
3.623400250E0,6.117478638E0,4.947062531E0,2.215692444E0,8.173509991E0
3.633407250E0,7.898025970E0,6.338718567E0,2.719095612E0,1.048578315E1
3.643415250E0,9.686057739E0,7.773185577E0,3.157384186E0,1.281449193E1
3.653423250E0,1.112651230E1,9.272617493E0,3.589685211E0,1.492201565E1
3.663431250E0,1.233749405E1,1.083476898E1,4.212090912E0,1.695133293E1
3.673439250E0,1.328517334E1,1.224603424E1,4.793032837E0,1.869316316E1
3.683447250E0,1.402613251E1,1.369636826E1,5.251080322E0,2.029523937E1
3.693455250E0,1.477472580E1,1.524849060E1,5.455255737E0,2.192187955E1
3.703462250E0,1.550715271E1,1.677711182E1,5.480403442E0,2.349421393E1
3.713470250E0,1.619467300E1,1.797087936E1,5.404211884E0,2.478760668E1
3.723478250E0,1.632280655E1,1.864642456E1,5.054239655E0,2.529166861E1
3.733486250E0,1.566402649E1,1.923979065E1,4.784051514E0,2.526694321E1
3.743494250E0,1.476110413E1,1.950743408E1,4.609065399E0,2.489324534E1
3.753502250E0,1.375579468E1,1.938903030E1,4.353696442E0,2.416838960E1
3.763510250E0,1.262519577E1,1.918096298E1,4.151167603E0,2.333531876E1
3.773517250E0,1.154414383E1,1.876048737E1,4.028722229E0,2.239316292E1
3.783525250E0,1.079614929E1,1.818822739E1,3.951033783E0,2.151694967E1
3.793533250E0,1.041908340E1,1.765458710E1,3.877835999E0,2.086334960E1
3.803541250E0,1.036624329E1,1.713756226E1,3.700754242E0,2.036788212E1
3.813549250E0,1.058463913E1,1.659973068E1,3.449875946E0,1.998717810E1
3.823557250E0,1.092263626E1,1.609138779E1,3.286864929E0,1.972410264E1
3.833565250E0,1.127320724E1,1.542197983E1,3.056793365E0,1.934597243E1
3.843572250E0,1.151151169E1,1.465048416E1,2.776426392E0,1.883773158E1
3.853580250E0,1.161330002E1,1.401131332E1,2.716251526E0,1.840009948E1
3.863588250E0,1.169982010E1,1.335193451E1,2.757116547E0,1.796556810E1
3.873596250E0,1.158485916E1,1.236623428E1,2.602188721E0,1.714363142E1
3.883604250E0,1.118653748E1,1.146391068E1,2.494113464E0,1.621050495E1
3.893612250E0,1.071307205E1,1.059691360E1,2.573598175E0,1.528685377E1
3.903619250E0,1.020053787E1,9.682016144E0,2.593806152E0,1.430105730E1
3.913627250E0,9.517657928E0,8.711584167E0,2.672991486E0,1.317658509E1
3.923635250E0,8.595126343E0,7.538024597E0,2.581082611E0,1.172006822E1
3.933643250E0,7.509434052E0,6.459517365E0,2.256407776E0,1.015915058E1
3.943651250E0,6.439758453E0,5.653593292E0,2.004331970E0,8.800622290E0
3.953659250E0,5.418132935E0,5.005141754E0,1.721420288E0,7.574357813E0
3.963667250E0,4.500391388E0,4.363725586E0,1.199904785E0,6.382428623E0
3.973674250E0,3.728895721E0,3.808679810E0,7.529342651E-1,5.383086029E0
3.983682250E0,3.163222046E0,3.429069214E0,5.135820007E-1,4.693426878E0
3.993690250E0,2.776426392E0,2.992726593E0,2.514770508E-1,4.090011819E0
4.003698250E0,2.374063110E0,2.517614594E0,-3.143463135E-3,3.460428987E0
4.013706250E0,1.945504303E0,2.095193024E0,-1.456471252E-1,2.862871615E0
4.023714250E0,1.503024445E0,1.774110718E0,-2.496807861E-1,2.338566188E0
4.033722250E0,1.084494781E0,1.501228180E0,-3.474275208E-1,1.884282585E0
4.043729250E0,7.247927856E-1,1.242416382E0,-3.824546814E-1,1.488352993E0
4.053737250E0,4.604425049E-1,9.373507690E-1,-3.665876770E-1,1.106806347E0
4.063745250E0,2.742297363E-1,6.412664795E-1,-2.830613708E-1,7.526940851E-1
4.073753250E0,9.370513916E-2,3.875440979E-1,-1.354682922E-1,4.210970662E-1
4.083761250E0,-8.053253174E-2,1.790277100E-1,1.047821045E-3,1.963097235E-1
4.093769250E0,-9.654922485E-2,4.535568237E-2,6.361770630E-2,1.242018651E-1
4.103777250E0,-1.160087585E-1,4.296066284E-2,9.984237671E-2,1.589721699E-1
4.113784250E0,-2.005828857E-1,-1.646575928E-2,1.844165039E-1,2.729726400E-1
4.123792250E0,-1.821711731E-1,-1.302291870E-2,2.782713318E-1,3.328526203E-1
4.133800250E0,-1.143621826E-1,1.359173584E-1,3.459306335E-1,3.888704673E-1
4.143808250E0,-7.050338745E-2,2.496807861E-1,4.119433594E-1,4.868352431E-1
4.153816250E0,7.304809570E-2,3.306623840E-1,5.390290833E-1,6.365736321E-1
4.163824250E0,3.076103210E-1,4.776567078E-1,5.948629761E-1,8.225825189E-1
4.173832250E0,4.873864746E-1,6.700067139E-1,6.734495544E-1,1.067702615E0
4.183839250E0,6.086343384E-1,7.780819702E-1,7.882608032E-1,1.263804733E0
4.193847250E0,7.222480774E-1,8.403524780E-1,8.711883545E-1,1.409540252E0
4.203855250E0,8.717871094E-1,8.625064087E-1,8.812174988E-1,1.510123952E0
4.213863250E0,1.017883301E0,9.057664490E-1,8.890013123E-1,1.626905838E0
4.223871250E0,1.232087860E0,1.013991394E0,1.005309448E0,1.885965569E0
4.233879250E0,1.649270325E0,1.319805450E0,1.176852722E0,2.418049082E0
4.243886250E0,2.196831665E0,1.863923950E0,1.243164825E0,3.137792319E0
4.253894250E0,2.877615967E0,2.350711670E0,1.287921753E0,3.932589662E0
4.263902250E0,3.627406769E0,2.911595306E0,1.499132538E0,4.887009869E0
4.273910250E0,4.608017578E0,3.713328094E0,1.766476593E0,6.176007698E0
4.283918250E0,5.877228241E0,4.502187653E0,2.264191589E0,7.741968032E0
4.293926250E0,7.167245636E0,5.372627563E0,2.656825104E0,9.343086031E0
4.303934250E0,8.308472443E0,6.471342773E0,2.851869507E0,1.091064395E1
4.313941250E0,9.561666412E0,7.749684448E0,3.143463135E0,1.270293014E1
4.323949250E0,1.075723022E1,9.228159943E0,3.301085358E0,1.455246036E1
4.333957250E0,1.188094345E1,1.141002274E1,3.671564941E0,1.687678362E1
4.343965250E0,1.300495605E1,1.336286179E1,4.044140167E0,1.908009504E1
4.353973375E0,1.422836197E1,1.499297195E1,4.530329132E0,2.116032548E1
4.363981375E0,1.570578964E1,1.692171112E1,5.131628723E0,2.365057608E1
4.373989375E0,1.706391541E1,1.859163849E1,5.525310059E0,2.583322051E1
4.383996375E0,1.789274185E1,2.004586441E1,5.701942749E0,2.746814595E1
4.394004375E0,1.811188614E1,2.139351196E1,5.742658081E0,2.861294979E1
4.404012375E0,1.763497787E1,2.218057526E1,5.602100372E0,2.888518464E1
4.414020375E0,1.662592621E1,2.253518784E1,5.317691803E0,2.850498130E1
4.424028375E0,1.540955566E1,2.246648071E1,4.964875488E0,2.769200516E1
4.434036375E0,1.417327652E1,2.220138199E1,4.734504547E0,2.676188825E1
4.444044375E0,1.309491898E1,2.159948364E1,4.477788391E0,2.565278124E1
4.454051375E0,1.243973145E1,2.076332245E1,4.098477173E0,2.454913426E1
4.464059375E0,1.217882401E1,1.983615051E1,3.790417786E0,2.358312720E1
4.474067375E0,1.210053680E1,1.892394745E1,3.521127777E0,2.273625120E1
4.484075375E0,1.221609650E1,1.805126221E1,3.351829834E0,2.205257001E1
4.494083375E0,1.248239273E1,1.703966583E1,3.232976990E0,2.136849270E1
4.504091375E0,1.251262985E1,1.582778595E1,3.005150757E0,2.039891284E1
4.514099375E0,1.235949829E1,1.460093719E1,2.860551453E0,1.934237110E1
4.524106375E0,1.217283646E1,1.332484085E1,2.760110321E0,1.825780765E1
4.534114375E0,1.185474792E1,1.214259933E1,2.726580048E0,1.718755380E1
4.544122375E0,1.143457169E1,1.090287735E1,2.756068726E0,1.603801980E1
4.554130375E0,1.081501007E1,9.468110962E0,2.712958374E0,1.462770355E1
4.564138375E0,9.921069031E0,8.110134888E0,2.631378021E0,1.308151554E1
4.574146375E0,8.931776276E0,6.878645782E0,2.613265686E0,1.157244800E1
4.584154375E0,7.945776672E0,5.706134033E0,2.570005646E0,1.011435918E1
4.594161375E0,7.088509369E0,4.677323456E0,2.459984436E0,8.841710423E0
4.604169375E0,6.338419189E0,3.672313385E0,2.283501434E0,7.673058205E0
4.614177375E0,5.508694611E0,2.683320007E0,1.983076172E0,6.440381485E0
4.624185375E0,4.606969757E0,1.956431580E0,1.693129120E0,5.283794194E0
4.634193375E0,3.772155762E0,1.367107086E0,1.430425415E0,4.259607698E0
4.644201375E0,3.016377411E0,8.568182373E-1,1.101110229E0,3.323419010E0
4.654209375E0,2.413281555E0,5.469625854E-1,8.949888611E-1,2.631368655E0
4.664216375E0,1.902693329E0,2.683918762E-1,8.174501038E-1,2.088181212E0
4.674224375E0,1.410816193E0,-6.556365967E-2,6.382727051E-1,1.549868694E0
4.684232375E0,9.928852844E-1,-3.565585327E-1,4.556524658E-1,1.149162454E0
4.694240375E0,6.721023560E-1,-5.658233643E-1,3.643423462E-1,9.511167129E-1
4.704248375E0,4.146377563E-1,-7.279362488E-1,2.769241333E-1,8.823279588E-1
4.714256375E0,1.160087585E-1,-8.616082764E-1,2.299218750E-1,8.992724407E-1
4.724264375E0,-2.320175171E-1,-1.001866608E0,1.748364258E-1,1.043137864E0
4.734271375E0,-6.144721985E-1,-1.067430267E0,1.869612122E-1,1.245768017E0
4.744279375E0,-8.652008057E-1,-1.088237000E0,1.902543640E-1,1.403220911E0
4.754287375E0,-9.936337280E-1,-1.141226807E0,9.295669556E-2,1.516030197E0
4.764295375E0,-1.118623810E0,-1.178499298E0,-2.709365845E-2,1.625088887E0
4.774303375E0,-1.233435059E0,-1.202599182E0,-1.155596924E-1,1.726545939E0
4.784311375E0,-1.277443542E0,-1.212927704E0,-1.752854919E-1,1.770248746E0
4.794319375E0,-1.294208679E0,-1.106648712E0,-2.454895020E-1,1.720439645E0
4.804326375E0,-1.182540894E0,-9.919871521E-1,-2.760260010E-1,1.568002496E0
4.814334375E0,-1.000818787E0,-9.184899902E-1,-3.002755737E-1,1.391196437E0
4.824342375E0,-7.837701416E-1,-8.086184692E-1,-2.990780640E-1,1.165164002E0
4.834350375E0,-4.888833618E-1,-6.721023560E-1,-2.770738220E-1,8.760698723E-1
4.844358375E0,-1.339714050E-1,-5.141807556E-1,-2.710862732E-1,5.965047815E-1
4.854366375E0,9.265731812E-2,-2.710862732E-1,-2.398013306E-1,3.736011567E-1
4.864374375E0,2.865042114E-1,9.160949707E-2,-1.291813660E-1,3.273603342E-1
4.874381375E0,5.815406799E-1,5.709127808E-1,-1.646575928E-2,8.151086350E-1
4.884389375E0,1.219364319E0,1.144969025E0,1.344204712E-1,1.678056099E0
4.894397375E0,2.148781586E0,1.822759552E0,3.281176758E-1,2.836789717E0
4.904405375E0,3.053350525E0,2.515668640E0,6.935078430E-1,4.016527264E0
4.914413375E0,3.971690826E0,3.334016876E0,1.220711517E0,5.327300739E0
4.924421375E0,5.135520630E0,4.225263519E0,1.778152313E0,6.883912376E0
4.934429375E0,6.511758728E0,5.224585419E0,2.126477966E0,8.615172840E0
4.944436375E0,7.862250366E0,6.496939545E0,2.298170929E0,1.045498895E1
4.954444375E0,9.128167877E0,7.803123322E0,2.351160736E0,1.223683534E1
4.964452375E0,1.054931259E1,9.330846405E0,2.480192413E0,1.430049108E1
4.974460375E0,1.194396240E1,1.070154602E1,2.635269928E0,1.625195289E1
4.984468375E0,1.280512161E1,1.159518768E1,2.614163818E0,1.747150164E1
4.994476375E0,1.357347382E1,1.294298492E1,2.677781525E0,1.894546289E1
5.004484375E0,1.462189362E1,1.457998077E1,2.911894684E0,2.085317105E1
5.014491375E0,1.548335220E1,1.598855164E1,2.849624176E0,2.243854578E1
5.024499375E0,1.655856628E1,1.775323196E1,2.885250092E0,2.444765900E1
5.034507375E0,1.782223846E1,1.935490128E1,3.182531891E0,2.650231870E1
5.044515375E0,1.847967133E1,2.034015244E1,3.445984039E0,2.769647738E1
5.054523375E0,1.886841293E1,2.117376892E1,3.781137085E0,2.861192924E1
5.064531375E0,1.883308640E1,2.154320068E1,4.012555847E0,2.889455387E1
5.074539375E0,1.780442551E1,2.130100433E1,4.089346161E0,2.806159485E1
5.084547375E0,1.628568375E1,2.085732697E1,4.299209747E0,2.680922952E1
5.094554375E0,1.475212280E1,2.016681290E1,4.558769989E0,2.539897347E1
5.104562375E0,1.322454941E1,1.917811890E1,4.445455627E0,2.371604999E1
5.114570375E0,1.197674423E1,1.841246109E1,4.284240875E0,2.237891520E1
5.124578375E0,1.153112091E1,1.773706558E1,4.169130249E0,2.156274315E1
5.134586375E0,1.175849808E1,1.697574875E1,3.797752533E0,2.099669610E1
5.144594375E0,1.206955124E1,1.624047775E1,3.370391235E0,2.051308660E1
5.154602375E0,1.239168137E1,1.560265411E1,3.122207336E0,2.016791415E1
5.164609375E0,1.264615219E1,1.469000198E1,2.778072968E0,1.958159883E1
5.174617375E0,1.267339554E1,1.364307907E1,2.474953308E0,1.878493958E1
5.184625375E0,1.238853790E1,1.259301270E1,2.358645172E0,1.782198213E1
5.194633375E0,1.178903458E1,1.137664215E1,2.263143768E0,1.653877694E1
5.204641375E0,1.103864502E1,1.011072464E1,2.259700928E0,1.513884688E1
5.214649375E0,1.021939865E1,8.818012848E0,2.311193848E0,1.369434469E1
5.224657375E0,9.269024963E0,7.533234558E0,2.265239410E0,1.215712780E1
5.234664375E0,8.229586487E0,6.373745728E0,2.178270264E0,1.063464102E1
5.244672375E0,7.233857117E0,5.304519196E0,2.068997498E0,9.205833114E0
5.254680375E0,6.293213196E0,4.303999786E0,1.830992432E0,7.841012675E0
5.264688375E0,5.386548615E0,3.462449799E0,1.551373901E0,6.588643682E0
5.274696375E0,4.551135864E0,2.796784058E0,1.305285645E0,5.498964387E0
5.284704375E0,3.778891754E0,2.274520111E0,1.104553070E0,4.546812302E0
5.294712375E0,3.150947571E0,1.845811615E0,9.377998352E-1,3.770273152E0
5.304719375E0,2.617157593E0,1.483564911E0,8.285270691E-1,3.120406354E0
5.314727375E0,2.145039368E0,1.251846771E0,8.018824768E-1,2.609852435E0
5.324735375E0,1.789378967E0,1.016835480E0,8.008346558E-1,2.208431033E0
5.334743375E0,1.473984833E0,7.373666382E-1,7.647596741E-1,1.816919978E0
5.344751375E0,1.203347626E0,5.147795105E-1,7.589218140E-1,1.512946057E0
5.354763292E0,9.907896423E-1,3.676354980E-1,7.873626709E-1,1.317861886E0
5.364771292E0,8.458909607E-1,2.562670898E-1,8.225395203E-1,1.207383784E0
5.374779292E0,7.203021240E-1,1.993853760E-1,8.430468750E-1,1.126640010E0
5.384786292E0,6.143225098E-1,1.648072815E-1,7.942483521E-1,1.017538221E0
5.394794292E0,4.721182251E-1,8.861572266E-2,6.893165588E-1,8.401819345E-1
5.404802292E0,2.778222656E-1,5.957611084E-2,6.433621216E-1,7.033131193E-1
5.414810292E0,5.358856201E-2,1.172062683E-1,6.119274902E-1,6.253513385E-1
5.424818292E0,-6.346801758E-2,1.478924561E-1,5.287005615E-1,5.526523786E-1
5.434826292E0,-1.354682922E-1,1.350192261E-1,4.204756165E-1,4.619324557E-1
5.444833292E0,-2.580633545E-1,1.920506287E-1,3.104544067E-1,4.470593669E-1
5.454841292E0,-3.981719971E-1,3.363505554E-1,1.514849854E-1,5.427894031E-1
5.464849292E0,-4.140390015E-1,4.194277954E-1,1.152603149E-2,5.894750374E-1
5.474857292E0,-3.236270142E-1,4.089495850E-1,-9.116043091E-2,5.294189565E-1
5.484865292E0,-2.709365845E-1,4.698728943E-1,-1.486408997E-1,5.623889105E-1
5.494873292E0,-1.586700439E-1,6.176156616E-1,-1.236428833E-1,6.495481898E-1
5.504881292E0,2.110610962E-2,6.932084656E-1,-7.394622803E-2,6.974607439E-1
5.514889292E0,2.203417969E-1,6.650669861E-1,-5.403762817E-2,7.026981348E-1
5.524896292E0,3.279679871E-1,6.956034851E-1,-4.146377563E-2,7.701600183E-1
5.534904292E0,4.891827393E-1,7.364685059E-1,3.068618774E-2,8.846622263E-1
5.544912292E0,8.442443848E-1,8.261320496E-1,1.329235840E-1,1.188659507E0
5.554920292E0,1.347048798E0,1.085841980E0,2.662962341E-1,1.750573321E0
5.564928292E0,2.143841858E0,1.423839111E0,4.947212219E-1,2.620710746E0
5.574936292E0,3.159479828E0,1.643731842E0,6.842271423E-1,3.626614666E0
5.584944292E0,4.146377563E0,1.990111542E0,8.735833740E-1,4.681467586E0
5.594951292E0,5.135520630E0,2.502346344E0,1.163680115E0,5.830048094E0
5.604959292E0,6.242019653E0,2.985541534E0,1.439556427E0,7.067431663E0
5.614967292E0,7.783514099E0,3.757486267E0,1.672621765E0,8.803377667E0
5.624975292E0,9.521699524E0,4.838687897E0,1.943408661E0,1.085598911E1
5.634983292E0,1.126976440E1,5.895939331E0,2.023192749E0,1.287878097E1
5.644991292E0,1.295106812E1,7.143145752E0,1.975292358E0,1.492167807E1
5.654999292E0,1.449884949E1,8.797206116E0,2.074835358E0,1.708544450E1
5.665006292E0,1.591700043E1,1.047297134E1,2.293979645E0,1.919104932E1
5.675014292E0,1.729413666E1,1.192300598E1,2.463576965E0,2.114980959E1
5.685022292E0,1.885104904E1,1.332304459E1,2.724634094E0,2.324412179E1
5.695030292E0,2.025258453E1,1.467997284E1,3.223995667E0,2.522028808E1
5.705038292E0,2.101165604E1,1.609932129E1,3.816313934E0,2.674401031E1
5.715046292E0,2.123020157E1,1.753708145E1,4.318070526E0,2.787322044E1
5.725054292E0,2.102243362E1,1.846694778E1,4.717739410E0,2.837653857E1
5.735062292E0,2.021710831E1,1.897798508E1,5.150040436E0,2.820316121E1
5.745069292E0,1.894999329E1,1.920371567E1,5.519023132E0,2.753805653E1
5.755077292E0,1.748334320E1,1.905896667E1,5.489085388E0,2.643939407E1
5.765085292E0,1.613509689E1,1.877485748E1,5.139412537E0,2.528339745E1
5.775093292E0,1.498803223E1,1.833776642E1,4.540807343E0,2.411501023E1
5.785101292E0,1.411729294E1,1.793166092E1,3.892954559E0,2.315162021E1
5.795109292E0,1.375848907E1,1.751732254E1,3.313659210E0,2.251961252E1
5.805117292E0,1.373049728E1,1.697185684E1,2.732417908E0,2.200083153E1
5.815124292E0,1.392269760E1,1.639899811E1,2.337988129E0,2.163873462E1
5.825132292E0,1.405367523E1,1.567630096E1,2.050436096E0,2.115316732E1
5.835140292E0,1.393242737E1,1.468925354E1,1.845063171E0,2.032955878E1
5.845148292E0,1.351509521E1,1.349473755E1,1.670077057E0,1.917172130E1
5.855156292E0,1.296543823E1,1.227582230E1,1.585802307E0,1.792521047E1
5.865164292E0,1.232057922E1,1.113309860E1,1.602268066E0,1.668262029E1
5.875172292E0,1.175759995E1,1.013257919E1,1.733395386E0,1.561777760E1
5.885180292E0,1.133622620E1,9.129964142E0,1.916614380E0,1.468126971E1
5.895187292E0,1.076710968E1,8.070467377E0,1.945803680E0,1.359592757E1
5.905195292E0,1.011955627E1,7.140151978E0,1.919757843E0,1.253286319E1
5.915203292E0,9.552385712E0,6.347999268E0,2.010918274E0,1.164426725E1
5.925211292E0,9.094637604E0,5.518274689E0,2.064955902E0,1.083641230E1
5.935219292E0,8.612639923E0,4.701573029E0,1.988914032E0,1.001189964E1
5.945227292E0,7.993527374E0,4.004772034E0,1.855092316E0,9.131048484E0
5.955235292E0,7.317832489E0,3.421734467E0,1.721869354E0,8.259768348E0
5.965242292E0,6.599326630E0,2.823578339E0,1.531165924E0,7.339494239E0
5.975250292E0,5.770051117E0,2.205363922E0,1.296304321E0,6.311697459E0
5.985258292E0,4.916675720E0,1.719773712E0,1.076261902E0,5.318802632E0
5.995266292E0,4.133803711E0,1.384920044E0,9.060658264E-1,4.452784739E0
6.005274292E0,3.390748901E0,1.102756805E0,7.292834473E-1,3.639382507E0
6.015282292E0,2.721939697E0,8.607101440E-1,6.021977234E-1,2.917605142E0
6.025290292E0,2.132315826E0,6.747967529E-1,4.966671753E-1,2.291025911E0
6.035297292E0,1.586999817E0,5.435197449E-1,4.182302856E-1,1.728843169E0
6.045305292E0,1.130748596E0,4.305047607E-1,4.029620361E-1,1.275266693E0
6.055313292E0,7.795788574E-1,3.505709839E-1,4.412823486E-1,9.619632638E-1
6.065321292E0,5.138813782E-1,2.871029663E-1,4.451742554E-1,7.380259492E-1
6.075329292E0,3.275189209E-1,2.261796570E-1,4.596940613E-1,6.080662059E-1
6.085337292E0,2.341131592E-1,1.850152588E-1,4.803511047E-1,5.654881087E-1
6.095345292E0,1.215472412E-1,1.445993042E-1,4.674778748E-1,5.042006089E-1
6.105352292E0,-2.814147949E-2,1.481918335E-1,4.358935547E-1,4.612547598E-1
6.115360292E0,-1.935475159E-1,1.604663086E-1,3.981719971E-1,4.709044663E-1
6.125368292E0,-3.611988831E-1,2.285746765E-1,3.378474426E-1,5.448411790E-1
6.135376292E0,-4.975653076E-1,3.773652649E-1,3.029699707E-1,6.940940726E-1
6.145384292E0,-5.981561279E-1,4.625381470E-1,2.375559998E-1,7.925686997E-1
6.155392292E0,-7.321275330E-1,4.936734009E-1,1.480421448E-1,8.953438601E-1
6.165400292E0,-8.466394043E-1,5.845344543E-1,1.386117554E-1,1.038119467E0
6.175408292E0,-8.786727905E-1,6.785389709E-1,1.442999268E-1,1.119510374E0
6.185415292E0,-7.399113464E-1,7.539820862E-1,1.332229614E-1,1.064756378E0
6.195423292E0,-4.656816101E-1,8.238867188E-1,1.426533508E-1,9.570781921E-1
6.205431292E0,-5.044509888E-2,7.530839539E-1,1.820214844E-1,7.764096666E-1
6.215439292E0,3.118016052E-1,6.822811890E-1,1.448986816E-1,7.640179905E-1
6.225447292E0,5.194198608E-1,8.144563293E-1,1.333726501E-1,9.751535100E-1
6.235455292E0,7.996371460E-1,1.077758789E0,2.140548706E-1,1.358971324E0
6.245463292E0,1.328936462E0,1.206790466E0,2.900967407E-1,1.818398050E0
6.255470292E0,1.919757843E0,1.228645020E0,2.930905151E-1,2.298029767E0
6.265478292E0,2.431693268E0,1.289418640E0,2.857557678E-1,2.767198753E0
6.275486292E0,3.019820251E0,1.340911560E0,2.691403198E-1,3.315085923E0
6.285494292E0,3.696413269E0,1.498982849E0,2.808160400E-1,3.998659561E0
6.295502292E0,4.495301971E0,1.752256165E0,4.067042542E-1,4.841853966E0
6.305510292E0,5.499713287E0,2.008972321E0,7.370672607E-1,5.901362908E0
6.315518292E0,6.659052429E0,2.434237976E0,1.283580780E0,7.205280938E0
6.325526292E0,7.927664337E0,3.006797333E0,1.759740601E0,8.659409854E0
6.335533292E0,9.340426483E0,3.683989105E0,2.147434387E0,1.026775618E1
6.345541292E0,1.112351852E1,4.523144073E0,2.563269653E0,1.227851164E1
6.355546250E0,1.327185104E1,5.762267303E0,2.874023438E0,1.475146655E1
6.365554250E0,1.536045776E1,6.928941193E0,3.049907684E0,1.712471389E1
6.375562250E0,1.720941284E1,7.738158417E0,3.361260223E0,1.916614349E1
6.385570250E0,1.856604172E1,8.672515411E0,4.065096588E0,2.089103729E1
6.395578250E0,1.957584183E1,1.018811371E1,4.928351440E0,2.261194136E1
6.405585250E0,2.086481140E1,1.233015930E1,5.750292206E0,2.490861384E1
6.415593250E0,2.239747421E1,1.420066956E1,6.069727936E0,2.720565133E1
6.425601250E0,2.314786377E1,1.566941528E1,5.837860107E0,2.855581872E1
6.435609250E0,2.301628738E1,1.699416046E1,5.752387848E0,2.918288781E1
6.445617250E0,2.221575211E1,1.813972824E1,5.814658356E0,2.926430649E1
6.455625250E0,2.111329468E1,1.876033768E1,5.535488892E0,2.878129808E1
6.465633250E0,1.986683670E1,1.883727768E1,4.981490936E0,2.782713573E1
6.475641250E0,1.863819168E1,1.850541779E1,4.722230072E0,2.668580397E1
6.485648250E0,1.761087799E1,1.793899567E1,4.745282135E0,2.558257789E1
6.495656250E0,1.666035461E1,1.721016129E1,4.539609833E0,2.437960469E1
6.505664250E0,1.574919937E1,1.637729324E1,4.298012238E0,2.312414158E1
6.515672250E0,1.513532593E1,1.574830124E1,4.215234375E0,2.224534297E1
6.525680250E0,1.490196121E1,1.514191223E1,4.082610168E0,2.163362336E1
6.535688250E0,1.498369125E1,1.439376801E1,3.790717163E0,2.112015856E1
6.545696250E0,1.501572464E1,1.366508331E1,3.486100616E0,2.059998510E1
6.555703250E0,1.489312958E1,1.289927582E1,3.169209595E0,1.995596439E1
6.565711250E0,1.466126175E1,1.181373322E1,2.892435150E0,1.904949001E1
6.575719250E0,1.421054901E1,1.057026901E1,2.672392731E0,1.791122478E1
6.585727250E0,1.356464218E1,9.404642944E0,2.522254944E0,1.669756259E1
6.595735250E0,1.279703842E1,8.288264465E0,2.534828796E0,1.545590105E1
6.605743250E0,1.196072754E1,7.270081787E0,2.653981018E0,1.424628751E1
6.615751250E0,1.105421265E1,6.296356659E0,2.713257751E0,1.300774739E1
6.625759250E0,1.005758514E1,5.345833282E0,2.744393005E0,1.171599955E1
6.635766250E0,9.150471497E0,4.546495514E0,2.821033630E0,1.059999909E1
6.645774250E0,8.333769836E0,3.834276581E0,2.836750946E0,9.602111878E0
6.655782250E0,7.488178253E0,3.118914185E0,2.734363861E0,8.560209400E0
6.665790250E0,6.619384918E0,2.518812103E0,2.601140900E0,7.544972173E0
6.675798250E0,5.875881042E0,2.118694153E0,2.454296265E0,6.711066465E0
6.685806250E0,5.279521179E0,1.699416046E0,2.262545013E0,5.990030778E0
6.695814250E0,4.709805908E0,1.273551636E0,1.990560608E0,5.269396265E0
6.705822250E0,4.127516785E0,1.027014313E0,1.750759277E0,4.599599032E0
6.715829250E0,3.649261322E0,9.135502625E-1,1.602866821E0,4.089115348E0
6.725837250E0,3.250041504E0,7.991880798E-1,1.479223938E0,3.659176796E0
6.735845250E0,2.901117096E0,6.801855469E-1,1.407822418E0,3.295617809E0
6.745853250E0,2.543211365E0,5.487588501E-1,1.321152649E0,2.917962413E0
6.755861250E0,2.124232635E0,4.701722717E-1,1.249451752E0,2.508895361E0
6.765869250E0,1.700912933E0,3.861968994E-1,1.193019104E0,2.113184193E0
6.775877250E0,1.332229614E0,3.043171692E-1,1.142723694E0,1.781365242E0
6.785884250E0,1.078207855E0,3.332070923E-1,1.176703033E0,1.630395404E0
6.795892250E0,8.701405334E-1,3.893403625E-1,1.166823578E0,1.506720853E0
6.805900250E0,6.509962463E-1,3.606001282E-1,1.085093536E0,1.315772225E0
6.815908250E0,4.192781067E-1,4.191284180E-1,1.027912445E0,1.186619887E0
6.825916250E0,2.353106689E-1,5.486091614E-1,9.243278503E-1,1.100329541E0
6.835924250E0,6.361770630E-2,6.191125488E-1,7.321275330E-1,9.609153372E-1
6.845932250E0,-9.385482788E-2,6.156697083E-1,5.333409119E-1,8.199453925E-1
6.855940250E0,-2.933898926E-1,5.915698242E-1,3.758683777E-1,7.598088729E-1
6.865947250E0,-4.514611816E-1,5.743556213E-1,2.559677124E-1,7.740936946E-1
6.875955250E0,-4.908293152E-1,5.795947266E-1,8.816665649E-2,7.646023954E-1
6.885963250E0,-5.387297058E-1,6.221063232E-1,-1.041833496E-1,8.295180189E-1
6.895971250E0,-5.902226257E-1,6.475534058E-1,-2.125579834E-1,9.015925119E-1
6.905979250E0,-5.632786560E-1,7.219487000E-1,-3.032693481E-1,9.646061721E-1
6.915987250E0,-4.805007935E-1,8.502319336E-1,-3.719764709E-1,1.045055907E0
6.925995250E0,-2.951861572E-1,9.351054382E-1,-4.333488464E-1,1.072076616E0
6.936002250E0,-6.167175293E-2,1.015338593E0,-5.254074097E-1,1.144888121E0
6.946010250E0,2.814147949E-1,1.231339417E0,-4.893324280E-1,1.354561653E0
6.956018250E0,9.306147766E-1,1.371747437E0,-3.387455750E-1,1.691887543E0
6.966026250E0,1.677860870E0,1.451980591E0,-1.207987976E-1,2.222173955E0
6.976034250E0,2.367476807E0,1.700314178E0,1.092727661E-1,2.916839946E0
6.986042250E0,3.148253174E0,2.110311584E0,4.544549561E-1,3.817255865E0
6.996050250E0,4.146976318E0,2.685116272E0,8.195457458E-1,5.007885503E0
7.006058250E0,5.384303284E0,3.141217804E0,1.169068909E0,6.342294006E0
7.016065250E0,6.695726166E0,3.388802948E0,1.514251099E0,7.655696617E0
7.026073250E0,7.939489746E0,3.728746033E0,1.932631073E0,8.981876601E0
7.036081250E0,8.882828064E0,4.297563171E0,2.292632446E0,1.013063903E1
7.046089250E0,9.680219879E0,5.116061096E0,2.671793976E0,1.127028044E1
7.056097250E0,1.064451462E1,5.908962250E0,3.273093567E0,1.260692936E1
7.066105250E0,1.217178864E1,6.286177826E0,3.923790436E0,1.425007374E1
7.076113250E0,1.396101791E1,6.706803131E0,4.445156250E0,1.611367877E1
7.086120250E0,1.532243683E1,7.658374329E0,5.018464050E0,1.784972686E1
7.096128250E0,1.654344772E1,9.168733521E0,6.108647003E0,1.987629002E1
7.106136250E0,1.784544022E1,1.108085724E1,6.913074188E0,2.211415222E1
7.116144250E0,1.921733734E1,1.281784515E1,7.093748474E0,2.416452930E1
7.126152250E0,2.026815216E1,1.420815399E1,6.874454498E0,2.568905908E1
7.136160250E0,2.058339661E1,1.538994644E1,6.564748535E0,2.652588529E1
7.146168250E0,2.021995239E1,1.642070297E1,6.325396271E0,2.680478686E1
7.156176250E0,1.959440323E1,1.711076797E1,6.164780273E0,2.673431380E1
7.166183250E0,1.891960648E1,1.727841934E1,5.810766449E0,2.627280516E1
7.176191250E0,1.794273788E1,1.710867233E1,5.597160645E0,2.541607206E1
7.186199250E0,1.679088318E1,1.674792252E1,5.534740448E0,2.435282362E1
7.196207250E0,1.561911987E1,1.622491013E1,5.410049744E0,2.316189225E1
7.206215250E0,1.460378128E1,1.575982727E1,5.320236511E0,2.213475773E1
7.216223250E0,1.398002838E1,1.535551804E1,5.212310944E0,2.141030857E1
7.226231250E0,1.377330826E1,1.492261826E1,4.834197235E0,2.087481782E1
7.236239250E0,1.380189880E1,1.441921509E1,4.336182861E0,2.042568619E1
7.246246250E0,1.386342087E1,1.391865601E1,3.882176971E0,2.002485259E1
7.256254250E0,1.380294662E1,1.333442093E1,3.418291626E0,1.949391789E1
7.266262250E0,1.354548203E1,1.251771927E1,2.963088226E0,1.868029097E1
7.276270250E0,1.320973022E1,1.161539566E1,2.619253235E0,1.778411866E1
7.286278250E0,1.280916321E1,1.063553329E1,2.462379456E0,1.683010823E1
7.296286250E0,1.221819214E1,9.611063690E0,2.443368988E0,1.573616270E1
7.306294250E0,1.152049301E1,8.680598602E0,2.607727203E0,1.465860814E1
7.316302250E0,1.088626190E1,7.758815460E0,2.870580597E0,1.367297146E1
7.326309250E0,1.020936951E1,6.862629089E0,3.017425232E0,1.266616591E1
7.336317250E0,9.469607849E0,6.026467896E0,3.039878540E0,1.162895738E1
7.346325250E0,8.669222260E0,5.275928650E0,2.976560211E0,1.057595142E1
7.356332500E0,7.927963715E0,4.710254974E0,2.891087952E0,9.664238207E0
7.366340500E0,7.330855408E0,4.289030914E0,2.805316315E0,8.944664712E0
7.376348500E0,6.839427338E0,3.835623779E0,2.632874908E0,8.271747480E0
7.386356500E0,6.280339966E0,3.239862671E0,2.337239685E0,7.443256650E0
7.396364500E0,5.549859009E0,2.772085419E0,2.013163605E0,6.522133109E0
7.406371500E0,4.824467468E0,2.477797394E0,1.804497528E0,5.715870678E0
7.416379500E0,4.160448303E0,2.221679993E0,1.604064331E0,4.981788279E0
7.426387500E0,3.594026184E0,2.115850067E0,1.405427399E0,4.401030776E0
7.436395500E0,3.264860687E0,2.140548706E0,1.343605957E0,4.128745698E0
7.446403500E0,3.092568970E0,2.073188782E0,1.334624634E0,3.955163394E0
7.456411500E0,2.870281219E0,1.948647766E0,1.238524475E0,3.683705372E0
7.466419500E0,2.595452728E0,1.920506287E0,1.173559570E0,3.435398278E0
7.476426500E0,2.320025482E0,1.920955353E0,1.163680115E0,3.229046162E0
7.486434500E0,2.045945435E0,1.944755859E0,1.110390930E0,3.033304484E0
7.496442500E0,1.749112701E0,2.052531738E0,9.951306152E-1,2.874468076E0
7.506450500E0,1.433269501E0,2.154918823E0,7.954458618E-1,2.707521139E0
7.516458500E0,1.096320190E0,2.204615479E0,5.511538696E-1,2.523096898E0
7.526466500E0,7.614665222E-1,2.302062836E0,3.441343689E-1,2.449031039E0
7.536474500E0,4.941224670E-1,2.358794861E0,1.770817566E-1,2.416490877E0
7.546482500E0,3.207829285E-1,2.342628479E0,3.547622681E-2,2.364755472E0
7.556489500E0,1.363664246E-1,2.271226959E0,-6.047424316E-2,2.276120567E0
7.566497500E0,-5.463638306E-2,2.186652832E0,-1.353186035E-1,2.191517024E0
7.576505500E0,-2.847079468E-1,2.113155670E0,-1.435514832E-1,2.137075696E0
7.586513500E0,-6.036946106E-1,2.079326019E0,-1.079255676E-1,2.167877258E0
7.596521500E0,-9.162446594E-1,2.062411194E0,-1.761836243E-1,2.263644159E0
7.606529500E0,-1.093027039E0,2.021995239E0,-2.275268555E-1,2.309749191E0
7.616537500E0,-1.109492798E0,1.970801697E0,-2.540217590E-1,2.275864814E0
7.626545500E0,-1.015338593E0,1.928739166E0,-3.529660034E-1,2.208060739E0
7.636552500E0,-8.048762512E-1,1.892215118E0,-4.858895874E-1,2.112910913E0
7.646560500E0,-5.228627014E-1,1.826651459E0,-5.528004456E-1,1.978794908E0
7.656568500E0,-2.796185303E-1,1.730850677E0,-5.701643372E-1,1.843669700E0
7.666576500E0,-2.320175171E-2,1.855092316E0,-5.530998230E-1,1.935930070E0
7.676584500E0,4.662803650E-1,2.228715363E0,-4.939727783E-1,2.329935332E0
7.686592500E0,1.211281128E0,2.569406891E0,-2.896476746E-1,2.855337023E0
7.696600500E0,2.013912048E0,2.859204254E0,-1.796264648E-3,3.497269497E0
7.706608500E0,2.770887909E0,3.216810608E0,3.535647583E-1,4.260363638E0
7.716615500E0,3.502716064E0,3.475472717E0,9.128018188E-1,5.018081067E0
7.726623500E0,4.354295197E0,3.724405060E0,1.281485138E0,5.871395394E0
7.736631500E0,5.255271606E0,4.251309357E0,1.583556976E0,6.942561746E0
7.746639500E0,5.902226257E0,4.806654510E0,1.889221344E0,7.842790298E0
7.756647500E0,6.464157715E0,5.270539856E0,2.102078705E0,8.601317354E0
7.766655500E0,7.024891663E0,5.840105438E0,2.229014740E0,9.403427094E0
7.776663500E0,7.627837830E0,6.333778839E0,2.270029449E0,1.017121910E1
7.786671500E0,8.253836060E0,6.959627380E0,2.497107239E0,1.108141541E1
7.796678500E0,8.800349579E0,7.576344910E0,2.743045807E0,1.193195102E1
7.806686500E0,9.367220764E0,7.869734802E0,2.768193512E0,1.254354200E1
7.816694500E0,9.971663818E0,8.111332397E0,2.787054291E0,1.315277401E1
7.826702500E0,1.077788727E1,8.425079956E0,2.972219238E0,1.399924689E1
7.836710500E0,1.184322189E1,9.108858032E0,3.282224579E0,1.529726112E1
7.846718500E0,1.321481964E1,1.078357544E1,3.782035217E0,1.747056804E1
7.856726500E0,1.482861374E1,1.271800278E1,4.412673798E0,2.002765763E1
7.866733500E0,1.636127655E1,1.433703598E1,4.955445099E0,2.231139635E1
7.876741500E0,1.801428909E1,1.592253891E1,5.402116241E0,2.464193005E1
7.886749500E0,1.936837326E1,1.718396576E1,5.671106873E0,2.650630142E1
7.896757500E0,1.969379654E1,1.846275650E1,5.520669708E0,2.755352598E1
7.906765500E0,1.914189423E1,1.970352631E1,5.128335571E0,2.794531963E1
7.916773500E0,1.846874405E1,2.017669235E1,4.601730652E0,2.773750793E1
7.926781500E0,1.783496201E1,2.016456757E1,3.852089539E0,2.719437899E1
7.936789500E0,1.686572754E1,1.994916550E1,3.099304962E0,2.630641862E1
7.946796500E0,1.568243820E1,1.967583389E1,2.864892426E0,2.532360393E1
7.956804500E0,1.514700165E1,1.926838120E1,2.984493713E0,2.469026884E1
7.966812500E0,1.517993317E1,1.851125565E1,2.959645386E0,2.412170096E1
7.976820500E0,1.527977554E1,1.754546402E1,2.880609741E0,2.344382138E1
7.986828500E0,1.512394958E1,1.636322250E1,2.832709351E0,2.246137004E1
7.996836500E0,1.464060471E1,1.495569946E1,2.618205414E0,2.109206610E1
8.006844500E0,1.389171204E1,1.350761078E1,2.387235718E0,1.952265624E1
8.016852500E0,1.304971298E1,1.207733505E1,2.341580658E0,1.793432549E1
8.026859500E0,1.219035004E1,1.068897217E1,2.263293457E0,1.637013309E1
8.036867500E0,1.128697861E1,9.312285004E0,2.140848083E0,1.478843361E1
8.046875500E0,1.039648041E1,8.080496521E0,2.082319794E0,1.333106465E1
8.056883500E0,9.469458160E0,6.842121735E0,1.999541931E0,1.185257084E1
8.066891500E0,8.521030426E0,5.686973877E0,1.875899048E0,1.041482735E1
8.076899500E0,7.729925537E0,4.800367584E0,1.797013092E0,9.274941175E0
8.086907500E0,6.989714813E0,3.930676117E0,1.603465576E0,8.177862175E0
8.096915500E0,6.097270660E0,3.081342316E0,1.309177551E0,6.955956141E0
8.106922500E0,5.159620514E0,2.437531128E0,1.129551086E0,5.817140836E0
8.116930500E0,4.312232666E0,1.882485352E0,9.650431824E-1,4.803166665E0
8.126938500E0,3.513044586E0,1.352287903E0,7.475454712E-1,3.837836509E0
8.136946500E0,2.783461761E0,9.132508850E-1,5.545967102E-1,2.981486889E0
8.146954500E0,2.107317810E0,5.495072937E-1,4.221221924E-1,2.218317778E0
8.156962500E0,1.519490204E0,3.001258850E-1,3.225791931E-1,1.582081971E0
8.166970500E0,1.104553070E0,1.508862305E-1,2.582130432E-1,1.144324305E0
8.176978500E0,8.878038025E-1,4.565505981E-2,1.905537415E-1,9.091703386E-1
8.186985500E0,8.659492493E-1,-1.194515991E-1,1.175056458E-1,8.820115439E-1
8.196993500E0,8.294252014E-1,-2.528242493E-1,1.088237000E-1,8.739043789E-1
8.207001500E0,7.795788574E-1,-1.778302002E-1,9.011260986E-2,8.046658049E-1
8.217009500E0,7.747888184E-1,7.708969116E-2,5.089416504E-2,7.802760727E-1
8.227017500E0,7.334747314E-1,2.377056885E-1,4.535568237E-2,7.723641071E-1
8.237025500E0,5.474116516E-1,3.808081055E-1,6.511459351E-2,6.700106266E-1
8.247033500E0,3.372486877E-1,6.075865173E-1,1.191522217E-1,7.050498602E-1
8.257041500E0,1.594184875E-1,8.240364075E-1,1.556762695E-1,8.536306906E-1
8.267048500E0,-4.610412598E-2,1.010099487E0,1.240919495E-1,1.018737148E0
8.277056500E0,-2.698887634E-1,1.157093811E0,3.023712158E-2,1.188537049E0
8.287064500E0,-4.189787292E-1,1.266965332E0,-1.422042847E-2,1.334521093E0
8.297072500E0,-5.363346863E-1,1.395248566E0,-1.706451416E-2,1.494879478E0
8.307080500E0,-5.959107971E-1,1.545835419E0,-1.317260742E-2,1.656771058E0
8.317088500E0,-5.493576050E-1,1.625918884E0,-3.323089600E-2,1.716540209E0
8.327096500E0,-4.816983032E-1,1.778302002E0,-3.412902832E-2,1.842703464E0
8.337104500E0,-2.603086853E-1,2.110610962E0,-6.316864014E-2,2.127540721E0
8.347111500E0,7.544311523E-2,2.424957275E0,-1.950444031E-1,2.433958046E0
8.357119042E0,4.126918030E-1,2.675236816E0,-2.426454163E-1,2.717734966E0
8.367127042E0,7.325765991E-1,3.023712158E0,-2.980302429E-1,3.125432085E0
8.377135042E0,1.074914703E0,3.403771820E0,-2.779719543E-1,3.580275496E0
8.387143042E0,1.512305145E0,3.650758209E0,-1.642085266E-1,3.955005284E0
8.397151042E0,2.003733215E0,3.719165955E0,-2.350112915E-2,4.224653181E0
8.407159042E0,2.408042450E0,3.792962494E0,1.044827271E-1,4.494012635E0
8.417167042E0,2.753524017E0,3.833977203E0,1.942959595E-1,4.724301708E0
8.427174042E0,3.193608856E0,3.872596893E0,3.812571716E-1,5.034034292E0
8.437182042E0,3.875291290E0,3.916755066E0,5.578898621E-1,5.538058679E0
8.447190042E0,4.674030304E0,4.074976044E0,6.635700989E-1,6.236370284E0
8.457198042E0,5.421126709E0,4.273014221E0,7.539820862E-1,6.943756499E0
8.467206042E0,6.099665680E0,4.520599365E0,7.888595581E-1,7.633088459E0
8.477214042E0,6.841972046E0,4.776118011E0,8.072712708E-1,8.383052645E0
8.487222042E0,7.693850555E0,4.712200928E0,9.075627136E-1,9.067736434E0
8.497230042E0,8.368647308E0,4.605772247E0,1.009351044E0,9.605528892E0
8.507237042E0,8.899892578E0,4.822671204E0,1.167422333E0,1.018965752E1
8.517245042E0,9.468859406E0,5.150190125E0,1.352287903E0,1.086335304E1
8.527253042E0,1.021715332E1,5.553152161E0,1.551972656E0,1.173185152E1
8.537261042E0,1.104942261E1,6.015839996E0,1.794019318E0,1.270820901E1
8.547269042E0,1.198662369E1,6.690786438E0,1.978136444E0,1.386934729E1
8.557277042E0,1.334789291E1,7.297923889E0,2.314187622E0,1.538770297E1
8.567285042E0,1.503742950E1,7.754923553E0,2.680775299E0,1.713037307E1
8.577293042E0,1.651949753E1,8.665030975E0,3.014730835E0,1.889616793E1
8.587300042E0,1.775502823E1,9.960886230E0,3.477418671E0,2.065315285E1
8.597308042E0,1.888293274E1,1.130015121E1,3.996539154E0,2.236584207E1
8.607316042E0,1.967568420E1,1.280257690E1,4.424798584E0,2.388759860E1
8.617324042E0,2.002790176E1,1.418824539E1,4.482279053E0,2.495023010E1
8.627332042E0,1.984004242E1,1.526405823E1,4.304897919E0,2.539982092E1
8.637340042E0,1.953707245E1,1.631128052E1,4.185146942E0,2.579283868E1
8.647348042E0,1.929457672E1,1.689087524E1,4.090393982E0,2.596755053E1
8.657356042E0,1.883593048E1,1.703218140E1,3.734134827E0,2.566770818E1
8.667364042E0,1.835123840E1,1.708277618E1,3.344046021E0,2.529371141E1
8.677371042E0,1.765743118E1,1.708157867E1,3.058739319E0,2.475724323E1
8.687379042E0,1.714100510E1,1.714549576E1,2.822680206E0,2.440798238E1
8.697387042E0,1.697170715E1,1.687411011E1,2.690355377E0,2.408344759E1
8.707395042E0,1.690764038E1,1.638507706E1,2.648143158E0,2.369286212E1
8.717403042E0,1.685435120E1,1.593047241E1,2.691403198E0,2.334722161E1
8.727411042E0,1.676917831E1,1.521361313E1,2.825823669E0,2.281763890E1
8.737419042E0,1.660452072E1,1.430964294E1,2.961890717E0,2.211896892E1
8.747427042E0,1.640588379E1,1.333726501E1,3.139571228E0,2.137504546E1
8.757434042E0,1.608495117E1,1.220412140E1,3.291505280E0,2.045727842E1
8.767442042E0,1.555235870E1,1.099134338E1,3.498375092E0,1.936295739E1
8.777450042E0,1.483684662E1,9.801467743E0,3.679199066E0,1.815866992E1
8.787458042E0,1.402643188E1,8.533155212E0,3.719764709E0,1.683425611E1
8.797466042E0,1.298489777E1,7.271578674E0,3.708837433E0,1.533749985E1
8.807474042E0,1.193228668E1,6.202202454E0,3.700903931E0,1.394788409E1
8.817482042E0,1.092113937E1,5.118156738E0,3.536396027E0,1.256872748E1
8.827490042E0,9.890083466E0,4.264032898E0,3.338208160E0,1.127560913E1
8.837497042E0,8.892108765E0,3.536545715E0,3.156486053E0,1.007671365E1
8.847505042E0,7.897726593E0,2.786156158E0,2.877466278E0,8.855312736E0
8.857513042E0,6.880142670E0,2.146087189E0,2.547402649E0,7.644037783E0
8.867521042E0,5.891598358E0,1.583856354E0,2.205064545E0,6.487051858E0
8.877529042E0,4.977299652E0,1.185235291E0,1.907932434E0,5.460631895E0
8.887537042E0,4.194876709E0,9.216334534E-1,1.690434723E0,4.615622209E0
8.897545042E0,3.505260773E0,6.860234070E-1,1.490749969E0,3.870376813E0
8.907553042E0,2.890938263E0,5.309458923E-1,1.249900818E0,3.194006831E0
8.917560042E0,2.358495483E0,5.382806396E-1,1.011446686E0,2.622073872E0
8.927568042E0,2.029928741E0,6.791377258E-1,8.901988220E-1,2.318252076E0
8.937576042E0,1.785187683E0,6.732998657E-1,7.349716187E-1,2.044605354E0
8.947584042E0,1.488504639E0,6.756948853E-1,6.312373352E-1,1.752332791E0
8.957592042E0,1.149609375E0,8.406518555E-1,7.189549255E-1,1.595366241E0
8.967600042E0,8.493338013E-1,9.830058289E-1,8.415499878E-1,1.547861346E0
8.977608042E0,6.417155457E-1,1.085243225E0,9.250762939E-1,1.563751211E0
8.987616042E0,4.906796265E-1,1.120869141E0,9.246272278E-1,1.533639344E0
8.997623042E0,2.909948730E-1,1.280437317E0,8.869056702E-1,1.584550222E0
9.007631042E0,1.841171265E-1,1.745669861E0,8.396040344E-1,1.945815334E0
9.017639042E0,3.109034729E-1,2.191293182E0,6.902146912E-1,2.318366472E0
9.027647042E0,4.041595459E-1,2.293829956E0,4.858895874E-1,2.379304415E0
9.037655042E0,1.709445190E-1,2.420017548E0,4.123924255E-1,2.460848324E0
9.047663042E0,-5.792953491E-2,2.847079468E0,3.963757324E-1,2.875122788E0
9.057671042E0,-5.733078003E-2,3.041674805E0,2.803669739E-1,3.055106885E0
9.067679042E0,-1.272354126E-1,3.057841187E0,1.598675537E-1,3.064659721E0
9.077686042E0,-2.811154175E-1,3.262914734E0,1.856140137E-2,3.275054651E0
9.087694042E0,-4.426295471E-1,3.431464233E0,-2.195933533E-1,3.466855772E0
9.097702042E0,-5.894741821E-1,3.474574585E0,-4.429289246E-1,3.551947971E0
9.107710042E0,-7.185058594E-1,3.486998749E0,-6.126759338E-1,3.612586711E0
9.117718042E0,-8.316705322E-1,3.609743500E0,-7.334747314E-1,3.776229494E0
9.127726042E0,-8.265811157E-1,3.641477509E0,-8.060737610E-1,3.820124304E0
9.137734042E0,-7.318281555E-1,3.621718597E0,-7.710466003E-1,3.774510685E0
9.147742042E0,-5.457650757E-1,3.589685211E0,-6.515950012E-1,3.688939614E0
9.157749042E0,-3.014730835E-1,3.440445557E0,-4.938230896E-1,3.488755207E0
9.167757042E0,2.754272461E-2,3.215762787E0,-3.137475586E-1,3.231149398E0
9.177765042E0,4.825964355E-1,3.113525391E0,-6.706054688E-2,3.151418220E0
9.187773042E0,9.816586304E-1,3.104843445E0,2.145039368E-1,3.263390633E0
9.197781042E0,1.475032654E0,3.058290253E0,4.486170959E-1,3.424925970E0
9.207789042E0,1.854643250E0,3.071013794E0,6.011499023E-1,3.637610275E0
9.217797042E0,2.145189056E0,3.149300995E0,7.259902954E-1,3.879045598E0
9.227805042E0,2.429148560E0,3.367996216E0,8.409512329E-1,4.236904555E0
9.237813042E0,3.036884766E0,3.817212067E0,1.011746063E0,4.981707251E0
9.247820042E0,3.968397675E0,4.111200714E0,1.250798950E0,5.849328973E0
9.257828042E0,4.982987823E0,4.371210022E0,1.442101135E0,6.783605265E0
9.267836042E0,6.111640778E0,4.681215363E0,1.784439240E0,7.902540963E0
9.277844042E0,7.168742523E0,4.706961823E0,2.049837341E0,8.817493526E0
9.287852042E0,7.891589355E0,4.665198669E0,2.044448547E0,9.392605125E0
9.297860042E0,8.344996490E0,5.051395569E0,2.129920807E0,9.984594447E0
9.307868042E0,8.741970978E0,5.421426086E0,2.333647156E0,1.054797736E1
9.317876042E0,9.118887177E0,5.564977570E0,2.218386841E0,1.091074328E1
9.327883042E0,9.570048981E0,5.890999603E0,2.085163879E0,1.142968163E1
9.337891042E0,1.011491592E1,6.197562103E0,2.068847809E0,1.204165402E1
9.347899042E0,1.081725540E1,6.900051270E0,2.176773376E0,1.301391810E1
9.357907000E0,1.190429489E1,7.602690125E0,2.377206573E0,1.432355560E1
9.367915000E0,1.326286972E1,8.173004150E0,2.481689301E0,1.577531273E1
9.377923000E0,1.481574051E1,9.122779083E0,2.597997437E0,1.759206798E1
9.387931000E0,1.630140106E1,1.002390518E1,2.774630127E0,1.933682818E1
9.397939000E0,1.737571701E1,1.080498093E1,2.886447601E0,2.066385090E1
9.407946000E0,1.829211136E1,1.192914322E1,3.086880798E0,2.205526307E1
9.417954000E0,1.895178955E1,1.299822006E1,3.567531281E0,2.325621060E1
9.427962000E0,1.903561523E1,1.377450577E1,3.858675842E0,2.381136358E1
9.437970000E0,1.889550659E1,1.461710358E1,3.955823822E0,2.421463253E1
9.447978000E0,1.867561386E1,1.521765472E1,3.931873627E0,2.440932606E1
9.457986000E0,1.819017334E1,1.552316940E1,3.741768951E0,2.420438037E1
9.467994000E0,1.763647476E1,1.589694214E1,3.341800690E0,2.397760712E1
9.478002000E0,1.713322128E1,1.615725082E1,2.752176819E0,2.371030373E1
9.488010000E0,1.663640442E1,1.624736343E1,2.195783844E0,2.335740219E1
9.498017000E0,1.617147125E1,1.631143021E1,1.880389709E0,2.304593464E1
9.508025000E0,1.589275085E1,1.623972931E1,1.803150330E0,2.279385200E1
9.518033000E0,1.578901657E1,1.592553268E1,1.990111542E0,2.251391080E1
9.528041000E0,1.574171494E1,1.536180496E1,2.193688202E0,2.210427354E1
9.538049000E0,1.559636719E1,1.465213074E1,2.415077820E0,2.153518529E1
9.548057000E0,1.555385559E1,1.379710876E1,2.810405731E0,2.098049128E1
9.558065000E0,1.551284088E1,1.280287628E1,3.126997375E0,2.035534293E1
9.568073000E0,1.532797531E1,1.162063477E1,3.239712982E0,1.950594063E1
9.578080000E0,1.490166183E1,1.029065048E1,3.408262482E0,1.842751383E1
9.588088000E0,1.396850235E1,8.994495850E0,3.582051086E0,1.699562013E1
9.598096000E0,1.287532562E1,7.881410522E0,3.572471008E0,1.551300070E1
9.608104000E0,1.192929291E1,6.895410919E0,3.591032410E0,1.423903911E1
9.618112000E0,1.088775879E1,5.820795593E0,3.561693420E0,1.284953746E1
9.628120000E0,9.683213654E0,4.856351166E0,3.357218628E0,1.134106213E1
9.638128000E0,8.547675018E0,4.081412659E0,3.150498505E0,9.982300253E0
9.648136000E0,7.535928955E0,3.326532440E0,2.921325073E0,8.740147795E0
9.658144000E0,6.566395111E0,2.577340393E0,2.584375763E0,7.512604498E0
9.668151000E0,5.564678192E0,1.981429596E0,2.240391083E0,6.317519990E0
9.678159000E0,4.626429291E0,1.526076508E0,1.947001190E0,5.246291178E0
9.688167000E0,3.847149811E0,1.119671631E0,1.667682037E0,4.339975761E0
9.698175000E0,3.203338623E0,7.557783508E-1,1.368903351E0,3.564614374E0
9.708183000E0,2.605631561E0,5.312452698E-1,1.140178986E0,2.893362316E0
9.718191000E0,2.078577576E0,3.773652649E-1,9.957293701E-1,2.335458469E0
9.728199000E0,1.660796356E0,2.478845215E-1,9.078620911E-1,1.908901477E0
9.738207000E0,1.352736969E0,1.422042847E-1,8.984317017E-1,1.630122354E0
9.748214000E0,1.132993927E0,-0.000000000E0,9.210346985E-1,1.460130184E0
9.758222000E0,1.004111938E0,-7.873626709E-2,9.654922485E-1,1.395211621E0
9.768230000E0,9.867480469E-1,-7.708969116E-2,1.044976959E0,1.439302391E0
9.778238000E0,9.819580078E-1,-9.430389404E-2,1.062939606E0,1.450163908E0
9.788246000E0,8.988807678E-1,-9.969268799E-2,1.010548553E0,1.356146617E0
9.798254000E0,8.428971863E-1,1.945953369E-3,9.292675781E-1,1.254598615E0
9.808262000E0,8.643026733E-1,1.507365417E-1,7.975415039E-1,1.185669881E0
9.818270000E0,8.711883545E-1,2.176473999E-1,5.864804077E-1,1.072519841E0
9.828277000E0,7.265890503E-1,2.888992310E-1,4.062551880E-1,8.811570186E-1
9.838285000E0,4.870870972E-1,4.376898193E-1,2.624043274E-1,7.054659802E-1
9.848293000E0,3.240760803E-1,5.848338318E-1,1.169068909E-1,6.787658932E-1
9.858301000E0,2.236349487E-1,6.701564026E-1,9.969268799E-2,7.134849867E-1
9.868309000E0,1.360670471E-1,6.786886597E-1,9.131011963E-2,6.981905729E-1
9.878317000E0,9.759704590E-2,7.696994019E-1,8.831634521E-3,7.759125920E-1
9.888325000E0,1.133143616E-1,9.225315857E-1,-5.104385376E-2,9.308652675E-1
9.898333000E0,2.692900085E-1,1.057550812E0,-1.212478638E-2,1.091365126E0
9.908341000E0,4.909790039E-1,1.243164825E0,1.212478638E-2,1.336662327E0
9.918348000E0,8.110134888E-1,1.587149506E0,3.263214111E-2,1.782652879E0
9.928356000E0,1.300345917E0,1.943708038E0,1.905537415E-1,2.346318642E0
9.938364000E0,1.917063446E0,2.270927582E0,3.758683777E-1,2.995583645E0
9.948372000E0,2.623444519E0,2.676883392E0,5.513035583E-1,3.788416748E0
9.958380000E0,3.412603455E0,3.072211304E0,6.819818115E-1,4.642137851E0
9.968388000E0,4.221670990E0,3.327580261E0,7.893086243E-1,5.433075045E0
9.978396000E0,4.978347473E0,3.573369141E0,9.749226379E-1,6.205109566E0
9.988404000E0,5.708229675E0,3.915557556E0,1.121617584E0,7.012382121E0
9.998411000E0,6.479725342E0,4.359085236E0,1.203048248E0,7.901632090E0
1.000841900E1,7.289092255E0,4.851710815E0,1.290017395E0,8.850655830E0
1.001842700E1,8.072413330E0,5.268444214E0,1.330732727E0,9.730940910E0
1.002843500E1,8.807235260E0,5.584886169E0,1.315314789E0,1.051134622E1
1.003844300E1,9.477391663E0,5.807772675E0,1.460961914E0,1.121095829E1
1.004845100E1,1.003138962E1,6.175258484E0,1.788630524E0,1.191477210E1
1.005845900E1,1.058688446E1,6.824009399E0,2.042502594E0,1.276013494E1
1.006846700E1,1.159413986E1,7.810308380E0,2.230811005E0,1.415632417E1
1.007847400E1,1.281155823E1,8.677155762E0,2.387086029E0,1.565653972E1
1.008848200E1,1.395742538E1,9.281000061E0,2.450404358E0,1.693963302E1
1.009849000E1,1.473610611E1,9.979896698E0,2.396666107E0,1.795815051E1
1.010849800E1,1.512095581E1,1.079525116E1,2.370919647E0,1.872970935E1
1.011850600E1,1.556193878E1,1.173245224E1,2.536774750E0,1.965348825E1
1.012851400E1,1.607162888E1,1.250125351E1,2.588716736E0,2.052510776E1
1.013852200E1,1.634301453E1,1.319521042E1,2.425705719E0,2.114454421E1
1.014853000E1,1.640244095E1,1.399918854E1,2.353855133E0,2.169234848E1
1.015853800E1,1.635798340E1,1.454929459E1,2.310744781E0,2.201374878E1
1.016854500E1,1.604079300E1,1.494956223E1,2.113455048E0,2.202868909E1
1.017855300E1,1.576192291E1,1.532992126E1,1.946252747E0,2.207334591E1
1.018856100E1,1.548200500E1,1.549308197E1,1.758543091E0,2.197317778E1
1.019856900E1,1.518023254E1,1.563363968E1,1.462309113E0,2.184006634E1
1.020857700E1,1.500195328E1,1.564097443E1,1.155147858E0,2.170329583E1
1.021858500E1,1.480107101E1,1.546134796E1,9.663903809E-1,2.142565972E1
1.022859300E1,1.467653000E1,1.525103531E1,9.213340759E-1,2.118592616E1
1.023860100E1,1.464973572E1,1.484403168E1,1.023721161E0,2.088080549E1
1.024860900E1,1.459509933E1,1.425994629E1,1.155297546E0,2.043765410E1
1.025861600E1,1.448477875E1,1.356539063E1,1.371747437E0,1.989246916E1
1.026862400E1,1.443059143E1,1.280572037E1,1.641486511E0,1.936292646E1
1.027863200E1,1.429437469E1,1.197255295E1,1.804048462E0,1.873301265E1
1.028864000E1,1.406041122E1,1.111319000E1,1.966760101E0,1.802959515E1
1.029864800E1,1.370699615E1,1.021311172E1,2.208507385E0,1.723562878E1
1.030865600E1,1.324236237E1,9.421108704E0,2.408341827E0,1.642916798E1
1.031866400E1,1.276979507E1,8.754694519E0,2.693798218E0,1.571524391E1
1.032867200E1,1.222283249E1,7.909851379E0,2.837649078E0,1.483292403E1
1.033867900E1,1.137289993E1,7.041806488E0,2.825823669E0,1.367169232E1
1.034868700E1,1.044303360E1,6.389013977E0,2.922223206E0,1.258633540E1
1.035869513E1,9.521699524E0,5.705385590E0,2.919678497E0,1.147774843E1
1.036870313E1,8.547076263E0,4.927902374E0,2.694846039E0,1.022736181E1
1.037871113E1,7.564818878E0,4.290228424E0,2.399061127E0,9.021531959E0
1.038871913E1,6.580016785E0,3.664379883E0,2.110012207E0,7.821537721E0
1.039872713E1,5.548212433E0,3.084934845E0,1.720522156E0,6.577209187E0
1.040873513E1,4.558171234E0,2.578837280E0,1.321601715E0,5.401292235E0
1.041874313E1,3.677702179E0,2.139800262E0,1.026565247E0,4.376993795E0
1.042875013E1,2.928061066E0,1.792223053E0,7.972421265E-1,3.524372296E0
1.043875813E1,2.274370422E0,1.446442108E0,6.303392029E-1,2.768082929E0
1.044876613E1,1.684297485E0,1.101409607E0,4.598437500E-1,2.064320086E0
1.045877412E1,1.105301514E0,8.400531006E-1,3.394940186E-1,1.429208465E0
1.046878213E1,6.015989685E-1,6.002517700E-1,2.868035889E-1,8.969279820E-1
1.047879013E1,2.222877502E-1,3.620970154E-1,2.586621094E-1,4.974255515E-1
1.048879812E1,-8.846603394E-2,1.555265808E-1,2.650987244E-1,3.198313464E-1
1.049880613E1,-3.552113342E-1,-3.891906738E-2,3.014730835E-1,4.675209149E-1
1.050881313E1,-5.869294739E-1,-1.875599670E-1,2.751278687E-1,6.748038920E-1
1.051882113E1,-8.039781189E-1,-3.291654968E-1,2.332150269E-1,8.995109720E-1
1.052882913E1,-9.877958679E-1,-3.977229309E-1,2.064207458E-1,1.084681396E0
1.053883713E1,-1.055006104E0,-4.346960449E-1,1.869612122E-1,1.156266848E0
1.054884513E1,-9.692344666E-1,-4.881349182E-1,2.281256104E-1,1.108933020E0
1.055885313E1,-8.574169922E-1,-4.866380310E-1,3.086581421E-1,1.033078080E0
1.056886113E1,-7.604187012E-1,-4.724176025E-1,3.423381042E-1,9.584416361E-1
1.057886913E1,-6.143225098E-1,-3.839515686E-1,3.775149536E-1,8.169017647E-1
1.058887613E1,-3.646417236E-1,-2.100132751E-1,3.971241760E-1,5.785989747E-1
1.059888413E1,-5.867797852E-2,-1.170565796E-1,3.695814514E-1,3.920915674E-1
1.060889213E1,2.980302429E-1,-4.266128540E-2,3.064128113E-1,4.295705086E-1
1.061890013E1,5.206173706E-1,7.873626709E-2,2.633024597E-1,5.887019888E-1
1.062890812E1,6.276448059E-1,2.601589966E-1,3.589535522E-1,7.684193898E-1
1.063891613E1,7.466473389E-1,4.848417664E-1,4.156855774E-1,9.825213923E-1
1.064892413E1,1.012644196E0,6.809339905E-1,4.288581848E-1,1.293459976E0
1.065893212E1,1.505419464E0,7.800279236E-1,5.355862427E-1,1.778084348E0
1.066893913E1,2.226769409E0,8.756790161E-1,5.927673340E-1,2.465094086E0
1.067894713E1,2.920726318E0,1.156345367E0,6.185137939E-1,3.201614616E0
1.068895513E1,3.891158295E0,1.865121460E0,7.533833313E-1,4.380339870E0
1.069896313E1,5.181624756E0,2.869233398E0,1.078058167E0,6.020294413E0
1.070897113E1,6.577771454E0,3.861519928E0,1.462009735E0,7.766330274E0
1.071897913E1,8.102201385E0,4.678071899E0,1.645827484E0,9.499409039E0
1.072898713E1,9.700278168E0,5.376669159E0,1.782493286E0,1.123304278E1
1.073899513E1,1.124431732E1,6.046226807E0,1.869761810E0,1.290300507E1
1.074900313E1,1.226624222E1,6.950196991E0,2.121837616E0,1.425721331E1
1.075901013E1,1.299477722E1,8.128845978E0,2.667902069E0,1.555827990E1
1.076901813E1,1.393751678E1,9.234746246E0,3.100801849E0,1.700440780E1
1.077902613E1,1.472293350E1,1.024125320E1,3.284918976E0,1.823290242E1
1.078903413E1,1.529579224E1,1.115794693E1,3.257376251E0,1.921123473E1
1.079904212E1,1.581880463E1,1.178304703E1,3.116219788E0,1.996961699E1
1.080905013E1,1.633822449E1,1.235336105E1,2.952460327E0,2.069444686E1
1.081905813E1,1.683773575E1,1.322544754E1,2.696043549E0,2.157986234E1
1.082906612E1,1.718441483E1,1.408211609E1,2.202819214E0,2.232627418E1
1.083907413E1,1.715597397E1,1.478685059E1,1.690883789E0,2.271205585E1
1.084908113E1,1.687186478E1,1.541045380E1,1.460961914E0,2.289708097E1
1.085908913E1,1.661185547E1,1.568139038E1,1.426832886E0,2.288876577E1
1.086909713E1,1.597163681E1,1.558199707E1,1.355131989E0,2.235460127E1
1.087910513E1,1.513667313E1,1.560235474E1,1.491797791E0,2.178939667E1
1.088911313E1,1.454884552E1,1.556732758E1,1.513802032E0,2.136123101E1
1.089912113E1,1.415666107E1,1.532363434E1,1.268462219E0,2.090056981E1
1.090912913E1,1.379561188E1,1.514251099E1,9.581575012E-1,2.050689181E1
1.091913713E1,1.363200211E1,1.512933838E1,6.801855469E-1,2.037623649E1
1.092914513E1,1.379800690E1,1.505599091E1,4.933740234E-1,2.042819802E1
1.093915212E1,1.408735519E1,1.483564911E1,5.355862427E-1,2.046550545E1
1.094916013E1,1.423943893E1,1.442834610E1,7.923023987E-1,2.028710269E1
1.095916813E1,1.423060730E1,1.395787445E1,1.110540619E0,1.996411139E1
1.096917612E1,1.414663193E1,1.337319031E1,1.457668762E0,1.952163446E1
1.097918413E1,1.409813278E1,1.274060577E1,1.873204651E0,1.909422109E1
1.098919213E1,1.408226578E1,1.193707672E1,2.264341278E0,1.859922717E1
1.099920012E1,1.390937531E1,1.100840790E1,2.534828796E0,1.791873664E1
1.100920813E1,1.357137817E1,1.017254608E1,2.841540985E0,1.719701586E1
1.101921513E1,1.311422882E1,9.373657379E0,3.130140839E0,1.642090838E1
1.102922313E1,1.255169861E1,8.609346771E0,3.309318237E0,1.557618621E1
1.103923113E1,1.193812454E1,7.802674255E0,3.388653259E0,1.465890562E1
1.104923913E1,1.116737732E1,6.887327728E0,3.307072906E0,1.353079194E1
1.105924713E1,1.036848862E1,6.134692841E0,3.256777496E0,1.247984824E1
1.106925513E1,9.555678864E0,5.355113983E0,3.160527649E0,1.140075345E1
1.107926313E1,8.644673309E0,4.477039948E0,2.853815460E0,1.014487684E1
1.108927113E1,7.657176819E0,3.731141052E0,2.535577240E0,8.887233671E0
1.109927913E1,6.606960754E0,3.110830994E0,2.229164429E0,7.635337185E0
1.110928612E1,5.536686401E0,2.541115723E0,1.884131927E0,6.376685545E0
1.111929413E1,4.516408081E0,2.002685394E0,1.600022736E0,5.193145819E0
1.112930213E1,3.546275482E0,1.539099426E0,1.302142181E0,4.079273354E0
1.113931012E1,2.646496582E0,1.190175018E0,1.104104004E0,3.104755447E0
1.114931813E1,1.863774261E0,8.933422852E-1,9.951306152E-1,2.293904941E0
1.115932613E1,1.219514008E0,6.556365967E-1,9.136999512E-1,1.658891607E0
1.116933412E1,7.384144592E-1,4.240681458E-1,8.379574585E-1,1.194680881E0
1.117934213E1,3.453318787E-1,2.151026917E-1,7.667056274E-1,8.679635900E-1
1.118934913E1,3.547622681E-2,1.160087585E-1,7.466473389E-1,7.564382614E-1
1.119935713E1,-1.742376709E-1,-4.490661621E-4,7.228468323E-1,7.435499382E-1
1.120936513E1,-3.454815674E-1,-1.546284485E-1,6.722520447E-1,7.714857627E-1
1.121937313E1,-5.349874878E-1,-2.022294617E-1,6.116281128E-1,8.373752538E-1
1.122938113E1,-7.185058594E-1,-2.094145203E-1,4.839436340E-1,8.912387739E-1
1.123938913E1,-8.827143860E-1,-2.568658447E-1,3.116519165E-1,9.707170888E-1
1.124939713E1,-1.001716919E0,-2.501298523E-1,1.857637024E-1,1.049051897E0
1.125940513E1,-1.011596375E0,-1.683998108E-1,8.472381592E-2,1.029011101E0
1.126941313E1,-9.120533752E-1,-9.011260986E-2,-1.736389160E-2,9.166586859E-1
1.127942012E1,-8.403524780E-1,5.837860107E-3,-7.978408813E-2,8.441515673E-1
1.128942813E1,-8.339158630E-1,2.418969727E-1,-1.362167358E-1,8.789111509E-1
1.129943613E1,-7.710466003E-1,6.264472961E-1,-2.047741699E-1,1.014337979E0
1.130944412E1,-6.074368286E-1,9.943821716E-1,-2.824626160E-1,1.198983125E0
1.131945213E1,-3.781137085E-1,1.263372803E0,-3.162922668E-1,1.356142180E0
1.132946013E1,-1.465452576E-1,1.630409546E0,-3.200344849E-1,1.667972683E0
1.133946812E1,1.318757629E-1,2.161205750E0,-2.691403198E-1,2.181888636E0
1.134947613E1,5.441184998E-1,2.631976776E0,-1.215472412E-1,2.690379234E0
1.135948350E1,1.170565796E0,2.957699432E0,9.580078125E-3,3.180927851E0
1.136949150E1,1.766177216E0,3.374133453E0,7.933502197E-3,3.808440817E0
1.137949950E1,2.336640930E0,3.730392609E0,2.097138977E-1,4.406778843E0
1.138950750E1,2.881358185E0,3.890709229E0,5.140310669E-1,4.868682699E0
1.139951550E1,3.404220886E0,3.995940399E0,6.876699829E-1,5.294256277E0
1.140952350E1,3.947141876E0,4.139491882E0,8.445437622E-1,5.781745083E0
1.141953150E1,4.644541626E0,4.443060608E0,1.050964508E0,6.512839694E0
1.142953950E1,5.560037842E0,4.773573303E0,1.231938171E0,7.430928242E0
1.143954750E1,6.470594330E0,4.896467743E0,1.376387787E0,8.230336000E0
1.144955450E1,7.453450470E0,5.169949036E0,1.520538025E0,9.197517753E0
1.145956250E1,8.464897156E0,5.509742432E0,1.650767212E0,1.023409878E1
1.146957050E1,9.422006836E0,5.784870300E0,1.693278809E0,1.118508517E1
1.147957850E1,1.041474243E1,6.225104828E0,1.701511688E0,1.225209909E1
1.148958650E1,1.141586060E1,6.796316986E0,1.748813324E0,1.340037857E1
1.149959450E1,1.255499176E1,7.758067017E0,1.914668427E0,1.488225041E1
1.150960250E1,1.375310028E1,8.885672150E0,2.143093414E0,1.651350315E1
1.151961050E1,1.479732880E1,9.386530609E0,2.236798553E0,1.766553606E1
1.152961850E1,1.539159302E1,9.675429840E0,2.315235443E0,1.832690354E1
1.153962550E1,1.587194412E1,1.045650558E1,2.863395538E0,1.922124224E1
1.154963350E1,1.633523071E1,1.127590164E1,3.420986023E0,2.014171953E1
1.155964150E1,1.673115738E1,1.187241119E1,3.494782562E0,2.081103746E1
1.156964950E1,1.683369415E1,1.271530838E1,3.230132904E0,2.134211997E1
1.157965750E1,1.654000488E1,1.371448059E1,3.043022003E0,2.170066179E1
1.158966550E1,1.618090164E1,1.452324875E1,2.822231140E0,2.192512989E1
1.159967350E1,1.585547836E1,1.520538025E1,2.375709686E0,2.209623903E1
1.160968150E1,1.563992661E1,1.609033997E1,1.722617798E0,2.250497182E1
1.161968850E1,1.544248718E1,1.689267151E1,1.277742920E0,2.292303183E1
1.162969650E1,1.518771698E1,1.741942612E1,1.149459686E0,2.313923963E1
1.163970450E1,1.501647308E1,1.778242126E1,8.693920898E-1,2.329087402E1
1.164971250E1,1.488130417E1,1.803015610E1,4.766088867E-1,2.338304725E1
1.165972050E1,1.480556168E1,1.806742859E1,1.859133911E-1,2.335960608E1
1.166972850E1,1.489747055E1,1.778781006E1,1.802252197E-1,2.320287259E1
1.167973650E1,1.504685989E1,1.717932541E1,2.972817993E-1,2.283912412E1
1.168974450E1,1.495345413E1,1.640318939E1,5.659730530E-1,2.220339475E1
1.169975250E1,1.459884155E1,1.546673676E1,1.116977234E0,2.129774069E1
1.170976050E1,1.432416275E1,1.427895676E1,1.745220795E0,2.030064137E1
1.171976750E1,1.409334274E1,1.301693115E1,2.316732330E0,1.932433841E1
1.172977550E1,1.363634308E1,1.174367889E1,2.735411682E0,1.820292074E1
1.173978350E1,1.300735107E1,1.057191559E1,3.025209045E0,1.703257088E1
1.174979150E1,1.235006790E1,9.440119171E0,3.333418121E0,1.589816667E1
1.175979950E1,1.164488434E1,8.174800415E0,3.482807465E0,1.464788862E1
1.176980750E1,1.082952988E1,7.008575592E0,3.425626373E0,1.334667619E1
1.177981550E1,9.905950470E0,6.036347351E0,3.204985199E0,1.203483586E1
1.178982350E1,9.004075928E0,5.146747284E0,3.002306671E0,1.079704757E1
1.179983050E1,8.122109985E0,4.242627411E0,2.778821411E0,9.575510764E0
1.180983850E1,7.231911163E0,3.417543182E0,2.496059418E0,8.379167804E0
1.181984650E1,6.367758179E0,2.754422150E0,2.212249603E0,7.282117406E0
1.182985450E1,5.639821930E0,2.171534271E0,1.968406677E0,6.355924586E0
1.183986250E1,4.979994049E0,1.615141296E0,1.721569977E0,5.511154627E0
1.184987050E1,4.304598541E0,1.164578247E0,1.503473511E0,4.705979568E0
1.185987850E1,3.645818481E0,8.140072632E-1,1.314117279E0,3.959987935E0
1.186988650E1,3.046015778E0,5.315446472E-1,1.115779724E0,3.287204925E0
1.187989450E1,2.512375488E0,2.745291138E-1,9.785151672E-1,2.710145524E0
1.188990150E1,2.014959869E0,1.751358032E-2,8.336164856E-1,2.180661928E0
1.189990950E1,1.599723358E0,-2.504292297E-1,7.605683899E-1,1.788936527E0
1.190991750E1,1.267414398E0,-4.736151123E-1,7.396119690E-1,1.541971594E0
1.191992550E1,9.954299927E-1,-6.638694763E-1,6.818321228E-1,1.377134197E0
1.192993350E1,7.406597900E-1,-8.406518555E-1,6.367758179E-1,1.288703189E0
1.193994150E1,5.164260864E-1,-9.993218994E-1,5.782475281E-1,1.264796571E0
1.194994950E1,4.159849548E-1,-1.180145874E0,4.881349182E-1,1.343154297E0
1.195995750E1,3.914360046E-1,-1.353784790E0,4.430786133E-1,1.477252200E0
1.196996450E1,3.399430847E-1,-1.463806000E0,4.549040222E-1,1.570104129E0
1.197997250E1,2.598596191E-1,-1.532962189E0,4.367916870E-1,1.615019217E0
1.198998050E1,1.586700439E-1,-1.570234680E0,3.852987671E-1,1.624582492E0
1.199998850E1,7.409591675E-2,-1.604214020E0,2.534230042E-1,1.625797049E0
1.200999650E1,3.308120728E-2,-1.613794098E0,1.481918335E-2,1.614201154E0
1.202000450E1,2.320175171E-2,-1.553020477E0,-2.035766602E-1,1.566478337E0
1.203001250E1,1.155596924E-1,-1.480421448E0,-4.480183411E-1,1.551039052E0
1.204002050E1,2.501298523E-1,-1.319506073E0,-7.622149658E-1,1.544225655E0
1.205002850E1,3.769161987E-1,-1.048719177E0,-9.948312378E-1,1.493843006E0
1.206003550E1,4.930746460E-1,-8.187973022E-1,-1.093326416E0,1.452210137E0
1.207004350E1,6.523434448E-1,-5.855822754E-1,-1.087638245E0,1.396930751E0
1.208005150E1,9.012757874E-1,-1.513352966E-1,-1.049317932E0,1.391498667E0
1.209005950E1,1.131946106E0,4.465214539E-1,-8.695417786E-1,1.495588948E0
1.210006750E1,1.418899384E0,1.054407349E0,-5.807922363E-1,1.860744458E0
1.211007550E1,2.048340454E0,1.599423981E0,-1.218466187E-1,2.601672978E0
1.212008350E1,3.063529358E0,2.154769135E0,4.011657715E-1,3.766852284E0
1.213009150E1,4.430636444E0,2.702629852E0,9.843530273E-1,5.282395129E0
1.214009950E1,6.014343109E0,3.273991699E0,1.565294952E0,7.024350003E0
1.215010650E1,7.904013519E0,4.184997253E0,2.154769135E0,9.199492472E0
1.216011450E1,9.831405487E0,5.569019165E0,2.827919312E0,1.164764508E1
1.217012250E1,1.168559967E1,6.932084656E0,3.352877655E0,1.399459988E1
1.218013050E1,1.347722397E1,8.038733368E0,3.592080231E0,1.609844217E1
1.219013850E1,1.526061539E1,9.040150909E0,3.765120392E0,1.813248031E1
1.220014650E1,1.691332855E1,9.849068756E0,3.974085846E0,1.997143451E1
1.221015450E1,1.824286377E1,1.096424973E1,4.074976044E0,2.167077018E1
1.222016250E1,1.934112991E1,1.255379425E1,4.050427094E0,2.341117289E1
1.223017050E1,1.987387207E1,1.362811020E1,3.977828064E0,2.442374449E1
1.224017750E1,1.967628296E1,1.439721085E1,3.955973511E0,2.469990926E1
1.225018550E1,1.929173264E1,1.522124725E1,3.899391174E0,2.488096798E1
1.226019350E1,1.882754791E1,1.557660828E1,3.831432495E0,2.473433162E1
1.227020150E1,1.800066742E1,1.580892517E1,3.917353821E0,2.427533323E1
1.228020950E1,1.700493805E1,1.603839798E1,4.193080444E0,2.374826418E1
1.229021750E1,1.591969482E1,1.615874771E1,4.167783051E0,2.306322238E1
1.230022550E1,1.494417343E1,1.626921799E1,4.067491608E0,2.246241887E1
1.231023350E1,1.434990921E1,1.643761780E1,3.906576233E0,2.216701403E1
1.232024150E1,1.411669418E1,1.631666931E1,3.425776062E0,2.184606815E1
1.233024850E1,1.409214523E1,1.603630234E1,2.713257751E0,2.152006779E1
1.234025650E1,1.420695648E1,1.577389801E1,2.093995514E0,2.133162648E1
1.235026450E1,1.436577621E1,1.548859131E1,1.761237488E0,2.119844203E1
1.236027163E1,1.449136505E1,1.500734207E1,1.535955963E0,2.091839233E1
1.237027962E1,1.437909851E1,1.434272415E1,1.245709534E0,2.034757977E1
1.238028763E1,1.410965881E1,1.366852615E1,1.160237274E0,1.967885234E1
1.239029563E1,1.377241013E1,1.287921753E1,1.403780823E0,1.890830837E1
1.240030362E1,1.333681595E1,1.185834045E1,1.667083282E0,1.792400805E1
1.241031163E1,1.283371216E1,1.082219513E1,1.875000916E0,1.689200117E1
1.242031863E1,1.226160187E1,9.802515564E0,2.216740265E0,1.585402564E1
1.243032663E1,1.155132889E1,8.777596893E0,2.539469147E0,1.472848634E1
1.244033463E1,1.077698914E1,7.765401764E0,2.755170593E0,1.356598409E1
1.245034263E1,1.003528152E1,6.882388000E0,2.858904877E0,1.249989908E1
1.246035063E1,9.326056366E0,6.143524475E0,2.872077484E0,1.153113392E1
1.247035863E1,8.677754517E0,5.431006165E0,2.836750946E0,1.062291897E1
1.248036663E1,7.983049164E0,4.843777313E0,2.722239075E0,9.726347629E0
1.249037463E1,7.369175720E0,4.329895935E0,2.606978760E0,8.935831682E0
1.250038163E1,6.829697571E0,3.894750824E0,2.480192413E0,8.244101364E0
1.251038963E1,6.369554443E0,3.564836884E0,2.387385406E0,7.679771799E0
1.252039763E1,5.987997894E0,3.256627808E0,2.286944275E0,7.189704971E0
1.253040563E1,5.613626404E0,2.965333557E0,2.123035126E0,6.694272377E0
1.254041362E1,5.225782928E0,2.726430359E0,1.941762085E0,6.205857693E0
1.255042163E1,4.857848053E0,2.552641754E0,1.846260681E0,5.789934899E0
1.256042963E1,4.480632477E0,2.423161011E0,1.788630524E0,5.398793923E0
1.257043762E1,4.099225616E0,2.291285248E0,1.690135345E0,4.991011544E0
1.258044563E1,3.693868561E0,2.103874969E0,1.583556976E0,4.536365013E0
1.259045263E1,3.312461700E0,1.901046753E0,1.516197052E0,4.109164730E0
1.260046063E1,2.931054840E0,1.772164764E0,1.488205261E0,3.734488630E0
1.261046863E1,2.524200897E0,1.710792389E0,1.475631409E0,3.387608127E0
1.262047663E1,2.170785828E0,1.595382385E0,1.440903625E0,3.055120181E0
1.263048463E1,1.834734650E0,1.463356934E0,1.331032104E0,2.698019869E0
1.264049263E1,1.518891449E0,1.407523041E0,1.232536926E0,2.409833940E0
1.265050063E1,1.257085876E0,1.401385803E0,1.087787933E0,2.174265315E0
1.266050863E1,1.014590149E0,1.418899384E0,8.521778870E-1,1.941359261E0
1.267051663E1,7.896080017E-1,1.489552460E0,6.174659729E-1,1.795414034E0
1.268052363E1,5.560935974E-1,1.616488495E0,4.231700134E-1,1.761064452E0
1.269053163E1,4.162843323E-1,1.720222778E0,2.950364685E-1,1.794298072E0
1.270053963E1,3.722758484E-1,1.739682312E0,1.444496155E-1,1.784922840E0
1.271054762E1,2.844085693E-1,1.710792389E0,4.894821167E-2,1.734962466E0
1.272055563E1,1.761836243E-1,1.766476593E0,-2.155517578E-2,1.775371749E0
1.273056363E1,9.954299927E-2,1.810485077E0,-6.930587769E-2,1.814543559E0
1.274057162E1,1.076261902E-1,1.794618073E0,-1.013392639E-1,1.800696274E0
1.275057963E1,6.750961304E-2,1.806293793E0,-7.679031372E-2,1.809185332E0
1.276058763E1,6.062393188E-2,1.887574768E0,-1.945953369E-3,1.888549060E0
1.277059463E1,2.246827698E-1,1.910926208E0,8.262817383E-2,1.925863115E0
1.278060263E1,5.613327026E-1,1.805695038E0,1.678010559E-1,1.898364077E0
1.279061063E1,9.123527527E-1,1.591490479E0,2.969824219E-1,1.858340132E0
1.280061863E1,1.137933655E0,1.429826660E0,4.086502075E-1,1.872509619E0
1.281062663E1,1.453028412E0,1.537303162E0,5.173242188E-1,2.177663180E0
1.282063463E1,1.919458466E0,1.741328888E0,6.119274902E-1,2.662893605E0
1.283064263E1,2.471211090E0,1.912722473E0,8.539741516E-1,3.239546784E0
1.284065063E1,3.017425232E0,2.269131317E0,1.128952332E0,3.940602153E0
1.285065763E1,3.804787903E0,2.566113739E0,1.467099152E0,4.818062954E0
1.286066563E1,4.724625092E0,2.544109497E0,1.753004608E0,5.645139551E0
1.287067363E1,5.578748932E0,2.671494598E0,1.976489868E0,6.493522560E0
1.288068162E1,6.400540009E0,3.019071808E0,2.081271973E0,7.376543907E0
1.289068963E1,7.262597351E0,3.382516022E0,2.217488708E0,8.312881034E0
1.290069763E1,8.502319336E0,4.184997253E0,2.547552338E0,9.812933252E0
1.291070562E1,1.046219376E1,5.072501678E0,3.203937378E0,1.206038914E1
1.292071363E1,1.248314117E1,6.132896576E0,3.970343628E0,1.446391588E1
1.293072163E1,1.419318512E1,7.819289703E0,4.754562836E0,1.688767785E1
1.294072863E1,1.590682159E1,9.906249847E0,5.579048309E0,1.955214922E1
1.295073663E1,1.775607605E1,1.246068787E1,6.329437866E0,2.259665379E1
1.296074463E1,1.939771225E1,1.528696060E1,6.927743683E0,2.565065374E1
1.297075263E1,2.070913513E1,1.782972290E1,7.128326569E0,2.824146484E1
1.298076063E1,2.182431610E1,1.995784744E1,6.570137329E0,3.029493608E1
1.299076863E1,2.235630981E1,2.183434525E1,5.872138824E0,3.179662302E1
1.300077663E1,2.248728745E1,2.328872086E1,5.156626740E0,3.278160178E1
1.301078463E1,2.224299545E1,2.393687302E1,4.507576447E0,3.298549654E1
1.302079263E1,2.155218201E1,2.378224457E1,3.802692261E0,3.231953240E1
1.303079963E1,2.071542206E1,2.310445404E1,3.297043762E0,3.120600912E1
1.304080763E1,1.981294876E1,2.201861206E1,2.823578339E0,2.975474433E1
1.305081562E1,1.875000916E1,2.066482727E1,2.385888519E0,2.800518512E1
1.306082363E1,1.791040512E1,1.923619812E1,2.298919373E0,2.638368738E1
1.307083163E1,1.723485992E1,1.767958511E1,2.366878052E0,2.480343198E1
1.308083962E1,1.658326492E1,1.597193619E1,2.514471130E0,2.316095823E1
1.309084763E1,1.587838074E1,1.418270691E1,2.705324249E0,2.146138228E1
1.310085563E1,1.513607437E1,1.247026794E1,2.916984100E0,1.982718150E1
1.311086362E1,1.432820435E1,1.078492264E1,3.055595856E0,1.819199445E1
1.312087063E1,1.341315720E1,9.182055817E0,3.095712433E0,1.654709553E1
1.313087863E1,1.238554413E1,7.758366394E0,3.063529358E0,1.493248689E1
1.314088663E1,1.129341522E1,6.427334290E0,2.969674530E0,1.332932182E1
1.315089463E1,1.024260040E1,5.202581177E0,2.850073242E0,1.183641126E1
1.316090263E1,9.272617493E0,4.068838806E0,2.730471954E0,1.048772432E1
1.317091063E1,8.331374817E0,3.047213287E0,2.668500824E0,9.263811948E0
1.318091863E1,7.488477631E0,2.120939484E0,2.577639771E0,8.198774805E0
1.319092663E1,6.709647217E0,1.238674164E0,2.401755524E0,7.233402315E0
1.320093463E1,5.963149567E0,4.523593140E-1,2.244432678E0,6.387586379E0
1.321094163E1,5.218897247E0,-1.526824951E-1,2.137405243E0,5.641693150E0
1.322094962E1,4.589456177E0,-6.671626282E-1,2.017803955E0,5.057642412E0
1.323095763E1,4.058210907E0,-1.154698792E0,1.894011383E0,4.624898289E0
1.324096563E1,3.466491394E0,-1.662442932E0,1.775158539E0,4.234556284E0
1.325097362E1,2.892884216E0,-2.062710571E0,1.707648926E0,3.942032324E0
1.326098163E1,2.413580933E0,-2.403701477E0,1.684447174E0,3.800067893E0
1.327098963E1,2.013013916E0,-2.817441101E0,1.642833710E0,3.832636427E0
1.328099762E1,1.540746002E0,-3.156336365E0,1.616039429E0,3.866256707E0
1.329100563E1,1.021775208E0,-3.385958862E0,1.512754211E0,3.846708632E0
1.330101263E1,5.102888489E-1,-3.552562408E0,1.378932495E0,3.844808084E0
1.331102063E1,-6.466552734E-2,-3.647614746E0,1.196012878E0,3.839234529E0
1.332102863E1,-6.164181519E-1,-3.673510895E0,1.012943573E0,3.860143561E0
1.333103663E1,-1.148711243E0,-3.684138794E0,8.446934509E-1,3.950433292E0
1.334104463E1,-1.650018768E0,-3.652704163E0,6.225553894E-1,4.056153948E0
1.335105263E1,-2.058070221E0,-3.543581085E0,4.397854614E-1,4.121411311E0
1.336106554E1,-2.395767975E0,-3.407963104E0,3.116519165E-1,4.177444629E0
1.337107354E1,-2.645748138E0,-3.274141388E0,1.951940918E-1,4.214034382E0
1.338108154E1,-2.736609192E0,-3.246898041E0,1.152603149E-1,4.247900858E0
1.339108854E1,-2.703827362E0,-3.222947845E0,1.116677856E-1,4.208389824E0
1.340109654E1,-2.625839539E0,-3.170107727E0,1.917512512E-1,4.120847586E0
1.341110454E1,-2.358495483E0,-3.160677338E0,3.279679871E-1,3.957264861E0
1.342111254E1,-2.002984772E0,-3.178490295E0,4.348457336E-1,3.782041693E0
1.343112054E1,-1.772763519E0,-3.068169708E0,5.993536377E-1,3.593825349E0
1.344112854E1,-1.485510864E0,-2.811453552E0,7.860154724E-1,3.275489876E0
1.345113654E1,-9.587562561E-1,-2.581831055E0,7.946974182E-1,2.866462827E0
1.346114454E1,-3.903881836E-1,-2.075134735E0,7.363188171E-1,2.236236236E0
1.347115254E1,3.881428528E-1,-1.242117004E0,6.239025879E-1,1.443178425E0
1.348115954E1,1.674717407E0,-7.454498291E-2,4.126918030E-1,1.726426909E0
1.349116754E1,3.612737274E0,1.306333466E0,5.492079163E-1,3.880722493E0
1.350117554E1,5.913901978E0,2.865042114E0,1.305585022E0,6.699795159E0
1.351118354E1,8.979377289E0,4.712350616E0,2.418221283E0,1.042512633E1
1.352119154E1,1.331780548E1,6.756948853E0,3.011437683E0,1.523446939E1
1.353119954E1,1.811607742E1,8.680897980E0,2.911146240E0,2.029839953E1
1.354120754E1,2.167896835E1,1.034154465E1,3.044219513E0,2.421141233E1
1.355121554E1,2.338287506E1,1.270737488E1,4.038002930E0,2.691731209E1
1.356122354E1,2.404958862E1,1.567914505E1,4.920567627E0,2.912782670E1
1.357123054E1,2.457664261E1,1.831995346E1,5.290747833E0,3.110665635E1
1.358123854E1,2.510294815E1,2.005349854E1,5.290598145E0,3.256211354E1
1.359124654E1,2.508079422E1,2.133513336E1,5.002147980E0,3.330548962E1
1.360125454E1,2.454176514E1,2.236843460E1,4.576882324E0,3.352003810E1
1.361126254E1,2.383478531E1,2.280043625E1,4.169279938E0,3.324665064E1
1.362127054E1,2.272169998E1,2.287932220E1,3.716920624E0,3.245850479E1
1.363127854E1,2.124053009E1,2.276421158E1,3.373534698E0,3.131693126E1
1.364128654E1,1.979034576E1,2.214599716E1,3.211721191E0,2.987336822E1
1.365129454E1,1.841650269E1,2.100147720E1,2.968477020E0,2.808988202E1
1.366130154E1,1.698682571E1,1.967134323E1,2.783761139E0,2.613930601E1
1.367130954E1,1.584260513E1,1.839839035E1,2.586770782E0,2.441680339E1
1.368131754E1,1.510194534E1,1.702215225E1,2.177671509E0,2.285967352E1
1.369132554E1,1.444226715E1,1.555056244E1,1.745520172E0,2.129426949E1
1.370133354E1,1.381881363E1,1.414842819E1,1.436862030E0,1.982932684E1
1.371134154E1,1.328921494E1,1.273476791E1,1.306782532E0,1.845224182E1
1.372134954E1,1.270408173E1,1.140852585E1,1.297801208E0,1.712403114E1
1.373135754E1,1.210008774E1,1.015533188E1,1.467099152E0,1.586490683E1
1.374136554E1,1.150058441E1,8.949738922E0,1.739083557E0,1.467602399E1
1.375137254E1,1.080692688E1,7.725434875E0,1.973196716E0,1.343002300E1
1.376138054E1,9.949360199E0,6.639143829E0,2.158361664E0,1.215428008E1
1.377138854E1,9.101373596E0,5.697601776E0,2.292632446E0,1.097970086E1
1.378139654E1,8.346493378E0,4.795128479E0,2.436932373E0,9.929544210E0
1.379140454E1,7.569459229E0,3.983665924E0,2.462828522E0,8.901226406E0
1.380141254E1,6.778803406E0,3.311862946E0,2.353106689E0,7.903019858E0
1.381142054E1,6.073919220E0,2.777324524E0,2.183509369E0,7.026644958E0
1.382142854E1,5.479205933E0,2.319127350E0,2.002386017E0,6.277706514E0
1.383143654E1,4.902754669E0,1.955683136E0,1.789828033E0,5.573615009E0
1.384144354E1,4.362677765E0,1.708846436E0,1.594933319E0,4.949436909E0
1.385145154E1,3.967649231E0,1.485211487E0,1.501527557E0,4.494738990E0
1.386145954E1,3.654500427E0,1.227148132E0,1.372196503E0,4.091966416E0
1.387146754E1,3.346590729E0,1.023870850E0,1.214574280E0,3.704479950E0
1.388147554E1,3.048710175E0,8.535250854E-1,1.173709259E0,3.376497035E0
1.389148354E1,2.755619659E0,6.370751953E-1,1.116079102E0,3.040548811E0
1.390149154E1,2.429148560E0,4.117936707E-1,1.066083069E0,2.684561391E0
1.391149954E1,2.014660492E0,2.818638611E-1,1.044228516E0,2.286638871E0
1.392150754E1,1.576222229E0,1.990859985E-1,9.671388245E-1,1.859964853E0
1.393151454E1,1.164578247E0,5.837860107E-2,8.659492493E-1,1.452418210E0
1.394152254E1,8.370593262E-1,-6.361770630E-2,7.854167175E-1,1.149606432E0
1.395153054E1,5.114863586E-1,-1.574725342E-1,7.147636414E-1,8.929182253E-1
1.396153854E1,1.026864624E-1,-1.148112488E-1,6.277944946E-1,6.464147739E-1
1.397154654E1,-1.788780212E-1,1.706451416E-2,5.051994324E-1,5.362042620E-1
1.398155454E1,-2.845582581E-1,1.667532349E-1,3.707789612E-1,4.962429663E-1
1.399156254E1,-2.650987244E-1,2.272274780E-1,2.359094238E-1,4.213821504E-1
1.400157054E1,-1.956431580E-1,2.433938599E-1,1.507365417E-1,3.467539780E-1
1.401157854E1,-1.140628052E-1,2.420466614E-1,1.417552185E-1,3.028059639E-1
1.402158554E1,-1.660047913E-1,3.474275208E-1,2.100132751E-1,4.385989611E-1
1.403159354E1,-1.236428833E-1,4.306544495E-1,2.272274780E-1,5.023774917E-1
1.404160154E1,-3.442840576E-2,4.037104797E-1,2.278262329E-1,4.648357333E-1
1.405160954E1,9.131011963E-3,4.251159668E-1,2.176473999E-1,4.776791301E-1
1.406161754E1,8.427474976E-2,5.307962036E-1,1.862127686E-1,5.687899774E-1
1.407162554E1,2.201921082E-1,6.803352356E-1,1.270857239E-1,7.262860170E-1
1.408163354E1,3.962260437E-1,9.041198730E-1,-1.586700439E-2,9.872586208E-1
1.409164154E1,7.809260559E-1,1.202299805E0,-2.183958435E-1,1.450195528E0
1.410164854E1,1.312171326E0,1.640588379E0,-3.835025024E-1,2.135508835E0
1.411165654E1,1.964065704E0,2.142494659E0,-3.397933960E-1,2.926311161E0
1.412166454E1,2.584824829E0,2.626587982E0,-1.844165039E-1,3.689755178E0
1.413167254E1,3.167113953E0,3.175795898E0,9.490264893E-2,4.486122701E0
1.414168054E1,4.108206940E0,3.915707245E0,5.185217285E-1,5.699034328E0
1.415168854E1,5.331463165E0,4.794529724E0,8.771759033E-1,7.223673049E0
1.416169654E1,6.977739716E0,5.943091278E0,1.305435333E0,9.258150295E0
1.417170454E1,8.979077911E0,7.335495758E0,1.800306244E0,1.173347522E1
1.418171254E1,1.132709518E1,9.064400482E0,2.350711670E0,1.469667604E1
1.419171954E1,1.411429916E1,1.110780121E1,3.070265350E0,1.822150427E1
1.420172754E1,1.697425186E1,1.315120193E1,3.762425995E0,2.179988963E1
1.421173554E1,1.917258041E1,1.495554977E1,3.992048492E0,2.464128162E1
1.422174354E1,2.022534119E1,1.670077057E1,3.869603119E0,2.651327954E1
1.423175154E1,2.042053528E1,1.841904739E1,3.688330078E0,2.774641142E1
1.424175954E1,2.017534515E1,1.949994965E1,3.317850494E0,2.825421597E1
1.425176754E1,1.969559280E1,2.006726990E1,2.611619110E0,2.823884295E1
1.426177554E1,1.895193924E1,2.052950867E1,1.974992981E0,2.800959343E1
1.427178354E1,1.799408112E1,2.058369598E1,1.987566833E0,2.741214909E1
1.428179154E1,1.688683365E1,2.031455566E1,2.411934357E0,2.652666111E1
1.429179854E1,1.588900864E1,2.000604721E1,2.819087677E0,2.570310829E1
1.430180654E1,1.516301834E1,1.940250229E1,2.991828461E0,2.480575050E1
1.431181454E1,1.464225128E1,1.848071915E1,2.808759155E0,2.374492853E1
1.432182254E1,1.424946808E1,1.755100250E1,2.363734589E0,2.273042610E1
1.433183054E1,1.394739624E1,1.664912796E1,1.909279633E0,2.180295100E1
1.434183854E1,1.366014359E1,1.554292831E1,1.571132813E0,2.075212282E1
1.435184654E1,1.332543961E1,1.430425415E1,1.448687439E0,1.960300290E1
1.436185429E1,1.303728882E1,1.306528061E1,1.476978607E0,1.851631505E1
1.437186229E1,1.268237686E1,1.169024002E1,1.688488770E0,1.733076423E1
1.438186929E1,1.201222046E1,1.037836807E1,1.918560333E0,1.599014815E1
1.439187729E1,1.120150635E1,9.240434418E0,2.184108124E0,1.468433522E1
1.440188529E1,1.051922516E1,8.060138855E0,2.519410858E0,1.348952806E1
1.441189329E1,9.829160156E0,6.929390259E0,2.665507050E0,1.231802608E1
1.442190129E1,8.930129700E0,5.913602600E0,2.656525726E0,1.103517291E1
1.443190929E1,7.976163483E0,5.041516113E0,2.607278137E0,9.789482515E0
1.444191729E1,7.114704895E0,4.297862549E0,2.479593658E0,8.674043633E0
1.445192529E1,6.333180084E0,3.609893188E0,2.252366180E0,7.629787168E0
1.446193329E1,5.588029633E0,2.961890717E0,1.990111542E0,6.630189721E0
1.447194029E1,4.860692139E0,2.386786652E0,1.777104492E0,5.699226172E0
1.448194829E1,4.164639587E0,1.841919708E0,1.538201294E0,4.806553269E0
1.449195629E1,3.566782837E0,1.357227631E0,1.356479187E0,4.050190419E0
1.450196429E1,3.055595856E0,9.123527527E-1,1.265169067E0,3.430700562E0
1.451197229E1,2.534828796E0,5.224136353E-1,1.138981476E0,2.827640684E0
1.452198029E1,2.043999481E0,2.101629639E-1,1.015338593E0,2.291945638E0
1.453198829E1,1.617386627E0,-9.505233765E-2,9.566606140E-1,1.881535006E0
1.454199629E1,1.225351868E0,-3.972738647E-1,8.460406494E-1,1.541135459E0
1.455200429E1,8.434959412E-1,-6.667135620E-1,8.244854736E-1,1.354905411E0
1.456201129E1,4.516108704E-1,-8.071215820E-1,7.942483521E-1,1.219109540E0
1.457201929E1,6.586303711E-2,-7.926017761E-1,6.170169067E-1,1.006610838E0
1.458202729E1,-2.161505127E-1,-7.933502197E-1,4.194277954E-1,9.230629940E-1
1.459203529E1,-3.716770935E-1,-7.846682739E-1,2.607577515E-1,9.065554406E-1
1.460204329E1,-4.394860840E-1,-6.469546509E-1,1.206491089E-1,7.913624617E-1
1.461205129E1,-4.778063965E-1,-4.911286926E-1,4.939727783E-3,6.852231360E-1
1.462205929E1,-5.896238708E-1,-4.020639038E-1,-7.574249268E-2,7.176688770E-1
1.463206729E1,-6.595285034E-1,-3.288661194E-1,-2.424957275E-2,7.373729132E-1
1.464207529E1,-7.238946533E-1,-2.314187622E-1,4.999603271E-2,7.616283319E-1
1.465208229E1,-7.143145752E-1,-1.657054138E-1,1.311273193E-1,7.449147403E-1
1.466209029E1,-6.143225098E-1,-4.415817261E-2,2.065704346E-1,6.496256111E-1
1.467209829E1,-5.331912231E-1,1.206491089E-1,1.808239746E-1,5.758006580E-1
1.468210629E1,-3.707789612E-1,2.408491516E-1,1.913021851E-1,4.817487705E-1
1.469211429E1,-8.292755127E-2,3.879931641E-1,2.610571289E-1,4.749384157E-1
1.470212229E1,2.823129272E-1,6.649172974E-1,3.522175598E-1,8.036621247E-1
1.471213029E1,6.845265198E-1,1.056502991E0,3.095562744E-1,1.296379656E0
1.472213829E1,1.200503540E0,1.542991333E0,2.570155334E-1,1.971823518E0
1.473214629E1,1.918859711E0,1.946103058E0,2.528242493E-1,2.744678452E0
1.474215329E1,2.690355377E0,2.322869568E0,3.799099731E-1,3.574642174E0
1.475216129E1,3.291355591E0,2.862497406E0,5.004093933E-1,4.390594787E0
1.476216929E1,4.174968109E0,3.646566925E0,7.454498291E-1,5.593165874E0
1.477217729E1,5.493725739E0,4.426295471E0,1.076710968E0,7.136695355E0
1.478218529E1,6.999444580E0,5.392835541E0,1.416504364E0,8.948820269E0
1.479219329E1,8.749605103E0,6.685547333E0,1.777703247E0,1.115402893E1
1.480220129E1,1.057984909E1,8.208181000E0,2.096091156E0,1.355363568E1
1.481220929E1,1.228091171E1,9.783355408E0,2.263143768E0,1.586368984E1
1.482221729E1,1.394844406E1,1.116288666E1,2.484832764E0,1.803728151E1
1.483222429E1,1.550864960E1,1.266890488E1,2.852168884E0,2.022756116E1
1.484223229E1,1.676992676E1,1.440409653E1,3.250490570E0,2.234444291E1
1.485224029E1,1.763946854E1,1.591984451E1,3.514092407E0,2.401959919E1
1.486224829E1,1.800830154E1,1.714295105E1,3.437751160E0,2.509975753E1
1.487225629E1,1.801803131E1,1.837009918E1,3.504212952E0,2.596901047E1
1.488226429E1,1.796743652E1,1.937810303E1,3.457061005E0,2.665128370E1
1.489227229E1,1.775787231E1,2.008762756E1,2.946921844E0,2.697293382E1
1.490228029E1,1.729847763E1,2.049702621E1,2.558928680E0,2.694278248E1
1.491228829E1,1.657024200E1,2.060689774E1,2.267035675E0,2.653971750E1
1.492229529E1,1.578557373E1,2.058668976E1,2.085313568E0,2.602584611E1
1.493230329E1,1.515613266E1,1.999422180E1,2.048340454E0,2.517286160E1
1.494231129E1,1.477457611E1,1.926778244E1,2.159559174E0,2.437620223E1
1.495231929E1,1.423674454E1,1.849808304E1,2.224524078E0,2.344808049E1
1.496232729E1,1.359293335E1,1.748079849E1,2.175875244E0,2.225040642E1
1.497233529E1,1.318727692E1,1.633463196E1,2.054328003E0,2.109371322E1
1.498234329E1,1.288281006E1,1.514221161E1,1.883084106E0,1.996996177E1
1.499235129E1,1.242596008E1,1.387809036E1,1.706451416E0,1.870609132E1
1.500235929E1,1.198003738E1,1.268117935E1,1.620679779E0,1.752027992E1
1.501236629E1,1.142424316E1,1.142304565E1,1.582658844E0,1.623280977E1
1.502237429E1,1.071816147E1,1.021715332E1,1.502126312E0,1.488373578E1
1.503238229E1,1.010383896E1,9.182804260E0,1.625170441E0,1.374964126E1
1.504239029E1,9.598938904E0,8.160430298E0,1.759740601E0,1.272120032E1
1.505239829E1,8.991053009E0,7.071145477E0,1.832339630E0,1.158436883E1
1.506240629E1,8.243208160E0,6.094127197E0,1.849853210E0,1.041685288E1
1.507241429E1,7.485633545E0,5.235961761E0,1.897903290E0,9.330168382E0
1.508242229E1,6.823260956E0,4.424798584E0,1.938468933E0,8.360226934E0
1.509243029E1,6.190077667E0,3.681893463E0,1.895208893E0,7.447497415E0
1.510243829E1,5.446424103E0,3.017425232E0,1.774559784E0,6.474368924E0
1.511244529E1,4.669988708E0,2.459984436E0,1.629212036E0,5.524006682E0
1.512245329E1,3.996389465E0,1.928589478E0,1.494641876E0,4.682364837E0
1.513246129E1,3.442840576E0,1.411864014E0,1.362915802E0,3.962833672E0
1.514246929E1,2.928659821E0,9.734257507E-1,1.240021362E0,3.325997447E0
1.515247729E1,2.420017548E0,5.447172546E-1,1.105451202E0,2.715736397E0
1.516248529E1,1.920506287E0,1.378633118E-1,1.001567230E0,2.170365777E0
1.517249329E1,1.462608490E0,-1.850152588E-1,9.268725586E-1,1.741420966E0
1.518250129E1,1.064137115E0,-4.218228149E-1,8.780740356E-1,1.442683714E0
1.519250929E1,7.403604126E-1,-6.489006042E-1,8.955876160E-1,1.330895455E0
1.520251629E1,4.793032837E-1,-8.683442688E-1,8.878038025E-1,1.331145747E0
1.521252429E1,2.779719543E-1,-1.063987427E0,8.499325562E-1,1.389864382E0
1.522253229E1,8.771759033E-2,-1.226399689E0,7.999365234E-1,1.466850031E0
1.523254029E1,-1.148112488E-1,-1.301693115E0,7.174580383E-1,1.490749015E0
1.524254829E1,-3.393443298E-1,-1.354084167E0,6.063890076E-1,1.521974420E0
1.525255629E1,-5.325924683E-1,-1.432521057E0,4.980143738E-1,1.607417069E0
1.526256429E1,-7.274871826E-1,-1.465602264E0,3.861968994E-1,1.681182811E0
1.527257229E1,-8.466394043E-1,-1.412911835E0,2.330653381E-1,1.663561717E0
1.528258029E1,-8.652008057E-1,-1.325942688E0,6.286926270E-2,1.584502758E0
1.529258729E1,-8.312214661E-1,-1.286424866E0,-7.439529419E-2,1.533412117E0
1.530259529E1,-7.954458618E-1,-1.321901093E0,-1.817221069E-1,1.553441193E0
1.531260329E1,-6.941065979E-1,-1.204844513E0,-1.739382935E-1,1.401316809E0
1.532261129E1,-5.547463989E-1,-9.547146606E-1,-1.793270874E-1,1.118651802E0
1.533261929E1,-2.957849121E-1,-7.033872986E-1,-1.582209778E-1,7.792793362E-1
1.534262729E1,1.056802368E-1,-4.828958130E-1,-1.035845947E-1,5.050608349E-1
1.535263529E1,5.590873718E-1,-2.095642090E-2,-1.496887207E-2,5.596802016E-1
1.536263875E1,1.299597473E0,7.417076111E-1,1.450483704E-1,1.503370481E0
1.537264675E1,2.595303040E0,1.490899658E0,3.454815674E-1,3.012928338E0
1.538265375E1,4.442761230E0,2.427052917E0,6.795867920E-1,5.107891094E0
1.539266175E1,6.704707489E0,3.865711212E0,1.238075409E0,7.837707344E0
1.540266975E1,9.219777374E0,5.512137451E0,1.831890564E0,1.089696183E1
1.541267775E1,1.194022018E1,7.292684784E0,2.375260620E0,1.419133441E1
1.542268575E1,1.466635117E1,9.239536285E0,2.577340393E0,1.752465608E1
1.543269375E1,1.700179459E1,1.128757736E1,2.970572662E0,2.062267499E1
1.544270175E1,1.858729752E1,1.313383804E1,3.685336304E0,2.305573756E1
1.545270975E1,1.959649887E1,1.513352966E1,4.244872742E0,2.512101576E1
1.546271775E1,2.005589355E1,1.706810669E1,4.345463562E0,2.669161265E1
1.547272475E1,2.022818527E1,1.845048203E1,4.083957367E0,2.768173539E1
1.548273275E1,2.009571075E1,1.937181610E1,3.515888672E0,2.813301127E1
1.549274075E1,1.949545898E1,1.976190491E1,2.769690399E0,2.789761623E1
1.550274875E1,1.833641922E1,1.974139755E1,2.029180298E0,2.701970799E1
1.551275675E1,1.678459625E1,1.945369583E1,1.290765839E0,2.572615458E1
1.552276475E1,1.529219971E1,1.899205582E1,9.078620911E-1,2.440028216E1
1.553277275E1,1.403241943E1,1.823537933E1,8.047265625E-1,2.302358442E1
1.554278075E1,1.306034088E1,1.738394989E1,6.131250000E-1,2.175201462E1
1.555278875E1,1.247969833E1,1.659074936E1,5.164260864E-1,2.076686136E1
1.556279575E1,1.212538513E1,1.583991074E1,4.227209473E-1,1.995260458E1
1.557280375E1,1.197000824E1,1.518756729E1,2.381547546E-1,1.933908000E1
1.558281175E1,1.202239929E1,1.462099548E1,3.158432007E-2,1.892914661E1
1.559281975E1,1.217148926E1,1.401206177E1,3.308120728E-2,1.856028341E1
1.560282775E1,1.213915649E1,1.323712326E1,1.143621826E-1,1.796089172E1
1.561283575E1,1.213436646E1,1.251906647E1,3.631448364E-1,1.743851337E1
1.562284375E1,1.204619980E1,1.174098450E1,7.816744995E-1,1.683961584E1
1.563285175E1,1.169577850E1,1.087892715E1,1.212778015E0,1.601914858E1
1.564285975E1,1.107861191E1,9.990374908E0,1.644480286E0,1.500824933E1
1.565286775E1,1.035112473E1,9.085057526E0,2.066752167E0,1.392679137E1
1.566287475E1,9.662855988E0,8.227490845E0,2.449057159E0,1.292517978E1
1.567288275E1,8.976383514E0,7.349416809E0,2.686164093E0,1.190818483E1
1.568289075E1,8.203690338E0,6.480773163E0,2.807561646E0,1.082512625E1
1.569289875E1,7.428751831E0,5.662125549E0,2.811453552E0,9.754501042E0
1.570290675E1,6.731052704E0,4.899162140E0,2.737956390E0,8.763861328E0
1.571291475E1,6.010750580E0,4.173770599E0,2.542462921E0,7.746844600E0
1.572292275E1,5.276976471E0,3.586990814E0,2.321073303E0,6.789724962E0
1.573293075E1,4.590054932E0,3.050356750E0,2.058070221E0,5.882935799E0
1.574293875E1,3.966002655E0,2.536325684E0,1.808539124E0,5.043108049E0
1.575294575E1,3.371888123E0,2.092648315E0,1.597178650E0,4.277824929E0
1.576295375E1,2.821782074E0,1.674567719E0,1.430575104E0,3.579549726E0
1.577296175E1,2.322869568E0,1.284179535E0,1.299148407E0,2.955101807E0
1.578296975E1,1.828597412E0,9.095086670E-1,1.236578522E0,2.387488419E0
1.579297775E1,1.340163116E0,5.701643372E-1,1.171014862E0,1.868796500E0
1.580298575E1,8.900491333E-1,2.177970886E-1,1.118025055E0,1.445545937E0
1.581299375E1,4.581971741E-1,-1.032852173E-1,1.094224548E0,1.190772795E0
1.582300175E1,8.876541138E-2,-4.394860840E-1,1.102158051E0,1.189865406E0
1.583300975E1,-1.939965820E-1,-7.731422424E-1,1.147663422E0,1.397324204E0
1.584301675E1,-3.781137085E-1,-1.051114197E0,1.157542877E0,1.608638102E0
1.585302475E1,-5.504054260E-1,-1.250798950E0,1.099613342E0,1.754022135E0
1.586303275E1,-7.017407227E-1,-1.345851288E0,9.952803040E-1,1.815031298E0
1.587304075E1,-7.785310364E-1,-1.381626892E0,8.967851257E-1,1.821874585E0
1.588304875E1,-7.328759766E-1,-1.328188019E0,7.930508423E-1,1.711759402E0
1.589305675E1,-6.033952332E-1,-1.245260468E0,6.671626282E-1,1.536185344E0
1.590306475E1,-4.339476013E-1,-1.142574005E0,6.405180359E-1,1.379872904E0
1.591307275E1,-1.097218323E-1,-9.897418213E-1,6.644682312E-1,1.197140670E0
1.592308075E1,2.409988403E-1,-7.203021240E-1,6.445596313E-1,9.961790548E-1
1.593308775E1,6.569837952E-1,-3.571572876E-1,6.382727051E-1,9.831485550E-1
1.594309575E1,1.288221130E0,-1.154100037E-1,7.936495972E-1,1.517469220E0
1.595310375E1,1.882036285E0,2.701881409E-1,9.295669556E-1,2.116401884E0
1.596311175E1,2.530787201E0,9.147477722E-1,1.129551086E0,2.918481283E0
1.597311975E1,3.590283966E0,1.419498138E0,1.377136230E0,4.098977692E0
1.598312775E1,4.902904358E0,1.974394226E0,1.693278809E0,5.550125839E0
1.599313575E1,6.311924286E0,2.770289154E0,2.065105591E0,7.195800948E0
1.600314375E1,7.829169159E0,3.714525604E0,2.342329102E0,8.976641677E0
1.601315175E1,9.276060333E0,4.785398712E0,2.477048950E0,1.072758629E1
1.602315875E1,1.076456497E1,5.898334351E0,2.571652222E0,1.254111647E1
1.603316675E1,1.241608063E1,7.137008514E0,2.700983276E0,1.457364949E1
1.604317475E1,1.393497208E1,8.334218903E0,2.706521759E0,1.646110299E1
1.605318275E1,1.503937546E1,9.621242523E0,2.588716736E0,1.804030422E1
1.606319075E1,1.577524521E1,1.102532272E1,2.556982727E0,1.941531002E1
1.607319875E1,1.613165405E1,1.222088654E1,2.593357086E0,2.040357398E1
1.608320675E1,1.640738068E1,1.314611252E1,2.655028839E0,2.119130938E1
1.609321475E1,1.680525330E1,1.402942566E1,2.702180786E0,2.205772209E1
1.610322275E1,1.714474731E1,1.481184860E1,2.635269928E0,2.280960033E1
1.611323075E1,1.720746689E1,1.547990936E1,2.521656189E0,2.328268156E1
1.612323775E1,1.694027252E1,1.595846420E1,2.418670349E0,2.339861917E1
1.613324575E1,1.651934784E1,1.633433258E1,2.302212524E0,2.334522342E1
1.614325375E1,1.599828140E1,1.627565460E1,2.003583527E0,2.290974220E1
1.615326175E1,1.532468216E1,1.616907623E1,1.643133087E0,2.233796759E1
1.616326975E1,1.460123657E1,1.607686798E1,1.369651794E0,2.176092230E1
1.617327775E1,1.392389511E1,1.580129105E1,1.096619568E0,2.108929179E1
1.618328575E1,1.354338638E1,1.551269119E1,9.401948547E-1,2.061433649E1
1.619329375E1,1.346375198E1,1.520418274E1,1.035097504E0,2.033497522E1
1.620330175E1,1.362960709E1,1.471470062E1,1.208886108E0,2.009353153E1
1.621330875E1,1.375280090E1,1.408436142E1,1.442250824E0,1.973800539E1
1.622331675E1,1.371507935E1,1.347542770E1,1.750010834E0,1.930681463E1
1.623332475E1,1.365535355E1,1.281530045E1,2.056124268E0,1.883953962E1
1.624333275E1,1.343531113E1,1.207074875E1,2.314337311E0,1.820897355E1
1.625334075E1,1.300944672E1,1.135808075E1,2.628084869E0,1.746878737E1
1.626334875E1,1.259450958E1,1.063598236E1,2.988535309E0,1.675342161E1
1.627335675E1,1.228285767E1,9.946665802E0,3.303330688E0,1.614672557E1
1.628336475E1,1.209065735E1,9.261091461E0,3.605851593E0,1.565100559E1
1.629337275E1,1.162258072E1,8.356372833E0,3.746409302E0,1.479692306E1
1.630337975E1,1.091380463E1,7.622299347E0,3.754642181E0,1.383141051E1
1.631338775E1,1.024379791E1,7.031477966E0,3.797602844E0,1.299226175E1
1.632339575E1,9.523196411E0,6.216871948E0,3.836222534E0,1.200239018E1
1.633340375E1,8.571924591E0,5.453908539E0,3.674409027E0,1.080390167E1
1.634341175E1,7.735464020E0,4.965324554E0,3.517984314E0,9.842157546E0
1.635341975E1,6.988217926E0,4.364923096E0,3.359014893E0,8.897793235E0
1.636342775E1,6.038293304E0,3.635190582E0,3.014581146E0,7.665722150E0
1.637343575E1,4.971012726E0,3.079695740E0,2.600392456E0,6.399807364E0
1.638344375E1,3.956721954E0,2.677033081E0,2.155218201E0,5.240908341E0
1.639345175E1,3.050506439E0,2.245330811E0,1.779649200E0,4.185003138E0
1.640345875E1,2.247276764E0,1.790277100E0,1.446442108E0,3.216759195E0
1.641346675E1,1.506467285E0,1.409169617E0,1.103954315E0,2.339640532E0
1.642347475E1,8.271798706E-1,1.054407349E0,8.150550842E-1,1.568539507E0
1.643348275E1,2.707868958E-1,7.273374939E-1,6.180647278E-1,9.921438306E-1
1.644349075E1,-8.981323242E-2,4.435276794E-1,4.725672913E-1,6.542958535E-1
1.645349875E1,-3.585044861E-1,1.660047913E-1,3.875440979E-1,5.534198091E-1
1.646350675E1,-6.637197876E-1,-9.370513916E-2,3.138972473E-1,7.401595040E-1
1.647351475E1,-9.939331055E-1,-2.519261169E-1,2.706372070E-1,1.060478328E0
1.648352275E1,-1.244512024E0,-4.556524658E-1,1.618135071E-1,1.335145295E0
1.649352975E1,-1.493594055E0,-6.650669861E-1,9.026229858E-2,1.637462848E0
1.650353775E1,-1.673519897E0,-7.361691284E-1,1.014889526E-1,1.831096349E0
1.651354575E1,-1.766027527E0,-7.355703735E-1,2.844085693E-3,1.913093069E0
1.652355375E1,-1.735491028E0,-7.373666382E-1,-6.436614990E-2,1.886738368E0
1.653356175E1,-1.592687988E0,-6.427633667E-1,-1.067280579E-1,1.720811045E0
1.654356975E1,-1.336720276E0,-4.664300537E-1,-1.070274353E-1,1.419800325E0
1.655357775E1,-9.604028320E-1,-3.655398560E-1,-1.059796143E-1,1.033065663E0
1.656358575E1,-6.144721985E-1,-2.218386841E-1,-3.936813354E-2,6.544756179E-1
1.657359375E1,-3.394940186E-1,4.939727783E-3,5.673202515E-2,3.442370001E-1
1.658360175E1,-1.062789917E-2,2.429447937E-1,6.316864014E-2,2.512476908E-1
1.659360875E1,3.659889221E-1,4.496649170E-1,1.092727661E-1,5.899889542E-1
1.660361675E1,7.620652771E-1,5.638774109E-1,1.630110168E-1,9.619115410E-1
1.661362475E1,1.287921753E0,6.794371033E-1,2.499801636E-1,1.477452978E0
1.662363275E1,1.916464691E0,9.916877747E-1,4.137396240E-1,2.197148614E0
1.663364075E1,2.681673431E0,1.415606232E0,6.637197876E-1,3.104164518E0
1.664364875E1,3.669020233E0,1.916315002E0,9.485774231E-1,4.246618865E0
1.665365675E1,4.816983032E0,2.418820038E0,1.071771240E0,5.495699182E0
1.666366475E1,5.853278046E0,2.812351685E0,1.170715485E0,6.598542310E0
1.667367275E1,6.716383209E0,3.229833527E0,1.351838837E0,7.574238989E0
1.668367975E1,7.563172302E0,3.815116425E0,1.488654327E0,8.600743009E0
1.669368775E1,8.598419495E0,4.543501740E0,1.616787872E0,9.858510480E0
1.670369575E1,9.716743927E0,5.391039276E0,1.862427063E0,1.126707822E1
1.671370375E1,1.075109299E1,6.562802582E0,2.296973419E0,1.280361141E1
1.672371175E1,1.188154221E1,7.780520325E0,2.753374329E0,1.446681070E1
1.673371975E1,1.312785049E1,8.723409576E0,3.137774963E0,1.607121542E1
1.674372775E1,1.459045898E1,9.802665253E0,3.861819305E0,1.799687161E1
1.675373575E1,1.618539230E1,1.115510284E1,4.731810150E0,2.021863672E1
1.676374375E1,1.761926056E1,1.249990631E1,5.136418762E0,2.220515251E1
1.677375075E1,1.854568405E1,1.384590729E1,5.172643433E0,2.371513832E1
1.678375875E1,1.903127426E1,1.514580414E1,5.264552307E0,2.488574480E1
1.679376675E1,1.898277512E1,1.636277344E1,5.251828766E0,2.560601123E1
1.680377475E1,1.850616623E1,1.732572098E1,4.854554901E0,2.581134439E1
