"Time (s)","Acceleration x (m/s^2)","Acceleration y (m/s^2)","Acceleration z (m/s^2)","Absolute acceleration (m/s^2)"
6.189958338E-3,3.394491119E0,-2.545905762E0,1.192719727E0,4.407582836E0
1.619695834E-2,4.961432648E0,-3.074756012E0,1.236877899E0,5.966557248E0
2.620495833E-2,6.842271423E0,-3.494932251E0,1.331930237E0,7.797773261E0
3.621295834E-2,8.964109039E0,-3.616329803E0,1.489103394E0,9.780108437E0
4.621995833E-2,1.167557053E1,-3.389102325E0,1.695224762E0,1.227512724E1
5.622795833E-2,1.516646118E1,-3.012036438E0,1.943109283E0,1.558427355E1
6.623595834E-2,1.909579010E1,-2.495011597E0,1.778002625E0,1.933999937E1
7.624295833E-2,2.274505142E1,-1.649569702E0,1.156495056E0,2.283409567E1
8.625095833E-2,2.573283829E1,-3.040177917E-1,4.974156189E-1,2.573944085E1
9.625895834E-2,2.827754654E1,1.755399628E0,1.739382935E-1,2.833251349E1
1.062659583E-1,3.071088638E1,4.309238892E0,-9.475296021E-2,3.101188579E1
1.162739583E-1,3.236764114E1,6.725065155E0,3.293151855E-3,3.305889752E1
1.262819583E-1,3.118300461E1,8.749904480E0,8.195457458E-1,3.239771998E1
1.362889583E-1,2.777294586E1,1.041998154E1,2.483335876E0,2.976708743E1
1.462969583E-1,2.503274414E1,1.179771652E1,3.250490570E0,2.786377726E1
1.563049583E-1,2.401860306E1,1.295780411E1,2.482737122E0,2.740368522E1
1.663119583E-1,2.388837387E1,1.256906250E1,1.716031494E0,2.704774487E1
1.763199583E-1,2.334919510E1,1.083761307E1,1.307680664E0,2.577496455E1
1.863279583E-1,2.189242447E1,8.982820129E0,1.016386414E0,2.368548813E1
1.963359583E-1,1.985740631E1,7.727680206E0,1.369352417E0,2.135201988E1
2.063429583E-1,1.850077744E1,7.267986145E0,1.380728760E0,1.992507968E1
2.163509583E-1,1.836096817E1,7.110663300E0,1.552571411E0,1.975087752E1
2.263589583E-1,1.814466797E1,6.938072205E0,1.571731567E0,1.948938587E1
2.363659583E-1,1.762644562E1,6.868766327E0,1.748663635E0,1.899814097E1
2.463739583E-1,1.748693573E1,6.563101959E0,1.725461884E0,1.875751709E1
2.563819583E-1,1.766132309E1,6.001619568E0,1.366807709E0,1.870320652E1
2.663889583E-1,1.782358566E1,5.392685852E0,1.237326965E0,1.866258944E1
2.763969583E-1,1.749202515E1,4.763843536E0,1.313817902E0,1.817666819E1
2.864049583E-1,1.683593948E1,4.057911530E0,1.307830353E0,1.736738105E1
2.964119583E-1,1.602687195E1,3.237317963E0,1.397194519E0,1.641014944E1
3.064199583E-1,1.495180756E1,2.347717896E0,1.748513947E0,1.523566965E1
3.164279583E-1,1.386731277E1,1.370699615E0,2.076481934E0,1.408875290E1
3.264349583E-1,1.280362473E1,5.641767883E-1,2.472857666E0,1.305243757E1
3.364429583E-1,1.161404846E1,-1.366658020E-1,2.956651611E0,1.198526545E1
3.464509583E-1,1.053928345E1,-9.012757874E-1,3.182531891E0,1.104614425E1
3.564579583E-1,9.709109802E0,-1.519340515E0,3.257825317E0,1.035319441E1
3.664659583E-1,8.847351837E0,-1.967508545E0,3.268303528E0,9.634756476E0
3.764739583E-1,7.667505341E0,-2.368075562E0,3.105442200E0,8.604777235E0
3.864809583E-1,6.395001526E0,-2.707120514E0,2.885250092E0,7.519921149E0
3.964889583E-1,5.134173431E0,-2.866389313E0,2.874322815E0,6.545048217E0
4.064969583E-1,4.191882935E0,-3.039279785E0,2.821931763E0,5.896812955E0
4.165039583E-1,3.609294434E0,-3.281625824E0,2.831212463E0,5.640198434E0
4.265119167E-1,3.120411072E0,-3.468437347E0,2.828518066E0,5.455963466E0
4.365199167E-1,2.561174011E0,-3.550616455E0,2.792143707E0,5.192548123E0
4.465279167E-1,1.958826599E0,-3.571123810E0,2.803070984E0,4.944404297E0
4.565349167E-1,1.419198761E0,-3.604803772E0,2.771037598E0,4.763127620E0
4.665429167E-1,8.843609619E-1,-3.644471283E0,2.807112579E0,4.684457949E0
4.765509167E-1,2.570155334E-1,-3.596421204E0,2.869532776E0,4.608092969E0
4.865579167E-1,-3.507206726E-1,-3.490740967E0,2.838547211E0,4.512829241E0
4.965659167E-1,-8.390052795E-1,-3.386707306E0,2.714604950E0,4.420723501E0
5.065739167E-1,-1.233584747E0,-3.302582245E0,2.499352570E0,4.321521038E0
5.165809167E-1,-1.567689972E0,-3.186723175E0,2.263143768E0,4.211255889E0
5.265889167E-1,-1.847757568E0,-3.055595856E0,2.030527496E0,4.107787236E0
5.365969167E-1,-2.012714539E0,-2.890788574E0,1.783690796E0,3.948320054E0
5.466039167E-1,-1.989662476E0,-2.726430359E0,1.556313629E0,3.716758182E0
5.566119167E-1,-1.792372742E0,-2.563569031E0,1.356628876E0,3.409534884E0
5.666199167E-1,-1.472338257E0,-2.477048950E0,1.253942413E0,3.142598132E0
5.766269167E-1,-1.029858398E0,-2.542762299E0,1.145118713E0,2.972800918E0
5.866349167E-1,-6.283932495E-1,-2.548600159E0,1.114133148E0,2.851584387E0
5.966429167E-1,-4.355941772E-2,-2.480641479E0,1.268761597E0,2.786617226E0
6.066499167E-1,8.110134888E-1,-2.473755798E0,1.322499847E0,2.919968574E0
6.166579167E-1,1.821861420E0,-2.456990662E0,1.268911285E0,3.311512946E0
6.266659167E-1,2.980452118E0,-2.351011047E0,1.400936737E0,4.046352866E0
6.366729167E-1,4.571194153E0,-2.350561981E0,1.503922577E0,5.355627015E0
6.466809167E-1,6.520290985E0,-2.633024597E0,1.357676697E0,7.161724588E0
6.566889167E-1,8.690777435E0,-3.133284302E0,1.396296387E0,9.343271726E0
6.666959167E-1,1.080034058E1,-3.670068054E0,1.535357208E0,1.150973839E1
6.767039167E-1,1.292292664E1,-4.127816162E0,1.645827484E0,1.366563746E1
6.867119167E-1,1.517095184E1,-4.166136475E0,1.879790955E0,1.584449706E1
6.967189167E-1,1.761896118E1,-3.654799805E0,2.307002563E0,1.814132342E1
7.067269167E-1,2.056019485E1,-2.978506165E0,2.711311798E0,2.095099814E1
7.167349167E-1,2.379721344E1,-1.969005432E0,3.176095276E0,2.408883416E1
7.267429167E-1,2.796784058E1,-5.020559692E-1,4.141138458E0,2.827722042E1
7.367499167E-1,3.274335983E1,1.995350647E0,5.828878784E0,3.331793609E1
7.467579167E-1,3.591466507E1,5.592220917E0,7.552095337E0,3.712371541E1
7.567659167E-1,3.499797134E1,9.451794891E0,8.320297852E0,3.719437835E1
7.667729167E-1,2.999836807E1,1.230576004E1,8.282127228E0,3.346531710E1
7.767809167E-1,2.445180222E1,1.388108414E1,7.602390747E0,2.912681708E1
7.867889167E-1,2.224224701E1,1.547721497E1,4.635410614E0,2.749088516E1
7.967959167E-1,2.321761871E1,1.457339447E1,3.626658325E0,2.765129826E1
8.068039167E-1,2.337269623E1,1.090272766E1,3.384162598E0,2.601163117E1
8.168119167E-1,2.262320480E1,8.036637726E0,2.124232635E0,2.410206020E1
8.268189167E-1,2.141551620E1,7.179819489E0,1.681603088E0,2.264954594E1
8.368269167E-1,2.061812439E1,6.654412079E0,2.340682526E0,2.179144438E1
8.468349167E-1,2.092842911E1,5.709127808E0,2.489323425E0,2.183552189E1
8.568429167E-1,2.068847809E1,4.677173767E0,2.250719604E0,2.132966992E1
8.668499167E-1,1.947914291E1,3.980372772E0,2.467319183E0,2.003417181E1
8.768579167E-1,1.801219345E1,4.088448029E0,2.501148834E0,1.863894487E1
8.868659167E-1,1.710283447E1,4.286037140E0,2.163451080E0,1.776394050E1
8.968729167E-1,1.694012283E1,3.961961060E0,2.163151703E0,1.753123277E1
9.068809167E-1,1.672008041E1,3.357967072E0,2.212399292E0,1.719685269E1
9.168889167E-1,1.628927628E1,2.767295380E0,2.058668976E0,1.665042231E1
9.268959167E-1,1.571806412E1,2.049537964E0,2.114502869E0,1.599153738E1
9.369039167E-1,1.492052261E1,1.262624359E0,2.416425018E0,1.516757480E1
9.469119167E-1,1.403795792E1,7.234455872E-1,2.789299622E0,1.433066043E1
9.569189167E-1,1.298115555E1,2.281256104E-1,3.061433716E0,1.333922101E1
9.669269167E-1,1.177241913E1,-3.480262756E-1,3.253933411E0,1.221879933E1
9.769349167E-1,1.074675201E1,-9.788145447E-1,3.407514038E0,1.131644417E1
9.869419167E-1,9.885892181E0,-1.564546509E0,3.477119293E0,1.059570803E1
9.969499167E-1,8.969946899E0,-2.199975128E0,3.527414703E0,9.886480285E0
1.006957917E0,7.832312622E0,-2.696642303E0,3.424129486E0,8.963351129E0
1.016965917E0,6.466403046E0,-2.917433167E0,3.144510956E0,7.759750884E0
1.026972917E0,5.164560242E0,-2.956501923E0,2.882855072E0,6.612445801E0
1.036980917E0,3.991150360E0,-2.980152740E0,2.647694092E0,5.640999518E0
1.046988917E0,2.887196045E0,-3.021017761E0,2.280507660E0,4.760584471E0
1.056995917E0,1.899100800E0,-3.053799591E0,1.901495819E0,4.067918650E0
1.067003917E0,1.080004120E0,-3.010988617E0,1.644929352E0,3.596978443E0
1.077011917E0,4.308041382E-1,-2.923570404E0,1.414558411E0,3.276252678E0
1.087018917E0,-3.218307495E-2,-2.909200287E0,1.295256500E0,3.184677607E0
1.097026917E0,-4.752616882E-1,-2.895578613E0,1.278641052E0,3.200808041E0
1.107034917E0,-8.193960571E-1,-2.866838379E0,1.338815918E0,3.268424735E0
1.117041917E0,-9.791139221E-1,-2.976859589E0,1.374591522E0,3.421967115E0
1.127049917E0,-1.173409882E0,-3.154839478E0,1.292412415E0,3.605583549E0
1.137057917E0,-1.444496155E0,-3.225193176E0,1.222358093E0,3.739331421E0
1.147064917E0,-1.757046204E0,-3.177442474E0,1.179696808E0,3.817726627E0
1.157072917E0,-2.041005707E0,-3.050506439E0,1.223106537E0,3.868757350E0
1.167080917E0,-2.154020691E0,-2.934497681E0,1.268162842E0,3.854778692E0
1.177088917E0,-2.098935242E0,-2.877615967E0,1.362766113E0,3.813572378E0
1.187095917E0,-1.952539673E0,-2.798280945E0,1.529968414E0,3.739463968E0
1.197103917E0,-1.641935577E0,-2.765050049E0,1.666783905E0,3.622101986E0
1.207111917E0,-1.205592957E0,-2.813998260E0,1.803599396E0,3.553169200E0
1.217118917E0,-7.186555481E-1,-2.838547211E0,1.951042786E0,3.518576987E0
1.227126917E0,-1.197509766E-2,-2.919528809E0,2.070494385E0,3.579209251E0
1.237134917E0,9.961784363E-1,-3.063529358E0,1.976190491E0,3.779274065E0
1.247141917E0,2.194885712E0,-3.285218353E0,1.933229828E0,4.398586191E0
1.257149917E0,3.495980072E0,-3.579805756E0,1.913321228E0,5.357021937E0
1.267157917E0,4.706363068E0,-3.770509186E0,1.881437531E0,6.317151259E0
1.277164917E0,5.750142517E0,-3.771706696E0,1.885329437E0,7.130524346E0
1.287172917E0,7.165149994E0,-3.797752533E0,2.018103333E0,8.356736193E0
1.297180917E0,9.246122589E0,-4.050277405E0,2.162852325E0,1.032344226E1
1.307187917E0,1.191911407E1,-4.368365936E0,2.206411743E0,1.288472561E1
1.317195917E0,1.496498016E1,-4.557722168E0,2.110760651E0,1.578539747E1
1.327203917E0,1.815828964E1,-4.317621460E0,2.236349487E0,1.879804769E1
1.337211917E0,2.176189590E1,-3.005749512E0,2.873274994E0,2.215559416E1
1.347218917E0,2.530936890E1,-8.178991699E-1,3.531007233E0,2.556757957E1
1.357226917E0,2.852677826E1,1.797911224E0,3.810925140E0,2.883630894E1
1.367234917E0,3.107882126E1,4.589456177E0,4.099375305E0,3.168218927E1
1.377241917E0,3.240431488E1,7.515271912E0,4.301754456E0,3.354137782E1
1.387249917E0,3.153103088E1,1.031714539E1,3.438349915E0,3.335373514E1
1.397257917E0,2.820075623E1,1.167137924E1,3.156635742E0,3.068335207E1
1.407264917E0,2.519994644E1,1.193438232E1,3.907174988E0,2.815551098E1
1.417272917E0,2.460179031E1,1.267713776E1,2.917433167E0,2.782928897E1
1.427276792E0,2.504561737E1,1.291843597E1,1.655557251E0,2.822959099E1
1.437284792E0,2.472228973E1,1.191971283E1,1.382674713E0,2.748059230E1
1.447291792E0,2.395932632E1,1.073821976E1,1.222208405E0,2.628407265E1
1.457299792E0,2.261182846E1,9.715995483E0,1.393452301E0,2.465029541E1
1.467307792E0,2.142165344E1,8.650960236E0,2.028731232E0,2.319142298E1
1.477314792E0,2.079969681E1,7.766748962E0,2.575244751E0,2.235132350E1
1.487322792E0,2.037622742E1,6.863826599E0,3.027604065E0,2.171334027E1
1.497330792E0,1.990006760E1,5.804180145E0,3.193159790E0,2.097373279E1
1.507337792E0,1.898487076E1,4.929698639E0,3.154390411E0,1.986649001E1
1.517345792E0,1.812326248E1,4.188440094E0,3.231031036E0,1.887949244E1
1.527353792E0,1.756537262E1,3.404819641E0,3.241359558E0,1.818355091E1
1.537360792E0,1.710642700E1,2.447859650E0,3.200344849E0,1.757452898E1
1.547368792E0,1.641396698E1,1.486858063E0,3.131488037E0,1.677603279E1
1.557376792E0,1.556717789E1,6.069877625E-1,3.158581696E0,1.589597747E1
1.567384792E0,1.463910782E1,-2.963836670E-1,3.212469635E0,1.499037298E1
1.577391792E0,1.353919510E1,-1.164278870E0,3.243006134E0,1.397077084E1
1.587399792E0,1.241937378E1,-1.884580994E0,3.240162048E0,1.297270753E1
1.597407792E0,1.136197266E1,-2.415826263E0,3.309467926E0,1.207821250E1
1.607414792E0,1.034289185E1,-2.880460052E0,3.404370575E0,1.126331216E1
1.617422792E0,9.309291229E0,-3.382216644E0,3.314856720E0,1.044464301E1
1.627430792E0,8.151898041E0,-3.818858643E0,2.976560211E0,9.481404626E0
1.637437792E0,6.913223877E0,-4.074526978E0,2.638862457E0,8.447368202E0
1.647445792E0,5.682483215E0,-4.155508575E0,2.411934357E0,7.441525002E0
1.657453792E0,4.468358002E0,-4.051025848E0,2.207309875E0,6.422557944E0
1.667460792E0,3.385060730E0,-3.910468140E0,1.993554382E0,5.542982617E0
1.677468792E0,2.538271637E0,-3.770958252E0,1.797761536E0,4.888240540E0
1.687476792E0,1.939816132E0,-3.551813965E0,1.701960754E0,4.390323391E0
1.697484792E0,1.549278259E0,-3.375031586E0,1.619781647E0,4.051517483E0
1.707491792E0,1.190025330E0,-3.209924927E0,1.556463318E0,3.760632444E0
1.717499792E0,8.896000671E-1,-2.876867523E0,1.646575928E0,3.432050016E0
1.727507792E0,6.969506836E-1,-2.571652222E0,1.713187408E0,3.167672095E0
1.737514792E0,4.760101318E-1,-2.510429535E0,1.679357758E0,3.057627278E0
1.747522792E0,8.681945801E-2,-2.424208832E0,1.757495270E0,2.995515932E0
1.757530792E0,-3.571572876E-1,-2.161804504E0,1.871258698E0,2.881417907E0
1.767537792E0,-6.968009949E-1,-1.944456482E0,1.799408112E0,2.739399969E0
1.777545792E0,-9.086105347E-1,-1.848206635E0,1.731748810E0,2.690798173E0
1.787553792E0,-1.063089294E0,-1.798509979E0,1.725012817E0,2.709329477E0
1.797560792E0,-1.187480621E0,-1.726659393E0,1.677561493E0,2.684338922E0
1.807568792E0,-1.285227356E0,-1.576521606E0,1.654210052E0,2.621762886E0
1.817576792E0,-1.243913269E0,-1.426683197E0,1.680106201E0,2.530909325E0
1.827584792E0,-1.009351044E0,-1.372346191E0,1.624122620E0,2.353698766E0
1.837591792E0,-6.334826660E-1,-1.464404755E0,1.557211761E0,2.229504439E0
1.847599792E0,-2.817141724E-1,-1.660347290E0,1.557511139E0,2.293895583E0
1.857607792E0,1.312770081E-1,-1.896107025E0,1.528770905E0,2.439179367E0
1.867614792E0,5.968089294E-1,-2.089504852E0,1.582359467E0,2.688135582E0
1.877622792E0,1.209634552E0,-2.349364471E0,1.790127411E0,3.191752703E0
1.887630792E0,2.149829407E0,-2.820285187E0,1.868713989E0,4.008474396E0
1.897637792E0,3.238216095E0,-3.277883606E0,1.899250488E0,4.983745261E0
1.907645792E0,4.485422516E0,-3.695365448E0,1.961520996E0,6.133702435E0
1.917653792E0,5.950276337E0,-4.034260712E0,2.091750183E0,7.487086670E0
1.927661792E0,7.580985260E0,-4.362378387E0,2.059567108E0,8.985738666E0
1.937668792E0,9.414372711E0,-4.776567078E0,1.939217377E0,1.073343238E1
1.947676792E0,1.182241516E1,-5.114264832E0,1.963916016E0,1.303004878E1
1.957684792E0,1.450319046E1,-4.808301086E0,2.221081238E0,1.544006136E1
1.967691792E0,1.809557007E1,-4.024231567E0,2.731220398E0,1.873776029E1
1.977699792E0,2.220602234E1,-2.836900635E0,3.495680695E0,2.265778491E1
1.987707792E0,2.661166077E1,-1.030157776E0,4.509821777E0,2.701074242E1
1.997714792E0,3.079007172E1,1.831591187E0,5.442083130E0,3.132091173E1
2.007722792E0,3.352383682E1,5.045707397E0,6.277346191E0,3.447770111E1
2.017730792E0,3.308839233E1,7.544760590E0,4.989424438E0,3.430247040E1
2.027738792E0,2.923420715E1,9.162596283E0,3.530109100E0,3.083915869E1
2.037745792E0,2.436438400E1,1.011057495E1,6.257736969E0,2.711099787E1
2.047753792E0,2.181668198E1,1.099104401E1,6.530619507E0,2.528674854E1
2.057761792E0,2.194885712E1,1.160476776E1,3.009791107E0,2.500963426E1
2.067768792E0,2.238040970E1,1.060005707E1,1.641636200E0,2.481811672E1
2.077776792E0,2.272035278E1,8.889863434E0,1.283431091E0,2.443135890E1
2.087784792E0,2.246857635E1,8.191715240E0,3.667373657E-1,2.391810231E1
2.097791792E0,2.120610168E1,8.268056488E0,1.993853760E-1,2.276179389E1
2.107799792E0,1.987896149E1,8.190368042E0,6.119274902E-1,2.150882827E1
2.117807792E0,1.967972580E1,7.776778107E0,1.003513184E0,2.118435564E1
2.127815792E0,1.922332489E1,7.580087128E0,1.629810791E0,2.072800579E1
2.137822792E0,1.843521378E1,7.676486664E0,2.448009338E0,2.011910297E1
2.147830792E0,1.753902740E1,7.574848022E0,2.961291962E0,1.933300429E1
2.157838792E0,1.705613159E1,6.848408661E0,3.182681580E0,1.865319780E1
2.167845792E0,1.722812393E1,5.714366913E0,3.297193451E0,1.844813617E1
2.177853792E0,1.723515930E1,4.671335907E0,3.463198242E0,1.818971790E1
2.187861792E0,1.700553680E1,3.815116425E0,3.644920349E0,1.780530370E1
2.197868792E0,1.678908691E1,2.917433167E0,3.646417236E0,1.742645157E1
2.207876792E0,1.651006714E1,1.933229828E0,3.576063538E0,1.700317397E1
2.217884792E0,1.591146194E1,9.729766846E-1,3.655099182E0,1.635484805E1
2.227892792E0,1.513248184E1,1.140628052E-1,3.814517670E0,1.560626676E1
2.237899792E0,1.411534698E1,-6.801855469E-1,4.035009155E0,1.469649522E1
2.247907792E0,1.291229874E1,-1.448837128E0,4.215833130E0,1.366015507E1
2.257915792E0,1.171808212E1,-2.124981079E0,4.307891693E0,1.266439592E1
2.267922792E0,1.055979080E1,-2.732717285E0,4.394411774E0,1.175958249E1
2.277930792E0,9.477241974E0,-3.303929443E0,4.328099670E0,1.093007374E1
2.287938792E0,8.344248047E0,-3.807931366E0,4.070036316E0,1.003454096E1
2.297946792E0,7.109316101E0,-4.137845306E0,3.674858093E0,9.009368525E0
2.307953792E0,5.818550262E0,-4.238585815E0,3.233126678E0,7.891403233E0
2.317961792E0,4.635111237E0,-4.181704102E0,2.813549194E0,6.847405672E0
2.327969792E0,3.621119843E0,-4.161645813E0,2.436034241E0,6.030428476E0
2.337976792E0,2.707419891E0,-4.045936432E0,2.069296875E0,5.289774441E0
2.347984792E0,1.939666443E0,-3.862118683E0,1.807640991E0,4.684637935E0
2.357992792E0,1.312620392E0,-3.767964478E0,1.639690247E0,4.313828080E0
2.367999792E0,8.286767578E-1,-3.676354980E0,1.492546234E0,4.053391836E0
2.378007792E0,4.842430115E-1,-3.580554199E0,1.328337708E0,3.849589684E0
2.388015792E0,1.594184875E-1,-3.460653534E0,1.201102295E0,3.666631132E0
2.398023792E0,-2.351609802E-1,-3.275937653E0,1.093925171E0,3.461753959E0
2.408030792E0,-6.469546509E-1,-3.048410797E0,1.022823029E0,3.279866713E0
2.418038792E0,-1.087189178E0,-2.811752930E0,1.030307465E0,3.185823021E0
2.428050417E0,-1.516346741E0,-2.575993195E0,1.023721161E0,3.159597030E0
2.438057417E0,-1.874851227E0,-2.379601593E0,9.858499146E-1,3.185823429E0
2.448065417E0,-2.146236877E0,-2.172881470E0,1.042282562E0,3.227088402E0
2.458073417E0,-2.249522095E0,-1.957030334E0,1.061891785E0,3.165111617E0
2.468080417E0,-2.169139252E0,-1.871707764E0,1.126856689E0,3.078678457E0
2.478088417E0,-2.016456757E0,-1.857187958E0,1.255439301E0,3.015190342E0
2.488096417E0,-1.649270325E0,-1.865720215E0,1.259331207E0,2.790505261E0
2.498104417E0,-1.119222565E0,-1.958976288E0,1.211580505E0,2.560893314E0
2.508111417E0,-4.869374084E-1,-2.150577850E0,1.210981750E0,2.515664908E0
2.518119417E0,2.725831604E-1,-2.420167236E0,1.272204437E0,2.747729092E0
2.528127417E0,1.199455719E0,-2.686164093E0,1.359772339E0,3.240856734E0
2.538134417E0,2.369572449E0,-2.959495697E0,1.363664246E0,4.029028238E0
2.548142417E0,3.707041168E0,-3.200045471E0,1.372495880E0,5.085881456E0
2.558150417E0,5.334906006E0,-3.429368591E0,1.459465027E0,6.507828301E0
2.568157417E0,7.413333893E0,-3.736380157E0,1.456471252E0,8.428485309E0
2.578165417E0,9.346114655E0,-4.102219391E0,1.500629425E0,1.031648931E1
2.588173417E0,1.121288269E1,-4.533622284E0,1.448537750E0,1.218116295E1
2.598181417E0,1.324535614E1,-4.796325989E0,1.417103119E0,1.415812076E1
2.608188417E0,1.576910797E1,-4.875361633E0,1.700314178E0,1.659291974E1
2.618196417E0,1.893203064E1,-4.599185944E0,1.964365082E0,1.958144595E1
2.628204417E0,2.227667542E1,-3.390150146E0,2.333347778E0,2.265365086E1
2.638211417E0,2.603895172E1,-1.090632019E0,2.929258575E0,2.622588494E1
2.648219417E0,2.964944366E1,1.353186035E0,3.241808624E0,2.985682410E1
2.658227417E0,3.204027191E1,3.617677002E0,2.583777008E0,3.234721804E1
2.668235417E0,3.261103500E1,5.717660065E0,1.867366791E0,3.316109617E1
2.678242417E0,3.031855225E1,7.666756897E0,1.571731567E0,3.131236356E1
2.688250417E0,2.629551819E1,9.813293152E0,2.226020966E0,2.815510910E1
2.698258417E0,2.333692062E1,1.138322845E1,1.852547607E0,2.603116761E1
2.708265417E0,2.227532822E1,1.181822388E1,1.302291870E-2,2.521628110E1
2.718273417E0,2.237262589E1,1.030442184E1,-4.465214539E-1,2.463564247E1
2.728281417E0,2.176518906E1,8.411158905E0,-7.819738770E-1,2.334700263E1
2.738289417E0,2.082304825E1,7.296876068E0,-1.096769257E0,2.209177769E1
2.748296417E0,1.944546295E1,6.943161621E0,-1.145567780E0,2.067959981E1
2.758304417E0,1.846575027E1,6.894213409E0,-6.539900208E-1,1.972160781E1
2.768312417E0,1.789378967E1,6.955286407E0,8.981323242E-3,1.919801548E1
2.778319417E0,1.737646545E1,7.244485016E0,5.114863586E-1,1.883310206E1
2.788327417E0,1.703412735E1,7.292834473E0,9.595046997E-1,1.855444902E1
2.798335417E0,1.714070572E1,7.005282440E0,1.116079102E0,1.855056353E1
2.808342417E0,1.733545074E1,6.615792389E0,1.131796417E0,1.858944659E1
2.818350417E0,1.741224106E1,6.172564087E0,1.303040314E0,1.851984342E1
2.828358417E0,1.745490234E1,5.445226593E0,1.604064331E0,1.835475772E1
2.838366417E0,1.739532623E1,4.378395081E0,1.766326904E0,1.802463950E1
2.848373417E0,1.673415115E1,3.277434540E0,1.873354340E0,1.715467425E1
2.858381417E0,1.576551544E1,2.351160736E0,2.153871002E0,1.608473171E1
2.868389417E0,1.461470856E1,1.543141022E0,2.476300507E0,1.490312231E1
2.878396417E0,1.348201401E1,8.027806091E-1,2.774630127E0,1.378795600E1
2.888404417E0,1.242820541E1,1.907034302E-1,3.171454926E0,1.282789086E1
2.898412417E0,1.150477570E1,-2.878514099E-1,3.476071472E0,1.202188817E1
2.908420417E0,1.082324295E1,-7.279362488E-1,3.616329803E0,1.143461064E1
2.918427417E0,1.017374359E1,-1.207987976E0,3.633993073E0,1.087061172E1
2.928435417E0,9.393865356E0,-1.674268341E0,3.539090424E0,1.017708415E1
2.938443417E0,8.541238403E0,-2.029180298E0,3.425925751E0,9.423762168E0
2.948450417E0,7.696245575E0,-2.226919098E0,3.318149872E0,8.671878873E0
2.958458417E0,6.991361389E0,-2.374063110E0,3.210823059E0,8.051378419E0
2.968466417E0,6.360423431E0,-2.622546387E0,3.111130371E0,7.550620369E0
2.978474417E0,5.756130066E0,-2.863694916E0,3.044818268E0,7.113698067E0
2.988481417E0,5.184618530E0,-2.997666321E0,2.959346008E0,6.680119870E0
2.998489417E0,4.437372437E0,-3.072510681E0,2.824177094E0,6.091516419E0
3.008497417E0,3.529360657E0,-3.067720642E0,2.682870941E0,5.391205159E0
3.018504417E0,2.681224365E0,-2.957998810E0,2.593656464E0,4.760858631E0
3.028512417E0,1.980980530E0,-2.746638336E0,2.442321167E0,4.175313005E0
3.038520417E0,1.376387787E0,-2.536026306E0,2.279759216E0,3.677386959E0
3.048527417E0,8.478369141E-1,-2.420466614E0,2.141746216E0,3.341341484E0
3.058535417E0,3.996688843E-1,-2.332299957E0,1.966311035E0,3.076643852E0
3.068543417E0,2.679428101E-2,-2.193987579E0,1.779050446E0,2.824769003E0
3.078551417E0,-2.730322266E-1,-2.099234619E0,1.621727600E0,2.666708269E0
3.088558417E0,-5.569917297E-1,-2.085014191E0,1.472188568E0,2.612443902E0
3.098566417E0,-8.186476135E-1,-2.118694153E0,1.299896851E0,2.617017511E0
3.108574417E0,-1.073567505E0,-2.083068237E0,1.241817627E0,2.652137155E0
3.118581417E0,-1.221160583E0,-1.974843292E0,1.315464478E0,2.668648720E0
3.128589417E0,-1.168769531E0,-1.856439514E0,1.351988525E0,2.576870750E0
3.138597417E0,-8.815168762E-1,-1.871109009E0,1.379381561E0,2.486124377E0
3.148605417E0,-3.882925415E-1,-1.979034576E0,1.375489655E0,2.441172002E0
3.158612417E0,9.415420532E-2,-2.043849792E0,1.331481171E0,2.441112266E0
3.168620417E0,7.128176880E-1,-2.089055786E0,1.355131989E0,2.590105372E0
3.178628417E0,1.510209503E0,-2.108365631E0,1.365011444E0,2.930732779E0
3.188635417E0,2.665207672E0,-2.209255829E0,1.301094360E0,3.698241445E0
3.198643417E0,3.922592926E0,-2.400857391E0,1.335223389E0,4.788911460E0
3.208651417E0,5.093009033E0,-2.428699493E0,1.474733276E0,5.831994554E0
3.218659417E0,6.338419189E0,-2.317780151E0,1.533411255E0,6.920911264E0
3.228666417E0,7.918233948E0,-2.051483917E0,1.760638733E0,8.367010449E0
3.238674417E0,9.841734009E0,-1.693129120E0,2.036814423E0,1.019190990E1
3.248682417E0,1.204949295E1,-1.524729309E0,2.202968903E0,1.234374950E1
3.258689417E0,1.474224335E1,-1.382525024E0,2.162552948E0,1.496401516E1
3.268697417E0,1.751866974E1,-1.015937347E0,1.639390869E0,1.762451476E1
3.278705417E0,1.964918930E1,-4.867877197E-1,1.213077393E0,1.969261687E1
3.288713417E0,2.104324036E1,4.092489624E-1,1.430425415E0,2.109577129E1
3.298720417E0,2.201037918E1,1.659299469E0,2.272723846E0,2.218953222E1
3.308728417E0,2.288755508E1,3.164868622E0,2.569257202E0,2.324774513E1
3.318736417E0,2.366893021E1,4.857698364E0,2.234253845E0,2.426535351E1
3.328743417E0,2.355935806E1,6.460265808E0,1.822310486E0,2.449692230E1
3.338751417E0,2.233385651E1,7.741152191E0,2.681673431E0,2.378903016E1
3.348759417E0,2.095267868E1,8.886270905E0,3.603905640E0,2.304275787E1
3.358766417E0,2.024959076E1,1.019559814E1,3.142415314E0,2.288822670E1
3.368774417E0,2.030781967E1,1.079076050E1,2.321222992E0,2.311354858E1
3.378782417E0,2.044328796E1,1.089045319E1,1.408720551E0,2.320591491E1
3.388790417E0,2.029509613E1,1.073477692E1,1.003213806E0,2.298114010E1
3.398797417E0,1.956147171E1,1.037582336E1,8.698411560E-1,2.215999796E1
3.408805417E0,1.854343872E1,1.004291565E1,6.644682312E-1,2.109883391E1
3.418813417E0,1.776206360E1,1.006417145E1,9.136999512E-1,2.043558900E1
3.428818667E0,1.738559647E1,1.047102539E1,1.639241180E0,2.036144516E1
3.438825667E0,1.717079315E1,1.072714279E1,2.055974579E0,2.035030126E1
3.448833667E0,1.711735428E1,1.047192352E1,2.088756409E0,2.017493254E1
3.458841667E0,1.741044479E1,1.010279114E1,2.039059753E0,2.023234394E1
3.468848667E0,1.788420959E1,9.775721283E0,1.803599396E0,2.046124752E1
3.478856667E0,1.802401886E1,9.212442627E0,1.516795807E0,2.029864588E1
3.488864667E0,1.790546539E1,8.256081390E0,1.585802307E0,1.978088319E1
3.498872667E0,1.750774246E1,6.984176331E0,1.826801147E0,1.893771284E1
3.508879667E0,1.694655945E1,5.731730804E0,2.029180298E0,1.800433803E1
3.518887667E0,1.608360397E1,4.532724152E0,2.346670074E0,1.687408562E1
3.528895667E0,1.511541733E1,3.354673920E0,2.941982117E0,1.576023277E1
3.538902667E0,1.407268570E1,2.186802521E0,3.425776062E0,1.464781655E1
3.548910667E0,1.296124695E1,1.079555054E0,3.485202484E0,1.346499157E1
3.558918667E0,1.185399948E1,1.395098877E-1,3.332669678E0,1.231435966E1
3.568926667E0,1.057954971E1,-6.486012268E-1,3.083887024E0,1.103892725E1
3.578933667E0,9.124126282E0,-1.146765289E0,2.752326508E0,9.598960998E0
3.588941667E0,7.756420441E0,-1.373693390E0,2.341730347E0,8.217833814E0
3.598949667E0,6.602170715E0,-1.538051605E0,1.987566833E0,7.064324654E0
3.608956667E0,5.720504150E0,-1.627565460E0,1.738185425E0,6.196323558E0
3.618964667E0,5.061125336E0,-1.592089233E0,1.450334015E0,5.500291496E0
3.628972667E0,4.447251892E0,-1.422940979E0,1.041234741E0,4.784033884E0
3.638980667E0,4.170178070E0,-1.101110229E0,1.129850464E0,4.458631062E0
3.648987667E0,4.234544220E0,-1.097068634E0,1.707499237E0,4.695793648E0
3.658995667E0,4.173321533E0,-1.469943237E0,1.861079865E0,4.800100416E0
3.669003667E0,3.928430786E0,-1.612446899E0,1.594334564E0,4.535907423E0
3.679010667E0,3.509901123E0,-1.535207520E0,1.529818726E0,4.125119799E0
3.689018667E0,2.995420990E0,-1.463506622E0,1.646575928E0,3.718280628E0
3.699026667E0,2.593806152E0,-1.563348999E0,1.611997833E0,3.430805658E0
3.709034667E0,2.235301666E0,-1.733245697E0,1.444645844E0,3.176116465E0
3.719041667E0,1.815125427E0,-1.792522430E0,1.322948914E0,2.873675488E0
3.729049667E0,1.400936737E0,-1.810934143E0,1.314566345E0,2.640111908E0
3.739057667E0,9.560618591E-1,-1.807491302E0,1.344653778E0,2.447278666E0
3.749064667E0,5.257067871E-1,-1.803449707E0,1.341210938E0,2.308169242E0
3.759072667E0,2.579136658E-1,-1.832639008E0,1.331181793E0,2.279721509E0
3.769080667E0,1.859133911E-1,-1.920506287E0,1.398242340E0,2.382853295E0
3.779088667E0,2.415975952E-1,-1.999990997E0,1.442101135E0,2.477496533E0
3.789095667E0,3.447331238E-1,-2.069296875E0,1.432820435E0,2.540433995E0
3.799103667E0,4.688250732E-1,-2.124082947E0,1.391955414E0,2.582453327E0
3.809111667E0,5.649252319E-1,-2.181264038E0,1.292861481E0,2.597796014E0
3.819118667E0,6.935078430E-1,-2.247725830E0,1.230890350E0,2.654866398E0
3.829126667E0,9.521699524E-1,-2.371069336E0,1.252295837E0,2.845495085E0
3.839134667E0,1.373843079E0,-2.515518951E0,1.165476379E0,3.094125982E0
3.849142667E0,1.928739166E0,-2.600242767E0,1.154848480E0,3.437291409E0
3.859149667E0,2.435136108E0,-2.676134949E0,1.270707550E0,3.834877287E0
3.869157667E0,2.937641144E0,-2.765199738E0,1.393003235E0,4.268081898E0
3.879165667E0,3.605252838E0,-2.827919312E0,1.385518799E0,4.786923647E0
3.889172667E0,4.579127655E0,-2.805765381E0,1.379231873E0,5.544637951E0
3.899180667E0,5.929170227E0,-2.762056274E0,1.372046814E0,6.683302096E0
3.909188667E0,7.484436035E0,-2.739153900E0,9.916877747E-1,8.031387893E0
3.919196667E0,9.052724762E0,-2.578986969E0,5.806425476E-1,9.430808299E0
3.929203667E0,1.105241638E1,-2.344424744E0,5.376818848E-1,1.131111564E1
3.939211667E0,1.344803467E1,-2.068099365E0,5.792953491E-1,1.361845272E1
3.949219667E0,1.633762573E1,-1.846709747E0,5.358856201E-1,1.645039589E1
3.959226667E0,1.993913635E1,-1.679357758E0,2.498304749E-1,2.001129222E1
3.969234667E0,2.321492432E1,-1.202898560E0,-1.817221069E-1,2.324677825E1
3.979242667E0,2.597234024E1,1.402583313E-1,-2.392025757E-1,2.597382043E1
3.989250667E0,2.799717957E1,2.507136383E0,1.992356873E-1,2.810991802E1
3.999257667E0,2.900548279E1,5.520220642E0,1.075513458E0,2.954568660E1
4.009265667E0,2.895369049E1,8.219257965E0,2.133812714E0,3.017325888E1
4.019273667E0,2.783312073E1,9.958790588E0,3.185974731E0,2.973231499E1
4.029280667E0,2.601006180E1,1.110540619E1,3.960913239E0,2.855769940E1
4.039288667E0,2.454850113E1,1.171912994E1,4.234095154E0,2.752988333E1
4.049296667E0,2.359827713E1,1.144639709E1,4.291276245E0,2.657656377E1
4.059304667E0,2.273891418E1,1.027164001E1,4.424199829E0,2.534044891E1
4.069311667E0,2.169453598E1,9.003177795E0,3.961811371E0,2.382028655E1
4.079319667E0,2.057890594E1,7.990383911E0,3.240611115E0,2.231230973E1
4.089327667E0,1.963706451E1,7.070097656E0,2.611319733E0,2.103377223E1
4.099335667E0,1.910671738E1,6.364764404E0,2.185904388E0,2.025722224E1
4.109342667E0,1.872007141E1,5.954467621E0,1.874252472E0,1.973346347E1
4.119350667E0,1.827938782E1,5.689668274E0,1.633702698E0,1.921398784E1
4.129358667E0,1.802356979E1,5.376968536E0,1.722318420E0,1.888722424E1
4.139365667E0,1.792776901E1,4.985831909E0,1.899998932E0,1.870490357E1
4.149373667E0,1.789259216E1,4.444258118E0,1.960922241E0,1.854026700E1
4.159381667E0,1.778885788E1,3.880979462E0,2.118394775E0,1.833011355E1
4.169389667E0,1.737526794E1,3.338208160E0,2.409838715E0,1.785639640E1
4.179396667E0,1.673340271E1,2.843486938E0,2.751128998E0,1.719479267E1
4.189404667E0,1.615410736E1,2.393672333E0,3.210523682E0,1.664308608E1
4.199412667E0,1.543724808E1,1.815275116E0,3.692671051E0,1.597622206E1
4.209419667E0,1.456291626E1,1.280886383E0,4.133504333E0,1.519226968E1
4.219427667E0,1.370909180E1,6.527925110E-1,4.410278778E0,1.441582099E1
4.229435667E0,1.278236893E1,2.095642090E-3,4.349654846E0,1.350216490E1
4.239443667E0,1.191926376E1,-4.064048767E-1,4.133354645E0,1.262214856E1
4.249450667E0,1.090197922E1,-5.734574890E-1,3.858975220E0,1.157901957E1
4.259458667E0,9.650581512E0,-7.433541870E-1,3.262166290E0,1.021410926E1
4.269466667E0,8.454868011E0,-8.104147339E-1,2.660417633E0,8.900527350E0
4.279474667E0,7.513775024E0,-7.051835632E-1,2.388133850E0,7.915635304E0
4.289481667E0,6.632557526E0,-6.831793213E-1,2.105371857E0,6.992148738E0
4.299489667E0,5.806126099E0,-6.725514221E-1,1.831291809E0,6.125116764E0
4.309497667E0,5.088218994E0,-7.179071045E-1,1.708097992E0,5.415068041E0
4.319504667E0,4.321213989E0,-9.156459045E-1,1.553768921E0,4.682466831E0
4.329512667E0,3.361858978E0,-1.106499023E0,1.365759888E0,3.793644152E0
4.339520667E0,2.383792877E0,-1.136137390E0,1.322050781E0,2.953149999E0
4.349528667E0,1.518741760E0,-1.081800385E0,1.223555603E0,2.230236965E0
4.359535667E0,8.315208435E-1,-1.067130890E0,1.002165985E0,1.683606816E0
4.369543667E0,3.186872864E-1,-1.121467896E0,7.809260559E-1,1.403245286E0
4.379551667E0,-9.190887451E-2,-1.169517975E0,6.569837952E-1,1.344562100E0
4.389558667E0,-3.821553040E-1,-1.118025055E0,5.433700562E-1,1.300489799E0
4.399566667E0,-5.703140259E-1,-1.019230499E0,4.463717651E-1,1.250334616E0
4.409574667E0,-6.355783081E-1,-8.762777710E-1,4.279600525E-1,1.164032785E0
4.419582667E0,-5.580395508E-1,-7.159611511E-1,4.215234375E-1,1.000844902E0
4.429588583E0,-4.731660461E-1,-6.092330933E-1,4.384382629E-1,8.872875405E-1
4.439596583E0,-4.516108704E-1,-5.032534790E-1,4.724176025E-1,8.248604934E-1
4.449604583E0,-4.326004028E-1,-3.195854187E-1,5.144801331E-1,7.442901018E-1
4.459611583E0,-3.667373657E-1,-1.070274353E-1,5.704637146E-1,6.865712032E-1
4.469619583E0,-2.643502808E-1,7.559280396E-2,6.442602539E-1,7.004759937E-1
4.479627583E0,-5.149291992E-2,2.227368164E-1,7.699987793E-1,8.032193538E-1
4.489635583E0,3.489244080E-1,3.772155762E-1,9.747729492E-1,1.101917481E0
4.499642583E0,7.967930603E-1,3.987707520E-1,1.165177002E0,1.466811078E0
4.509650583E0,1.223555603E0,3.219804382E-1,1.135838013E0,1.700261070E0
4.519658583E0,1.605261841E0,3.071612549E-1,1.072819061E0,1.955033082E0
4.529666583E0,2.002386017E0,3.424877930E-1,1.150956573E0,2.334855174E0
4.539673583E0,2.526745605E0,4.361929321E-1,1.256636810E0,2.855493600E0
4.549681583E0,3.128045197E0,4.884342957E-1,1.353335724E0,3.443073103E0
4.559689583E0,3.779191132E0,4.029620361E-1,1.335672455E0,4.028484196E0
4.569696583E0,4.324956207E0,2.965333557E-1,1.221609650E0,4.503943646E0
4.579704583E0,4.972808990E0,1.294807434E-1,1.209634552E0,5.119454099E0
4.589712583E0,5.684429169E0,-8.711883545E-2,1.227447510E0,5.816094227E0
4.599720583E0,6.399043121E0,-4.167333984E-1,1.168021088E0,6.518105005E0
4.609727583E0,6.949897614E0,-8.065228271E-1,1.023870850E0,7.071058437E0
4.619735583E0,7.358847198E0,-1.147214355E0,1.006207581E0,7.515396634E0
4.629743583E0,7.916437683E0,-1.536105652E0,1.298849030E0,8.168023933E0
4.639751583E0,8.560099182E0,-1.935026093E0,1.621877289E0,8.924691027E0
4.649758583E0,9.475595398E0,-2.246827698E0,1.967059479E0,9.935012121E0
4.659766583E0,1.090407486E1,-2.231260071E0,2.489473114E0,1.140503601E1
4.669774583E0,1.297846115E1,-1.924398193E0,3.155438232E0,1.349446378E1
4.679781583E0,1.528246994E1,-1.610500946E0,3.667074280E0,1.579857698E1
4.689789583E0,1.726719269E1,-1.201251984E0,3.872896271E0,1.773691842E1
4.699797583E0,1.937376205E1,-7.303312683E-1,3.984863434E0,1.979280618E1
4.709805583E0,2.125025986E1,7.679031372E-2,4.067641296E0,2.163619991E1
4.719812583E0,2.262649796E1,1.554816742E0,3.938310242E0,2.301925612E1
4.729820583E0,2.396980453E1,3.317401428E0,3.661535797E0,2.447373135E1
4.739828583E0,2.485895554E1,5.017865295E0,3.032244415E0,2.554097000E1
4.749836583E0,2.503483978E1,6.652316437E0,2.043849792E0,2.598410743E1
4.759843583E0,2.434432571E1,7.964936829E0,1.225052490E0,2.564346246E1
4.769851583E0,2.332973557E1,9.167086945E0,9.836045837E-1,2.508544444E1
4.779859583E0,2.276016998E1,1.033196457E1,5.192701721E-1,2.500088940E1
4.789866583E0,2.256557465E1,1.091575058E1,1.091230774E-1,2.506732291E1
4.799874583E0,2.237921219E1,1.103175934E1,-2.698887634E-1,2.495198774E1
4.809882583E0,2.216650452E1,1.061996567E1,-1.508862305E-1,2.457967371E1
4.819890583E0,2.171773773E1,9.921667786E0,8.307723999E-2,2.387690360E1
4.829897583E0,2.111658783E1,9.334289246E0,2.984793091E-1,2.308957183E1
4.839905583E0,2.053250244E1,8.960217133E0,1.048569489E0,2.242696247E1
4.849913583E0,1.999781433E1,8.633446655E0,2.045346680E0,2.187766949E1
4.859921583E0,1.948812424E1,8.281079407E0,2.497556305E0,2.132137542E1
4.869928583E0,1.901840103E1,7.720644836E0,2.879412231E0,2.072676891E1
4.879936583E0,1.868055359E1,7.015161896E0,3.140619049E0,2.019997690E1
4.889944583E0,1.835572906E1,6.307283936E0,3.200644226E0,1.967126695E1
4.899951583E0,1.793285843E1,5.493126984E0,3.147355042E0,1.901756292E1
4.909959583E0,1.749142639E1,4.525838470E0,2.952759705E0,1.830715710E1
4.919967583E0,1.693084213E1,3.617976379E0,2.803520050E0,1.753861149E1
4.929975583E0,1.611309265E1,2.739602966E0,2.835852814E0,1.658852737E1
4.939982583E0,1.504940460E1,1.738784180E0,2.932102661E0,1.543065700E1
4.949990583E0,1.377989456E1,8.481362915E-1,3.001408539E0,1.412845648E1
4.959998583E0,1.248628464E1,9.924362183E-2,3.165467377E0,1.288166670E1
4.970006583E0,1.123129440E1,-5.081932068E-1,3.384012909E0,1.174102967E1
4.980013583E0,1.022583527E1,-9.575587463E-1,3.599714355E0,1.088313232E1
4.990021583E0,9.477691040E0,-1.254391479E0,3.801644440E0,1.028847053E1
5.000029583E0,8.897347870E0,-1.389560394E0,3.885619812E0,9.807737687E0
5.010036583E0,8.407716064E0,-1.517544250E0,3.857328644E0,9.373986038E0
5.020044583E0,7.868986359E0,-1.750609589E0,3.612587585E0,8.833819633E0
5.030052583E0,7.223528595E0,-1.884580994E0,3.302432556E0,8.163153292E0
5.040060583E0,6.639443207E0,-1.851948853E0,3.190764771E0,7.595584274E0
5.050067583E0,6.202801208E0,-1.782343597E0,3.121907959E0,7.169225958E0
5.060075583E0,5.904321899E0,-1.737886047E0,2.882256317E0,6.796224429E0
5.070083583E0,5.594017181E0,-1.725162506E0,2.617007904E0,6.412327523E0
5.080091583E0,4.973707123E0,-1.641336823E0,2.337089996E0,5.735306335E0
5.090098583E0,4.240082703E0,-1.513352966E0,2.092648315E0,4.964646563E0
5.100106583E0,3.622766418E0,-1.478475494E0,1.906136169E0,4.352433963E0
5.110114583E0,3.087629242E0,-1.482666779E0,1.696871338E0,3.822450451E0
5.120121583E0,2.577340393E0,-1.511856079E0,1.557211761E0,3.369465948E0
5.130129583E0,2.036964111E0,-1.501826935E0,1.441652069E0,2.912570621E0
5.140137583E0,1.495090942E0,-1.464105377E0,1.342707825E0,2.486315705E0
5.150145583E0,9.851014709E-1,-1.415755920E0,1.347946930E0,2.189006775E0
5.160152583E0,5.553451538E-1,-1.317560120E0,1.357826385E0,1.971817791E0
5.170160583E0,2.652484131E-1,-1.233435059E0,1.308578796E0,1.817717588E0
5.180168583E0,5.059478760E-2,-1.227896576E0,1.251996460E0,1.754361699E0
5.190176583E0,-8.652008057E-2,-1.242266693E0,1.184486847E0,1.718639390E0
5.200183583E0,-2.176473999E-1,-1.203796692E0,1.053359528E0,1.614330561E0
5.210191583E0,-2.874023438E-1,-1.152752838E0,8.922944641E-1,1.485809081E0
5.220199583E0,-2.510279846E-1,-1.120420074E0,7.580236816E-1,1.375847410E0
5.230206583E0,-1.043330383E-1,-1.121318207E0,6.843768311E-1,1.317805582E0
5.240214583E0,2.067201233E-1,-1.224154358E0,6.447093201E-1,1.398905718E0
5.250222583E0,6.890171814E-1,-1.419947205E0,6.951544189E-1,1.724596882E0
5.260230583E0,1.269210663E0,-1.602268066E0,7.887098694E-1,2.190940876E0
5.270237583E0,1.910626831E0,-1.753154297E0,8.776249695E-1,2.737566522E0
5.280245583E0,2.703827362E0,-1.892813873E0,1.079854431E0,3.472680860E0
5.290253583E0,3.675157471E0,-1.978136444E0,1.276246033E0,4.364471350E0
5.300261583E0,4.765041046E0,-2.077529755E0,1.413061523E0,5.386881187E0
5.310268583E0,5.702840881E0,-2.178719330E0,1.397793274E0,6.262829877E0
5.320276583E0,6.297554169E0,-2.232906647E0,1.399290161E0,6.826644385E0
5.330284583E0,6.695277100E0,-2.295326843E0,1.495540009E0,7.234079117E0
5.340291583E0,7.295229492E0,-2.395318909E0,1.597178650E0,7.842761354E0
5.350299583E0,8.108638000E0,-2.489024048E0,1.547032928E0,8.621981316E0
5.360307583E0,9.176517334E0,-2.681523743E0,1.454674988E0,9.670321571E0
5.370315583E0,1.046039749E1,-2.909948730E0,1.364113312E0,1.094296680E1
5.380322583E0,1.165745819E1,-2.929108887E0,1.380728760E0,1.209886037E1
5.390330583E0,1.324191330E1,-2.700085144E0,1.657503204E0,1.361565439E1
5.400338583E0,1.537033722E1,-2.176923065E0,2.068099365E0,1.566088424E1
5.410346583E0,1.747526001E1,-1.342707825E0,2.298320618E0,1.767681686E1
5.420353583E0,1.926493835E1,-4.083508301E-1,1.981579285E0,1.937088683E1
5.430361792E0,2.084430405E1,4.831951904E-1,1.476529541E0,2.090212019E1
5.440369792E0,2.186772583E1,1.490300903E0,6.429130554E-1,2.192787648E1
5.450377792E0,2.218701187E1,2.819985809E0,-1.227447510E-1,2.236584186E1
5.460384792E0,2.226260468E1,4.330794067E0,-2.802172852E-1,2.268166365E1
5.470392792E0,2.219374786E1,5.811814270E0,-6.885681152E-2,2.294219629E1
5.480400792E0,2.211111969E1,7.043153687E0,-1.122665405E-1,2.320603869E1
5.490407792E0,2.239058853E1,7.854017487E0,-4.589456177E-1,2.373256574E1
5.500415792E0,2.248743713E1,8.405620422E0,-6.141728210E-1,2.401492227E1
5.510423792E0,2.250959106E1,9.103469238E0,-4.480183411E-1,2.428488342E1
5.520431792E0,2.248608994E1,9.482630768E0,1.345701599E-1,2.440415202E1
5.530438792E0,2.181413727E1,9.495653687E0,4.451742554E-1,2.379542401E1
5.540446792E0,2.081047440E1,9.260343018E0,6.074368286E-1,2.278593375E1
5.550454792E0,1.965502716E1,8.876092072E0,7.852670288E-1,2.158058728E1
5.560462792E0,1.862531845E1,8.411607971E0,7.458988953E-1,2.045028120E1
5.570469792E0,1.785546936E1,8.003257141E0,4.658312988E-1,1.957260611E1
5.580477792E0,1.725057724E1,7.606432343E0,3.694317627E-1,1.885674171E1
5.590485792E0,1.695554077E1,7.259753265E0,3.626957703E-1,1.844792478E1
5.600493792E0,1.679627197E1,6.957831116E0,3.058140564E-1,1.818295048E1
5.610500792E0,1.657652893E1,6.522985382E0,2.335144043E-1,1.781530743E1
5.620508792E0,1.634630768E1,6.098318481E0,3.562591553E-1,1.745044938E1
5.630516792E0,1.625918884E1,5.745352478E0,7.153623962E-1,1.725925955E1
5.640524792E0,1.622086853E1,5.214107208E0,1.115330658E0,1.707476068E1
5.650531792E0,1.617042343E1,4.578678589E0,1.372346191E0,1.686209434E1
5.660539792E0,1.603585327E1,3.966002655E0,1.591340790E0,1.659548531E1
5.670547792E0,1.574889999E1,3.357218628E0,1.975292358E0,1.622345672E1
5.680554792E0,1.532647842E1,2.691702576E0,2.409239960E0,1.574644851E1
5.690562792E0,1.472592728E1,2.097588043E0,2.727029114E0,1.512248318E1
5.700570792E0,1.405038208E1,1.568438416E0,3.051554260E0,1.446323681E1
5.710578792E0,1.326795914E1,1.093625793E0,3.385659485E0,1.373671894E1
5.720585792E0,1.246323257E1,7.198530579E-1,3.656895447E0,1.300858328E1
5.730593792E0,1.189396637E1,5.013075256E-1,3.839964752E0,1.250852008E1
5.740601792E0,1.145822250E1,2.041754150E-1,3.956572266E0,1.212382013E1
5.750609792E0,1.086006638E1,-2.124082947E-1,3.886517944E0,1.153651510E1
5.760616792E0,1.016251694E1,-4.695735168E-1,3.691174164E0,1.082229257E1
5.770624792E0,9.452094269E0,-7.390132141E-1,3.428620148E0,1.008184818E1
5.780632792E0,8.605604553E0,-1.060245209E0,3.010838928E0,9.178545674E0
5.790639792E0,7.516918488E0,-1.313069458E0,2.580334167E0,8.055205731E0
5.800647792E0,6.259233856E0,-1.437909851E0,2.235301666E0,6.800159318E0
5.810655792E0,5.128335571E0,-1.516197052E0,1.978286133E0,5.701955389E0
5.820663792E0,4.150419159E0,-1.660347290E0,1.717678070E0,4.788856886E0
5.830670792E0,3.190465393E0,-1.745819550E0,1.443897400E0,3.913028881E0
5.840678792E0,2.273172913E0,-1.720222778E0,1.221909027E0,3.101538839E0
5.850686792E0,1.441951447E0,-1.700314178E0,1.133442993E0,2.500996861E0
5.860694792E0,7.596702576E-1,-1.719923401E0,1.026864624E0,2.142355330E0
5.870701792E0,2.143542480E-1,-1.680854645E0,9.087602234E-1,1.922775396E0
5.880709792E0,-2.347119141E-1,-1.589694214E0,8.175997925E-1,1.802966111E0
5.890717792E0,-6.478527832E-1,-1.506916351E0,7.217990112E-1,1.792066944E0
5.900725792E0,-9.919871521E-1,-1.413510590E0,6.768923950E-1,1.854786783E0
5.910732792E0,-1.248703308E0,-1.328038330E0,6.638694763E-1,1.940017639E0
5.920740792E0,-1.423539734E0,-1.298399963E0,6.179150391E-1,2.023394879E0
5.930748792E0,-1.504671021E0,-1.268611908E0,6.188131714E-1,2.063090108E0
5.940755792E0,-1.464404755E0,-1.260229340E0,6.186634827E-1,2.028645799E0
5.950763792E0,-1.310524750E0,-1.270557861E0,6.251000977E-1,1.929389160E0
5.960771792E0,-1.051263885E0,-1.317709808E0,6.676116943E-1,1.813069296E0
5.970779792E0,-6.803352356E-1,-1.430275726E0,7.089257812E-1,1.735258035E0
5.980786792E0,-2.302212524E-1,-1.553170166E0,7.551795959E-1,1.742307554E0
5.990794792E0,2.306703186E-1,-1.712888031E0,8.246351624E-1,1.914998004E0
6.000802792E0,7.188052368E-1,-1.899699554E0,9.048683167E-1,2.223584052E0
6.010810792E0,1.391805725E0,-2.121089172E0,9.521699524E-1,2.709754615E0
6.020817792E0,2.147284698E0,-2.352657623E0,1.058748322E0,3.356602073E0
6.030825792E0,2.958148499E0,-2.519859924E0,1.195264435E0,4.065586507E0
6.040833792E0,4.032015381E0,-2.683469696E0,1.399739227E0,5.041569948E0
6.050841792E0,5.205874329E0,-2.871329041E0,1.572779388E0,6.149739262E0
6.060848792E0,6.571334839E0,-3.138972473E0,1.720522156E0,7.483033225E0
6.070856792E0,8.124654694E0,-3.460054779E0,1.765728149E0,9.005542119E0
6.080864792E0,9.574689331E0,-3.716321869E0,1.821711731E0,1.043093273E1
6.090871792E0,1.118848343E1,-3.923491058E0,1.964814148E0,1.201817117E1
6.100879792E0,1.288071442E1,-3.963907013E0,2.066153412E0,1.363430793E1
6.110887792E0,1.482771561E1,-3.944447479E0,2.170636139E0,1.549617621E1
6.120895792E0,1.703742050E1,-3.963457947E0,2.546654205E0,1.767676848E1
6.130902792E0,1.898382294E1,-3.818708954E0,3.019670563E0,1.959812444E1
6.140910792E0,2.090522736E1,-3.315904541E0,3.466341705E0,2.144852626E1
6.150918792E0,2.292812073E1,-2.331701202E0,3.955075378E0,2.338328830E1
6.160926792E0,2.460792755E1,-7.479945374E-1,4.012705536E0,2.494416565E1
6.170933792E0,2.617127655E1,1.298250275E0,3.352578278E0,2.641705796E1
6.180941792E0,2.730067795E1,3.378773804E0,2.323468323E0,2.760691279E1
6.190949792E0,2.686238937E1,5.187761993E0,9.102571106E-1,2.737388181E1
6.200957792E0,2.525772629E1,6.635700989E0,-3.221301270E-1,2.611683428E1
6.210964792E0,2.379811157E1,7.733368378E0,2.664459229E-2,2.502310554E1
6.220972792E0,2.281211197E1,8.771160278E0,-7.514373779E-2,2.444036317E1
6.230980792E0,2.252216492E1,9.606273651E0,-4.314028931E-1,2.448906929E1
6.240988792E0,2.269430695E1,9.687105560E0,-1.012045441E0,2.469606887E1
6.250995792E0,2.289997925E1,8.648265839E0,-1.091380463E0,2.450291131E1
6.261003792E0,2.269385788E1,7.373666382E0,-8.855584717E-1,2.387815644E1
6.271011792E0,2.157703033E1,6.787934418E0,-4.626878357E-1,2.262428721E1
6.281019792E0,2.045810715E1,6.495891724E0,1.204994202E-1,2.146497793E1
6.291026792E0,1.958632004E1,6.178102570E0,7.533833313E-1,2.055141042E1
6.301034792E0,1.883952301E1,5.813311157E0,1.177750854E0,1.975118505E1
6.311042792E0,1.799946991E1,5.466931458E0,1.514400787E0,1.887224593E1
6.321049792E0,1.745714767E1,5.135071564E0,1.839375000E0,1.828945776E1
6.331057792E0,1.748813324E1,4.635709991E0,2.073637848E0,1.821056246E1
6.341065792E0,1.771880356E1,4.038601685E0,2.176024933E0,1.830304312E1
6.351073792E0,1.789438843E1,3.415597229E0,2.339035950E0,1.836699569E1
6.361080792E0,1.789109528E1,2.744093628E0,2.487227783E0,1.827040345E1
6.371088792E0,1.778915726E1,1.985920258E0,2.508483582E0,1.807458119E1
6.381096792E0,1.739562561E1,1.227597198E0,2.703378296E0,1.764718220E1
6.391104792E0,1.675750259E1,5.541476440E-1,3.064577179E0,1.704443035E1
6.401111792E0,1.612791183E1,1.197509766E-2,3.435505829E0,1.648976603E1
6.411119792E0,1.546149765E1,-5.777984619E-1,3.689228210E0,1.590604179E1
6.421127792E0,1.483265533E1,-1.097817078E0,3.918850708E0,1.538084060E1
6.431135917E0,1.428539337E1,-1.469344482E0,4.187841339E0,1.495892550E1
6.441142917E0,1.351240082E1,-1.780996399E0,4.266427917E0,1.428143309E1
6.451150917E0,1.255918304E1,-1.955533447E0,4.074077911E0,1.334748293E1
6.461158917E0,1.164129181E1,-2.008822632E0,3.924987946E0,1.244831610E1
6.471166917E0,1.067115921E1,-2.146236877E0,3.746858368E0,1.151168620E1
6.481173917E0,9.528734894E0,-2.372865601E0,3.406765594E0,1.039390839E1
6.491181917E0,8.279283142E0,-2.581531677E0,3.066822510E0,9.198708358E0
6.501189917E0,7.050488434E0,-2.772684174E0,2.604583740E0,8.011305833E0
6.511197917E0,5.792205048E0,-2.950813751E0,2.033371582E0,6.811133613E0
6.521204917E0,4.445605316E0,-2.972518616E0,1.571282501E0,5.573885740E0
6.531212917E0,3.220103760E0,-2.992876282E0,1.244512024E0,4.568937167E0
6.541220917E0,2.101030884E0,-2.922372894E0,9.271719360E-1,3.716751526E0
6.551228917E0,1.088087311E0,-2.779869232E0,6.345304871E-1,3.051923309E0
6.561235917E0,2.966830444E-1,-2.701432343E0,5.536985779E-1,2.773506742E0
6.571243917E0,-3.441343689E-1,-2.658022614E0,4.861889648E-1,2.723947941E0
6.581251917E0,-8.963360596E-1,-2.554288330E0,4.364923096E-1,2.741957830E0
6.591258917E0,-1.400337982E0,-2.417173462E0,4.677772522E-1,2.832399966E0
6.601266917E0,-1.812580719E0,-2.304906921E0,5.399272156E-1,2.981537553E0
6.611274917E0,-2.155068512E0,-2.207908630E0,6.441105652E-1,3.151834265E0
6.621282917E0,-2.500550079E0,-2.051932983E0,7.677534485E-1,3.324548845E0
6.631289917E0,-2.723436584E0,-1.921554108E0,7.622149658E-1,3.419129812E0
6.641297917E0,-2.830014954E0,-1.888323212E0,7.126679993E-1,3.476009906E0
6.651305917E0,-2.802621918E0,-1.907333679E0,6.363267517E-1,3.449278637E0
6.661313917E0,-2.605481873E0,-1.989512787E0,5.188211060E-1,3.319016761E0
6.671320917E0,-2.284848633E0,-2.084714813E0,4.327500916E-1,3.123114114E0
6.681328917E0,-1.944007416E0,-2.176473999E0,3.614982605E-1,2.940558602E0
6.691336917E0,-1.581311646E0,-2.300266571E0,3.588038635E-1,2.814340603E0
6.701344917E0,-1.043629761E0,-2.505190430E0,4.147874451E-1,2.745394469E0
6.711351917E0,-3.453318787E-1,-2.744243317E0,4.890330505E-1,2.808786003E0
6.721359917E0,3.480262756E-1,-2.906505890E0,5.369334412E-1,2.976104215E0
6.731367917E0,1.081650696E0,-3.049159241E0,6.324348450E-1,3.296560956E0
6.741374917E0,2.016456757E0,-3.238216095E0,6.891668701E-1,3.876479370E0
6.751382917E0,3.121458893E0,-3.457510071E0,7.390132141E-1,4.716356861E0
6.761390917E0,4.417014771E0,-3.679797821E0,7.318281555E-1,5.795386435E0
6.771398917E0,5.783373413E0,-3.913611603E0,7.167095947E-1,7.019788918E0
6.781405917E0,7.442523193E0,-4.265230408E0,6.870712280E-1,8.605545235E0
6.791413917E0,9.120533752E0,-4.560416565E0,8.448431396E-1,1.023207189E1
6.801421917E0,1.118414246E1,-4.638703766E0,1.298998718E0,1.217743868E1
6.811429917E0,1.358874207E1,-4.683011627E0,1.814227295E0,1.448709527E1
6.821436917E0,1.623928024E1,-4.741240540E0,2.301015015E0,1.707302711E1
6.831444917E0,1.945115112E1,-4.573888550E0,2.777923279E0,2.017385918E1
6.841452917E0,2.259805710E1,-3.811823273E0,3.022065582E0,2.311568865E1
6.851460917E0,2.523796738E1,-2.371668091E0,2.632126465E0,2.548544480E1
6.861467917E0,2.801050186E1,-4.580474854E-1,1.794468384E0,2.807166078E1
6.871475917E0,3.027514252E1,1.462159424E0,7.530839539E-1,3.031978397E1
6.881483917E0,3.077405502E1,3.441643066E0,2.591111755E-1,3.096699062E1
6.891491917E0,2.972129425E1,5.611680450E0,6.075865173E-1,3.025252801E1
6.901498917E0,2.772280014E1,7.982749786E0,8.878038025E-1,2.886288512E1
6.911506917E0,2.609358810E1,9.760902100E0,1.024768982E0,2.787831956E1
6.921514917E0,2.562416428E1,1.025562332E1,1.439556427E0,2.763779889E1
6.931522917E0,2.531445831E1,9.623787231E0,1.846859436E0,2.714498057E1
6.941529917E0,2.462783615E1,8.875643005E0,2.164049835E0,2.626766956E1
6.951537917E0,2.351894211E1,8.473130035E0,2.465522919E0,2.511997957E1
6.961545917E0,2.201337296E1,8.023315430E0,2.519261169E0,2.356499217E1
6.971553917E0,2.079176331E1,7.573500824E0,2.008523254E0,2.221912468E1
6.981560917E0,2.022249710E1,7.020999756E0,1.895508270E0,2.149038804E1
6.991568917E0,1.978765137E1,6.731052704E0,1.800755310E0,2.097858281E1
7.001576917E0,1.935579941E1,6.624025269E0,1.789229279E0,2.053596900E1
7.011584917E0,1.901600601E1,6.253845062E0,1.851200409E0,2.010338294E1
7.021591917E0,1.877545624E1,5.646258545E0,1.810634766E0,1.968949950E1
7.031599917E0,1.871109009E1,4.879103851E0,2.011816406E0,1.944114071E1
7.041607917E0,1.865690277E1,3.932322693E0,2.398612061E0,1.921708934E1
7.051615917E0,1.827040649E1,2.979254608E0,2.754871216E0,1.871558246E1
7.061622917E0,1.781684967E1,1.991458740E0,3.065475311E0,1.818799546E1
7.071630917E0,1.718546265E1,8.340655518E-1,3.412004700E0,1.754074023E1
7.081638917E0,1.620081024E1,-2.880010986E-1,3.783232727E0,1.663917206E1
7.091646917E0,1.506377472E1,-1.131796417E0,3.961961060E0,1.561715106E1
7.101653917E0,1.405951309E1,-1.826052704E0,4.227957916E0,1.479459378E1
7.111661917E0,1.309791275E1,-2.529889069E0,4.337230682E0,1.402737421E1
7.121669917E0,1.200084412E1,-3.055745544E0,4.205055542E0,1.307823889E1
7.131677917E0,1.059915894E1,-3.436403961E0,4.011358337E0,1.184238312E1
7.141684917E0,9.081165619E0,-3.593726807E0,3.690425720E0,1.044038713E1
7.151692917E0,7.796537018E0,-3.628005524E0,3.452420654E0,9.266478399E0
7.161700917E0,6.601721649E0,-3.666475525E0,3.139421539E0,8.178125648E0
7.171707917E0,5.442532196E0,-3.759731598E0,2.591860199E0,7.104539231E0
7.181715917E0,4.340224457E0,-3.758683777E0,2.156565399E0,6.133190556E0
7.191723917E0,3.374732208E0,-3.580254822E0,1.873054962E0,5.264539577E0
7.201731917E0,2.498903503E0,-3.403472443E0,1.675166473E0,4.542502185E0
7.211738917E0,1.710942078E0,-3.331621857E0,1.437161407E0,4.011540839E0
7.221746917E0,1.014590149E0,-3.275488586E0,1.324296112E0,3.675864367E0
7.231754917E0,3.999682617E-1,-3.137774963E0,1.348994751E0,3.438806940E0
7.241762917E0,-1.212478638E-1,-2.967878265E0,1.356778564E0,3.265555162E0
7.251769917E0,-5.411247253E-1,-2.827021179E0,1.331630859E0,3.171451633E0
7.261777917E0,-9.213340759E-1,-2.686014404E0,1.341809692E0,3.140697870E0
7.271785917E0,-1.257984009E0,-2.538571014E0,1.332528992E0,3.130894453E0
7.281793917E0,-1.504521332E0,-2.465073853E0,1.242715759E0,3.143965012E0
7.291800917E0,-1.708846436E0,-2.455493774E0,1.145418091E0,3.203371415E0
7.301808917E0,-1.921105042E0,-2.365830231E0,1.074016571E0,3.231301418E0
7.311816917E0,-2.114053802E0,-2.188598785E0,1.005159760E0,3.204611406E0
7.321824917E0,-2.124382324E0,-2.036365356E0,9.264234924E-1,3.085132835E0
7.331831917E0,-1.988764343E0,-2.015109558E0,8.156538391E-1,2.946377662E0
7.341839917E0,-1.811981964E0,-2.041005707E0,7.214996338E-1,2.823038196E0
7.351847917E0,-1.504371643E0,-2.016606445E0,7.481442261E-1,2.624796255E0
7.361855917E0,-1.022673340E0,-1.979633331E0,7.670050049E-1,2.356502825E0
7.371862917E0,-4.525090027E-1,-2.064955902E0,6.405180359E-1,2.208861840E0
7.381870917E0,1.914518738E-1,-2.278861084E0,6.080355835E-1,2.366340832E0
7.391878917E0,8.819659424E-1,-2.474354553E0,5.843847656E-1,2.691059259E0
7.401886917E0,1.800006866E0,-2.670596466E0,6.023474121E-1,3.276420701E0
7.411893917E0,3.020419006E0,-2.927462311E0,6.840774536E-1,4.261564093E0
7.421901917E0,4.777614899E0,-3.263962555E0,7.529342651E-1,5.834892089E0
7.431910167E0,6.981781311E0,-3.545976105E0,7.294331360E-1,7.864559079E0
7.441918167E0,9.354347534E0,-3.681294708E0,9.201365662E-1,1.009467185E1
7.451925167E0,1.213421677E1,-3.666176147E0,1.408121796E0,1.275393551E1
7.461933167E0,1.479298782E1,-3.384761353E0,1.958826599E0,1.530117969E1
7.471941167E0,1.745340546E1,-3.138224030E0,2.436782684E0,1.789993637E1
7.481949167E0,2.037158707E1,-3.028202820E0,2.571652222E0,2.075535996E1
7.491956167E0,2.317390961E1,-2.689756622E0,2.653531952E0,2.347990862E1
7.501964167E0,2.514770508E1,-2.057172089E0,2.966680756E0,2.540551559E1
7.511972167E0,2.595752106E1,-9.833052063E-1,2.601440277E0,2.610607745E1
7.521980167E0,2.561952393E1,8.858578491E-1,2.292183380E0,2.573711046E1
7.531987167E0,2.486539215E1,3.225043488E0,2.293680267E0,2.517835581E1
7.541995167E0,2.426514038E1,5.335055695E0,2.509531403E0,2.497113543E1
7.552003167E0,2.406066559E1,7.122638397E0,2.323318634E0,2.520010746E1
7.562011167E0,2.419328979E1,8.577612762E0,1.700164490E0,2.572510974E1
7.572018167E0,2.435195984E1,9.513167267E0,1.545086975E0,2.618979941E1
7.582026167E0,2.418775131E1,1.004800507E1,1.508562927E0,2.623519547E1
7.592034167E0,2.345352814E1,1.018631744E1,1.466799774E0,2.561211719E1
7.602042167E0,2.234418503E1,9.949659576E0,1.401535492E0,2.449944146E1
7.612049167E0,2.121029297E1,9.201814728E0,1.245859222E0,2.315387845E1
7.622057167E0,2.006352768E1,8.499624939E0,1.192120972E0,2.182223452E1
7.632065167E0,1.929098419E1,7.989186401E0,1.365011444E0,2.092444567E1
7.642073167E0,1.890763138E1,7.606881409E0,1.190324707E0,2.041519145E1
7.652080167E0,1.871228760E1,7.228917389E0,8.530760193E-1,2.007821437E1
7.662088167E0,1.857502304E1,6.800208893E0,6.397695923E-1,1.979099864E1
7.672096167E0,1.841216171E1,6.265221405E0,4.908293152E-1,1.945511788E1
7.682104167E0,1.809706696E1,5.640570374E0,4.417314148E-1,1.896088060E1
7.692111167E0,1.771865387E1,4.996609497E0,6.179150391E-1,1.842006027E1
7.702119167E0,1.742256958E1,4.204756165E0,9.671388245E-1,1.794885129E1
7.712127167E0,1.726270203E1,3.334915009E0,1.438209229E0,1.764060614E1
7.722135167E0,1.710253510E1,2.556833038E0,1.949396210E0,1.740213342E1
7.732142167E0,1.659928162E1,1.805994415E0,2.448608093E0,1.687582435E1
7.742150167E0,1.600771179E1,1.122665405E0,3.179538116E0,1.635899377E1
7.752158167E0,1.539548492E1,3.721261597E-1,3.772155762E0,1.585523866E1
7.762166167E0,1.441966415E1,-4.242178345E-1,4.066892853E0,1.498820511E1
7.772173167E0,1.337663315E1,-1.085243225E0,4.232298889E0,1.407211502E1
7.782181167E0,1.240096207E1,-1.683099976E0,4.396806793E0,1.326456165E1
7.792189167E0,1.125659180E1,-2.291135559E0,4.313879242E0,1.227068519E1
7.802197167E0,1.005923172E1,-2.684367828E0,4.143383789E0,1.120542738E1
7.812204167E0,9.104966125E0,-2.910098419E0,4.076023865E0,1.039148938E1
7.822212167E0,8.153245239E0,-3.213218079E0,3.757336578E0,9.535080310E0
7.832220167E0,7.059469757E0,-3.514990540E0,3.208428040E0,8.513828882E0
7.842228167E0,5.815855865E0,-3.668421478E0,2.797083435E0,7.423285750E0
7.852235167E0,4.659510498E0,-3.740870819E0,2.495909729E0,6.475702120E0
7.862243167E0,3.675905914E0,-3.801195374E0,2.200124817E0,5.727296026E0
7.872251167E0,2.683469696E0,-3.804338837E0,1.953288116E0,5.048696669E0
7.882258167E0,1.733395386E0,-3.767216034E0,1.712738342E0,4.486652298E0
7.892266167E0,8.327183533E-1,-3.789070587E0,1.467997284E0,4.147950313E0
7.902274167E0,-3.727249146E-2,-3.709136810E0,1.246907043E0,3.913293024E0
7.912282167E0,-7.798782349E-1,-3.600612488E0,1.018631744E0,3.822333185E0
7.922289167E0,-1.476679230E0,-3.538192291E0,7.262896729E-1,3.902163877E0
7.932297167E0,-2.080822906E0,-3.465293884E0,3.469784546E-1,4.056905190E0
7.942305167E0,-2.506986694E0,-3.413202209E0,2.694396973E-3,4.234966218E0
7.952313167E0,-2.826572113E0,-3.316203918E0,-2.297721863E-1,4.363429110E0
7.962320167E0,-3.029999084E0,-3.169508972E0,-3.737727356E-1,4.400725808E0
7.972328167E0,-3.083587646E0,-3.004552002E0,-3.745211792E-1,4.321586702E0
7.982336167E0,-2.976709900E0,-2.843337250E0,-2.689906311E-1,4.125254477E0
7.992344167E0,-2.642454987E0,-2.650238800E0,-2.231858826E-1,3.749152703E0
8.002351167E0,-2.108515320E0,-2.463127899E0,-9.759704590E-2,3.243818904E0
8.012359167E0,-1.346150665E0,-2.309547272E0,7.125183105E-2,2.674174085E0
8.022367167E0,-5.442681885E-1,-2.138752441E0,1.781295776E-1,2.214095755E0
8.032375167E0,2.568658447E-1,-1.925745392E0,4.159849548E-1,1.986836395E0
8.042382167E0,1.385069733E0,-1.774260406E0,8.102650452E-1,2.392268296E0
8.052390167E0,2.714006195E0,-1.763033752E0,1.344504089E0,3.504541180E0
8.062398167E0,4.119433594E0,-1.926344147E0,1.893262939E0,4.925949600E0
8.072406167E0,5.491330719E0,-2.158211975E0,2.303110657E0,6.333791178E0
8.082413167E0,6.893764343E0,-2.465373230E0,2.685415649E0,7.798301686E0
8.092421167E0,8.353379059E0,-2.865491180E0,2.740501099E0,9.246638723E0
8.102429167E0,9.737101593E0,-3.216660919E0,2.652783508E0,1.059222900E1
8.112437167E0,1.130030090E1,-3.393443298E0,2.548749847E0,1.207097277E1
8.122444167E0,1.284523819E1,-3.364403687E0,2.403701477E0,1.349433722E1
8.132452167E0,1.452788910E1,-3.140169983E0,2.456391907E0,1.506499553E1
8.142460167E0,1.643133087E1,-2.759062500E0,2.635269928E0,1.686848267E1
8.152468167E0,1.863744324E1,-2.504591675E0,3.118315430E0,1.906177224E1
8.162475167E0,2.131163223E1,-2.226919098E0,3.987108765E0,2.179545534E1
8.172483167E0,2.376982040E1,-1.377734985E0,4.917873230E0,2.431230127E1
8.182491167E0,2.625944321E1,8.397537231E-2,5.981561279E0,2.693222020E1
8.192499167E0,2.899500458E1,2.208657074E0,6.036347351E0,2.969892163E1
8.202506167E0,2.997441788E1,4.860991516E0,4.431085510E0,3.068761125E1
8.212514167E0,2.801888443E1,7.306755524E0,2.221380615E0,2.904102431E1
8.222522167E0,2.450030136E1,8.527017975E0,2.334694977E0,2.604660444E1
8.232530167E0,2.143467636E1,8.904083862E0,3.766168213E0,2.351408266E1
8.242537167E0,1.997431320E1,9.467512207E0,2.650388489E0,2.226278362E1
8.252545167E0,2.037233551E1,9.825717316E0,5.173242188E-1,2.262397841E1
8.262553167E0,2.094519424E1,9.485025787E0,-8.448431396E-1,2.300827321E1
8.272561167E0,2.093022537E1,8.898246002E0,-1.053808594E0,2.276760041E1
8.282569167E0,2.051154602E1,8.679700470E0,-9.562115479E-1,2.229293747E1
8.292576167E0,2.000425095E1,8.722661133E0,-9.464817810E-1,2.184377946E1
8.302584167E0,1.954096436E1,8.918453979E0,-6.972500610E-1,2.149126025E1
8.312592167E0,1.885613846E1,8.956175537E0,-1.017883301E-2,2.087503632E1
8.322600167E0,1.821142914E1,8.807983704E0,8.102650452E-1,2.024582074E1
8.332607167E0,1.804362808E1,8.417296143E0,1.180594940E0,1.994535518E1
8.342615167E0,1.839599533E1,7.678582306E0,9.848020935E-1,1.995853466E1
8.352623167E0,1.877590530E1,6.802005157E0,9.728269958E-1,1.999370617E1
8.362631167E0,1.904010590E1,5.732479248E0,1.293011169E0,1.992633506E1
8.372638167E0,1.897978134E1,4.600832520E0,1.720372467E0,1.960508712E1
8.382646167E0,1.858924347E1,3.476969604E0,2.186652832E0,1.903761385E1
8.392654167E0,1.788855057E1,2.411634979E0,2.645448761E0,1.824320761E1
8.402662167E0,1.699371140E1,1.405577087E0,3.092718658E0,1.732993891E1
8.412669167E0,1.590951599E1,3.736230469E-1,3.449277191E0,1.628342121E1
8.422677167E0,1.459105774E1,-5.360353088E-1,3.766467590E0,1.507887854E1
8.432684792E0,1.323338104E1,-1.250200195E0,3.923341370E0,1.385922010E1
8.442692792E0,1.194051956E1,-1.790277100E0,3.977828064E0,1.271236467E1
8.452699792E0,1.068163742E1,-2.211950226E0,3.910468140E0,1.158800513E1
8.462707792E0,9.473499756E0,-2.606978760E0,3.686683502E0,1.049453053E1
8.472715792E0,8.325387268E0,-2.980152740E0,3.356170807E0,9.458185133E0
8.482723792E0,7.265890503E0,-3.423231354E0,3.097359009E0,8.608444141E0
8.492730792E0,6.166127472E0,-3.772006073E0,2.856809235E0,7.772420268E0
8.502738792E0,5.066364441E0,-3.958069153E0,2.610421600E0,6.938923620E0
8.512746792E0,3.968547363E0,-3.937262421E0,2.507585449E0,6.126939556E0
8.522754792E0,3.005899200E0,-3.841012573E0,2.410138092E0,5.440365173E0
8.532761792E0,2.245330811E0,-3.820056152E0,2.303110657E0,4.993862048E0
8.542769792E0,1.649869080E0,-3.891607361E0,2.202070770E0,4.766108634E0
8.552777792E0,1.228046265E0,-4.021088104E0,2.072889404E0,4.687655880E0
8.562785792E0,8.443940735E-1,-4.208199005E0,1.891167297E0,4.690250949E0
8.572792792E0,3.728746033E-1,-4.356241150E0,1.691781921E0,4.688069805E0
8.582800792E0,-2.154020691E-1,-4.341272278E0,1.532513123E0,4.608865317E0
8.592808792E0,-7.418572998E-1,-4.217479706E0,1.353635101E0,4.491081753E0
8.602816792E0,-1.160087585E0,-4.143533478E0,1.156045990E0,4.455459036E0
8.612823792E0,-1.529070282E0,-4.067042542E0,1.034648438E0,4.466473816E0
8.622831792E0,-1.838327179E0,-3.905528412E0,1.011147308E0,4.433398005E0
8.632839792E0,-1.931882629E0,-3.697910156E0,9.666897583E-1,4.282662619E0
8.642847792E0,-1.861229553E0,-3.526067505E0,9.033714294E-1,4.088203449E0
8.652854792E0,-1.619033203E0,-3.388653259E0,9.217831421E-1,3.867030332E0
8.662862792E0,-1.006806335E0,-3.345393219E0,9.719288635E-1,3.626287427E0
8.672870792E0,-1.441502380E-1,-3.308120728E0,9.870474243E-1,3.455243068E0
8.682878792E0,7.104226685E-1,-3.186274109E0,9.770182800E-1,3.407580929E0
8.692885792E0,1.723515930E0,-2.989882507E0,9.116043091E-1,3.569443512E0
8.702893792E0,2.752027130E0,-2.797682190E0,9.312135315E-1,4.033340750E0
8.712901792E0,3.996988220E0,-2.615061951E0,1.078656921E0,4.896729990E0
8.722909792E0,5.448220367E0,-2.250869293E0,1.220412140E0,6.019877369E0
8.732916792E0,7.132966919E0,-1.878144379E0,1.360520782E0,7.500510661E0
8.742924792E0,8.942254486E0,-1.618733826E0,1.532662811E0,9.215924793E0
8.752932792E0,1.077399536E1,-1.348845062E0,1.779948578E0,1.100302577E1
8.762940792E0,1.285062698E1,-1.202449493E0,1.814376984E0,1.303366650E1
8.772947792E0,1.475990662E1,-1.208736420E0,1.388362885E0,1.487425422E1
8.782955792E0,1.631696869E1,-1.188678131E0,8.345146179E-1,1.638147849E1
8.792963792E0,1.737721390E1,-8.204438782E-1,5.486091614E-1,1.740521942E1
8.802971792E0,1.803853867E1,-2.453398132E-1,4.622387695E-1,1.804612794E1
8.812978792E0,1.877530655E1,6.433621216E-1,1.675016785E-1,1.878707289E1
8.822986792E0,2.024524979E1,2.160457306E0,7.035369873E-2,2.036032083E1
8.832994792E0,2.221515335E1,3.939807129E0,1.695973206E-1,2.256244406E1
8.843002792E0,2.357507538E1,5.849835205E0,-2.149530029E-1,2.429096449E1
8.853009792E0,2.394106430E1,7.660020905E0,-5.137316895E-1,2.514188538E1
8.863017792E0,2.372940445E1,8.929231567E0,-1.317260742E-1,2.535415476E1
8.873025792E0,2.358285919E1,9.992769928E0,2.402503967E-1,2.561375448E1
8.883033792E0,2.355995682E1,1.083701431E1,1.487905884E-1,2.593327174E1
8.893040792E0,2.312121918E1,1.136182297E1,1.210981750E-1,2.576230700E1
8.903048792E0,2.253069717E1,1.174562485E1,4.608915710E-1,2.541268265E1
8.913056792E0,2.199002151E1,1.199889816E1,1.013242950E0,2.507112412E1
8.923064792E0,2.126358215E1,1.184920944E1,1.398242340E0,2.438234550E1
8.933072792E0,2.044104263E1,1.123204285E1,1.683848419E0,2.338440412E1
8.943079792E0,1.980202148E1,1.038869659E1,1.980531464E0,2.244922218E1
8.953087792E0,1.944381638E1,9.678124237E0,2.056872711E0,2.181648022E1
8.963095792E0,1.916779037E1,9.066346436E0,1.911225586E0,2.128980058E1
8.973103792E0,1.895583115E1,8.513995056E0,1.707648926E0,2.085012497E1
8.983110792E0,1.866348907E1,7.916737061E0,1.531016235E0,2.033087703E1
8.993118792E0,1.829675171E1,7.275769958E0,1.409618683E0,1.974069341E1
9.003126792E0,1.809347443E1,6.534361725E0,1.379381561E0,1.928663769E1
9.013134792E0,1.790546539E1,5.726940765E0,1.515448608E0,1.886001394E1
9.023141792E0,1.755309814E1,4.823868713E0,1.734143829E0,1.828628499E1
9.033149792E0,1.688099579E1,3.792363739E0,1.924248505E0,1.740841101E1
9.043157792E0,1.600307144E1,2.630180511E0,2.084714813E0,1.635121344E1
9.053165792E0,1.484433105E1,1.491947479E0,2.152074738E0,1.507353633E1
9.063172792E0,1.350731140E1,5.450166321E-1,2.237546997E0,1.370223051E1
9.073180792E0,1.217912338E1,-2.773731995E-1,2.282603302E0,1.239428336E1
9.083188792E0,1.084300186E1,-9.746232605E-1,2.225122833E0,1.111178435E1
9.093196792E0,9.708361359E0,-1.466500397E0,2.241438904E0,1.007109488E1
9.103203792E0,8.782386932E0,-1.853296051E0,2.358345795E0,9.280453727E0
9.113211792E0,7.958350525E0,-2.163451080E0,2.304308167E0,8.563042671E0
9.123219792E0,7.193740540E0,-2.301464081E0,2.233206024E0,7.876156995E0
9.133227792E0,6.417754211E0,-2.385738831E0,2.179916840E0,7.185496247E0
9.143234792E0,5.627098389E0,-2.396366730E0,1.984722748E0,6.430080417E0
9.153242792E0,4.969665527E0,-2.329006805E0,1.835932159E0,5.787270086E0
9.163250792E0,4.421505432E0,-2.260599060E0,1.749861145E0,5.265171642E0
9.173258792E0,3.852837982E0,-2.265538788E0,1.552122345E0,4.731396230E0
9.183265792E0,3.308420105E0,-2.287842407E0,1.359472961E0,4.245943147E0
9.193273792E0,2.749332733E0,-2.271975403E0,1.268761597E0,3.785559232E0
9.203281792E0,2.170486450E0,-2.262844391E0,1.277144165E0,3.385642241E0
9.213289792E0,1.603914642E0,-2.299817505E0,1.237027588E0,3.064627219E0
9.223296792E0,1.088087311E0,-2.300565948E0,1.199006653E0,2.813210734E0
9.233304792E0,6.035449219E-1,-2.257904663E0,1.199755096E0,2.627130037E0
9.243312792E0,1.535806274E-1,-2.267634430E0,1.184187469E0,2.562821273E0
9.253320792E0,-2.981799316E-1,-2.276466064E0,1.153351593E0,2.569324602E0
9.263328792E0,-7.526348877E-1,-2.234403534E0,1.157692566E0,2.626646246E0
9.273335792E0,-1.168619843E0,-2.180515594E0,1.124311981E0,2.717424889E0
9.283343792E0,-1.459914093E0,-2.145638123E0,1.100062408E0,2.818731881E0
9.293351792E0,-1.526974640E0,-2.115101624E0,1.116977234E0,2.837771057E0
9.303359792E0,-1.285826111E0,-2.143243103E0,1.104702759E0,2.732619251E0
9.313366792E0,-8.996292114E-1,-2.244133301E0,1.033899994E0,2.629527750E0
9.323374792E0,-4.529580688E-1,-2.285447388E0,1.017883301E0,2.542543449E0
9.333382792E0,4.730163574E-2,-2.280507660E0,1.084644470E0,2.525748653E0
9.343390792E0,6.782395935E-1,-2.370919647E0,1.161135406E0,2.725711715E0
9.353397792E0,1.493144989E0,-2.582878876E0,1.178798676E0,3.207851549E0
9.363405792E0,2.345622253E0,-2.814896393E0,1.211131439E0,3.859070461E0
9.373413792E0,3.374283142E0,-3.026406555E0,1.296304321E0,4.714374641E0
9.383421792E0,4.568499756E0,-3.200344849E0,1.223854980E0,5.710623274E0
9.393428792E0,6.065536652E0,-3.343147888E0,1.189426575E0,7.027240444E0
9.403436792E0,7.882608032E0,-3.338806915E0,1.201701050E0,8.644491102E0
9.413444792E0,9.866282959E0,-3.060984650E0,1.332978058E0,1.041585316E1
9.423452792E0,1.208137665E1,-2.650388489E0,1.563348999E0,1.246708791E1
9.433460208E0,1.427012512E1,-2.228116608E0,1.622326355E0,1.453385418E1
9.443468208E0,1.648132690E1,-1.157991943E0,1.698068848E0,1.660898912E1
9.453476208E0,1.914907928E1,4.433779907E-1,2.026785278E0,1.926114431E1
9.463484208E0,2.197954330E1,1.800306244E0,1.809287567E0,2.212724447E1
9.473491208E0,2.415766388E1,3.286415863E0,8.782237244E-1,2.439599414E1
9.483499208E0,2.533092407E1,4.963378601E0,3.179388428E-1,2.581456811E1
9.493507208E0,2.574541214E1,6.720724182E0,5.590873718E-1,2.661403687E1
9.503515208E0,2.538600952E1,8.886719971E0,7.252418518E-1,2.690630497E1
9.513523208E0,2.437755661E1,1.067220703E1,5.795947266E-1,2.661761070E1
9.523530208E0,2.355217300E1,1.124207199E1,5.391787720E-1,2.610325171E1
9.533538208E0,2.321731934E1,1.106873245E1,2.636018372E-1,2.572217411E1
9.543546208E0,2.296060318E1,1.057116714E1,2.896476746E-1,2.527889968E1
9.553554208E0,2.222458374E1,1.025158173E1,4.305047607E-1,2.447881502E1
9.563561208E0,2.102198456E1,9.988578644E0,5.266049194E-1,2.328031037E1
9.573569208E0,1.958377533E1,9.480834503E0,8.364605713E-1,2.177407048E1
9.583577208E0,1.840318039E1,8.976084137E0,1.277443542E0,2.051533565E1
9.593585208E0,1.777912811E1,8.639583893E0,1.864223328E0,1.985485167E1
9.603592208E0,1.760683640E1,8.334069214E0,2.209704895E0,1.960459623E1
9.613600208E0,1.749561768E1,7.962392120E0,2.104174347E0,1.933711136E1
9.623608208E0,1.738484802E1,7.534132690E0,2.090852051E0,1.906220760E1
9.633616208E0,1.709624817E1,7.135960693E0,2.021695862E0,1.863574229E1
9.643623208E0,1.675959824E1,6.659202118E0,1.916015625E0,1.813560646E1
9.653631208E0,1.655617126E1,6.087391205E0,1.779798889E0,1.772937739E1
9.663639208E0,1.625948822E1,5.445825348E0,1.653311920E0,1.722676439E1
9.673647208E0,1.590307938E1,4.749024353E0,1.631157990E0,1.667698541E1
9.683654208E0,1.536794220E1,3.977678375E0,1.824256439E0,1.597884490E1
9.693662208E0,1.457728638E1,3.192561035E0,2.044747925E0,1.506222819E1
9.703670208E0,1.366223923E1,2.537972260E0,2.296075287E0,1.408439014E1
9.713678208E0,1.276710068E1,1.987866211E0,2.586022339E0,1.317717661E1
9.723686208E0,1.186387894E1,1.437610474E0,2.750829620E0,1.226317295E1
9.733693208E0,1.098984650E1,1.129551086E0,2.860701141E0,1.141210860E1
9.743701208E0,1.018871246E1,8.684939575E-1,3.052602081E0,1.067157546E1
9.753709208E0,9.389374695E0,5.219645691E-1,3.001558228E0,9.871279348E0
9.763717208E0,8.692573700E0,3.454815674E-1,2.995720367E0,9.200789942E0
9.773724208E0,8.026907959E0,2.769241333E-1,3.162623291E0,8.631924724E0
9.783732208E0,7.391329651E0,2.160008240E-1,3.043171692E0,7.996205620E0
9.793740208E0,6.757846985E0,4.116439819E-2,2.705923004E0,7.279574828E0
9.803748208E0,5.980663147E0,-2.010319519E-1,2.432591400E0,6.459585625E0
9.813755208E0,5.214705963E0,-2.929408264E-1,2.254162445E0,5.688604481E0
9.823763208E0,4.599335632E0,-3.086581421E-1,2.136357422E0,5.080667391E0
9.833771208E0,4.072730713E0,-4.305047607E-1,1.909728699E0,4.518797795E0
9.843779208E0,3.507506104E0,-6.583309937E-1,1.582658844E0,3.903947717E0
9.853786208E0,2.869383087E0,-8.171507263E-1,1.399589539E0,3.295443140E0
9.863794208E0,2.200573883E0,-8.029302979E-1,1.284329224E0,2.671464773E0
9.873802208E0,1.600322113E0,-7.866142273E-1,1.132095795E0,2.112210618E0
9.883810208E0,1.118773499E0,-7.906558228E-1,9.987231445E-1,1.695357983E0
9.893817208E0,7.102729797E-1,-7.691006470E-1,8.867559814E-1,1.371983849E0
9.903825208E0,3.754193115E-1,-6.999444580E-1,7.914042664E-1,1.121241551E0
9.913833208E0,1.181044006E-1,-6.517446899E-1,7.450007629E-1,9.968680590E-1
9.923841208E0,-8.397537231E-2,-6.632707214E-1,6.797364807E-1,9.534262406E-1
9.933848208E0,-2.484832764E-1,-6.662644958E-1,6.146218872E-1,9.399001975E-1
9.943856208E0,-3.493734741E-1,-6.101312256E-1,5.420228577E-1,8.877559997E-1
9.953864208E0,-3.508703613E-1,-5.878276062E-1,4.713697815E-1,8.311683199E-1
9.963872208E0,-3.365002441E-1,-6.195616150E-1,4.415817261E-1,8.319155185E-1
9.973880208E0,-2.243833923E-1,-6.605763245E-1,4.390370178E-1,8.242951475E-1
9.983887208E0,-9.280700684E-3,-7.509883118E-1,4.355941772E-1,8.682233947E-1
9.993895208E0,2.221380615E-1,-8.454418945E-1,4.144880676E-1,9.674283816E-1
1.000390321E1,6.321354675E-1,-9.005273438E-1,3.805087280E-1,1.164187115E0
1.001391121E1,1.174308014E0,-8.822653198E-1,3.424877930E-1,1.508207311E0
1.002391821E1,1.880838776E0,-7.601193237E-1,3.854484558E-1,2.064922855E0
1.003392621E1,2.831212463E0,-6.607260132E-1,5.016069031E-1,2.950242763E0
1.004393421E1,3.820954285E0,-6.210585022E-1,5.354365540E-1,3.907953123E0
1.005394221E1,4.680167542E0,-5.188211060E-1,5.649252319E-1,4.742603091E0
1.006394921E1,5.525609436E0,-4.742138672E-1,8.431965637E-1,5.609654078E0
1.007395721E1,6.432274017E0,-4.608915710E-1,1.169967041E0,6.554036386E0
1.008396521E1,7.478149109E0,-4.287084961E-1,1.472038879E0,7.633701824E0
1.009397321E1,8.786727905E0,-5.364843750E-1,1.664239197E0,8.959023098E0
1.010398021E1,1.005159760E1,-6.227050781E-1,1.701062622E0,1.021351996E1
1.011398821E1,1.135658386E1,-5.891748047E-1,1.636097717E0,1.148894859E1
1.012399621E1,1.273806107E1,-4.499642944E-1,1.467099152E0,1.283016163E1
1.013400421E1,1.404005356E1,-2.899470520E-1,1.349294128E0,1.410772015E1
1.014401221E1,1.520103928E1,-3.891906738E-2,1.355281677E0,1.526138585E1
1.015401921E1,1.656620041E1,6.539900208E-1,1.513203278E0,1.664801739E1
1.016402721E1,1.799812271E1,2.085912323E0,2.097288666E0,1.823957431E1
1.017403521E1,1.976340179E1,3.736829224E0,2.698737946E0,2.029381999E1
1.018404321E1,2.169842789E1,5.474116516E0,2.974614258E0,2.257512025E1
1.019405021E1,2.367506744E1,7.226372681E0,3.337160339E0,2.497730810E1
1.020405821E1,2.454520798E1,8.824898529E0,2.840044098E0,2.623760506E1
1.021406621E1,2.397534302E1,9.920919342E0,2.151775360E0,2.603597224E1
1.022407421E1,2.246962418E1,1.058898010E1,1.967508545E0,2.491749586E1
1.023408121E1,2.104174347E1,1.086335953E1,2.578088837E0,2.382045530E1
1.024408921E1,1.998958145E1,1.128503265E1,2.365081787E0,2.307658858E1
1.025409721E1,1.937885147E1,1.143816422E1,1.829495544E0,2.257694707E1
1.026410521E1,1.915027679E1,1.076785812E1,1.735041962E0,2.203838108E1
1.027411221E1,1.880210083E1,9.798923035E0,1.863774261E0,2.128406782E1
1.028412021E1,1.809048065E1,9.042845306E0,2.262245636E0,2.035083037E1
1.029412821E1,1.740939697E1,8.664881287E0,2.270029449E0,1.957856747E1
1.030413621E1,1.701900879E1,8.352331238E0,2.322719879E0,1.909982002E1
1.031414421E1,1.683983139E1,7.931107178E0,2.456691284E0,1.877545510E1
1.032415121E1,1.674208466E1,7.664361877E0,2.343676300E0,1.856159099E1
1.033415921E1,1.673953995E1,7.436535645E0,2.220781860E0,1.845118240E1
1.034416721E1,1.677711182E1,7.156318359E0,2.171234894E0,1.836841404E1
1.035417521E1,1.679417633E1,6.728807373E0,2.146685944E0,1.821893158E1
1.036418221E1,1.679372726E1,6.155499573E0,2.082020416E0,1.800706138E1
1.037419021E1,1.661948959E1,5.440286865E0,1.963466949E0,1.759714062E1
1.038419821E1,1.616308868E1,4.654421082E0,1.963017883E0,1.693406362E1
1.039420621E1,1.555625061E1,3.917054443E0,2.099983063E0,1.617869517E1
1.040421321E1,1.478819778E1,3.202141113E0,2.233655090E0,1.529489184E1
1.041422121E1,1.381716705E1,2.521955566E0,2.355352020E0,1.424156060E1
1.042422921E1,1.278057266E1,1.870809631E0,2.552492065E0,1.316655543E1
1.043423704E1,1.175445648E1,1.338366852E0,2.680625610E0,1.213030200E1
1.044424404E1,1.084270248E1,9.931846619E-1,2.806214447E0,1.124390735E1
1.045425204E1,1.025741959E1,8.701405334E-1,3.050207062E0,1.073664586E1
1.046426004E1,9.925260315E0,7.728428650E-1,3.253933411E0,1.047359351E1
1.047426804E1,9.341025238E0,5.328918457E-1,3.076552277E0,9.849055799E0
1.048427604E1,8.583001556E0,3.670367432E-1,2.804567871E0,9.037047783E0
1.049428304E1,7.691006470E0,2.649490356E-1,2.730022888E0,8.165464070E0
1.050429104E1,6.726112976E0,1.161584473E-1,2.482886810E0,7.170691422E0
1.051429904E1,5.812413025E0,-3.697311401E-2,2.127675476E0,6.189710423E0
1.052430704E1,5.026397552E0,-1.692979431E-1,1.958976288E0,5.397306944E0
1.053431404E1,4.378395081E0,-3.583547974E-1,1.759441223E0,4.732271660E0
1.054432204E1,3.803889771E0,-5.273533630E-1,1.417552185E0,4.093547747E0
1.055433004E1,3.354524231E0,-6.620732117E-1,1.146615601E0,3.606369516E0
1.056433804E1,2.899769897E0,-7.050338745E-1,9.478289795E-1,3.131152822E0
1.057434504E1,2.401007080E0,-6.821315002E-1,8.345146179E-1,2.631834537E0
1.058435304E1,1.925146637E0,-6.099815369E-1,6.900650024E-1,2.134117325E0
1.059436104E1,1.523980865E0,-6.056405640E-1,5.592370605E-1,1.732646606E0
1.060436904E1,1.074166260E0,-6.183641052E-1,5.316943359E-1,1.348668301E0
1.061437704E1,6.752458191E-1,-5.492079163E-1,5.631289673E-1,1.036677619E0
1.062438404E1,4.029620361E-1,-5.144801331E-1,5.992039490E-1,8.866304655E-1
1.063439204E1,2.607577515E-1,-5.182223511E-1,6.532415771E-1,8.736552914E-1
1.064440004E1,2.222877502E-1,-5.993536377E-1,6.535409546E-1,9.141949498E-1
1.065440804E1,2.731819153E-1,-6.936575317E-1,6.111790466E-1,9.640170938E-1
1.066441504E1,4.429289246E-1,-7.890092468E-1,5.792953491E-1,1.074385743E0
1.067442304E1,6.424639893E-1,-8.821156311E-1,5.581892395E-1,1.225750053E0
1.068443104E1,7.478448486E-1,-8.978329468E-1,5.996530151E-1,1.313377195E0
1.069443904E1,9.407936096E-1,-9.439370728E-1,6.869215393E-1,1.499323519E0
1.070444604E1,1.220412140E0,-1.115480347E0,7.411088562E-1,1.811889768E0
1.071445404E1,1.449286194E0,-1.286574554E0,7.556286621E-1,2.080067122E0
1.072446204E1,1.622026978E0,-1.353186035E0,7.782316589E-1,2.251161584E0
1.073447004E1,1.911225586E0,-1.462309113E0,7.704478455E-1,2.526800559E0
1.074447704E1,2.299967194E0,-1.614093475E0,7.000941467E-1,2.895734562E0
1.075448504E1,2.794239349E0,-1.717229004E0,6.676116943E-1,3.346991839E0
1.076449304E1,3.455414429E0,-1.686243439E0,6.427633667E-1,3.898262505E0
1.077450104E1,4.340523834E0,-1.665436707E0,6.304888916E-1,4.691624753E0
1.078450904E1,5.388644257E0,-1.841320953E0,6.716532898E-1,5.734027199E0
1.079451604E1,6.439159698E0,-2.010918274E0,8.340655518E-1,6.797222615E0
1.080452404E1,7.539820862E0,-2.062261505E0,1.209784241E0,7.909829268E0
1.081453204E1,8.926237793E0,-2.144739990E0,1.654359741E0,9.328158281E0
1.082454004E1,1.053793625E1,-2.236948242E0,1.842967529E0,1.092925282E1
1.083454704E1,1.250754044E1,-2.317630463E0,1.878743134E0,1.285844681E1
1.084455504E1,1.449166443E1,-2.059866486E0,1.782193909E0,1.474542651E1
1.085456304E1,1.640318939E1,-1.428629150E0,1.742526398E0,1.655723412E1
1.086457104E1,1.805904602E1,-6.010002136E-1,1.886826324E0,1.816729088E1
1.087457804E1,1.964320175E1,2.152523804E-1,2.200274506E0,1.976721823E1
1.088458604E1,2.136596924E1,1.264121246E0,2.903362427E0,2.159935549E1
1.089459404E1,2.293201263E1,2.845881958E0,3.528911591E0,2.337583078E1
1.090460204E1,2.474234802E1,4.691244507E0,4.120331726E0,2.551800725E1
1.091461004E1,2.629282379E1,6.685397644E0,3.762425995E0,2.738910320E1
1.092461704E1,2.663980225E1,8.599916382E0,2.883453827E0,2.814164053E1
1.093462504E1,2.527973053E1,1.018092865E1,2.304607544E0,2.735008775E1
1.094463304E1,2.324501175E1,1.119821320E1,2.807711334E0,2.595407084E1
1.095464104E1,2.175096863E1,1.204575073E1,3.176394653E0,2.506579801E1
1.096464804E1,2.097153946E1,1.276021500E1,2.292033691E0,2.465526257E1
1.097465604E1,2.068473587E1,1.243554016E1,1.541793823E0,2.418425284E1
1.098466404E1,2.031904633E1,1.129625931E1,1.154100037E0,2.327662056E1
1.099467204E1,1.972942245E1,1.005339386E1,1.334624634E0,2.218337354E1
1.100468004E1,1.897184784E1,9.230554962E0,1.416504364E0,2.114570027E1
1.101468704E1,1.833222794E1,8.774902496E0,1.206790466E0,2.035990762E1
1.102469504E1,1.784933212E1,8.492140503E0,1.295555878E0,1.980892659E1
1.103470304E1,1.752540573E1,8.184380493E0,1.495240631E0,1.939999161E1
1.104471104E1,1.702230194E1,7.835905151E0,1.547781372E0,1.880307954E1
1.105471804E1,1.651590500E1,7.437733154E0,1.570833435E0,1.818137811E1
1.106472604E1,1.640992538E1,6.851402435E0,1.537153473E0,1.784909542E1
1.107473404E1,1.638672363E1,6.148464203E0,1.490450592E0,1.756558472E1
1.108474204E1,1.625559631E1,5.339546356E0,1.587448883E0,1.718357241E1
1.109475004E1,1.609887222E1,4.536316681E0,1.838626556E0,1.682653867E1
1.110475704E1,1.585787338E1,3.788022766E0,2.156116333E0,1.644597526E1
1.111476504E1,1.540536438E1,2.920576630E0,2.463127899E0,1.587205149E1
1.112477304E1,1.475047623E1,2.130669250E0,2.875520325E0,1.517843594E1
1.113478104E1,1.407343414E1,1.540296936E0,3.225193176E0,1.452019057E1
1.114478804E1,1.336974747E1,9.996212769E-1,3.525019684E0,1.386272534E1
1.115479604E1,1.261486725E1,5.445675659E-1,3.680845642E0,1.315218819E1
1.116480404E1,1.182211578E1,1.477427673E-1,3.737427979E0,1.239970231E1
1.117481204E1,1.091185867E1,-2.553689575E-1,3.604504395E0,1.149462157E1
1.118481904E1,9.845476227E0,-6.048921204E-1,3.278182983E0,1.039450722E1
1.119482704E1,8.777447205E0,-8.268804932E-1,3.035387878E0,9.324209905E0
1.120483504E1,7.830666046E0,-1.007405090E0,2.821333008E0,8.384158615E0
1.121484304E1,6.894363098E0,-1.294358368E0,2.460134125E0,7.433698005E0
1.122485104E1,6.002517700E0,-1.586999817E0,2.101479950E0,6.554769648E0
1.123485804E1,5.163811798E0,-1.863474884E0,1.887874146E0,5.805304447E0
1.124486604E1,4.262985077E0,-1.925595703E0,1.681004333E0,4.970587103E0
1.125487404E1,3.341501312E0,-1.867366791E0,1.456920319E0,4.095766908E0
1.126488204E1,2.517913971E0,-1.824106750E0,1.297501831E0,3.369089967E0
1.127488904E1,1.825004883E0,-1.786085815E0,1.212328949E0,2.826744920E0
1.128489704E1,1.256187744E0,-1.730251923E0,1.103954315E0,2.406344633E0
1.129490504E1,8.149053955E-1,-1.676513672E0,9.114546204E-1,2.074974318E0
1.130491304E1,5.126838684E-1,-1.642684021E0,7.470964050E-1,1.876008683E0
1.131492104E1,2.200424194E-1,-1.586850128E0,6.156697083E-1,1.716263728E0
1.132492804E1,-5.688171387E-2,-1.508712616E0,5.289999390E-1,1.599778179E0
1.133493604E1,-2.694396973E-1,-1.465452576E0,4.825964355E-1,1.566221032E0
1.134494404E1,-4.044589233E-1,-1.425785065E0,4.623884583E-1,1.552499004E0
1.135495204E1,-4.394860840E-1,-1.415306854E0,4.387376404E-1,1.545552402E0
1.136495904E1,-3.841012573E-1,-1.418150940E0,4.604425049E-1,1.539705545E0
1.137496704E1,-2.469863892E-1,-1.382525024E0,5.189707947E-1,1.497233584E0
1.138497504E1,-2.993774414E-3,-1.351090393E0,5.384303284E-1,1.454428215E0
1.139498304E1,3.192860413E-1,-1.358874207E0,5.316943359E-1,1.493714013E0
1.140499104E1,6.544390869E-1,-1.393302612E0,5.679190063E-1,1.640766493E0
1.141499804E1,1.042581940E0,-1.427731018E0,6.331832886E-1,1.877848247E0
1.142500604E1,1.573976898E0,-1.443897400E0,6.788383484E-1,2.241219418E0
1.143501721E1,2.164049835E0,-1.471440125E0,7.107220459E-1,2.711710448E0
1.144502521E1,2.859503632E0,-1.503922577E0,7.884104919E-1,3.325678162E0
1.145503221E1,3.640130310E0,-1.467248840E0,9.259744263E-1,4.032467789E0
1.146504021E1,4.582121429E0,-1.417402496E0,1.129850464E0,4.927618969E0
1.147504821E1,5.781876526E0,-1.323098602E0,1.232237549E0,6.057977835E0
1.148505621E1,7.197333069E0,-1.288969574E0,1.284778290E0,7.423860257E0
1.149506321E1,8.618028717E0,-1.218017120E0,1.339414673E0,8.806135153E0
1.150507121E1,9.948611755E0,-9.337582397E-1,1.400188293E0,1.008996073E1
1.151507921E1,1.142304565E1,-6.689588928E-1,1.544488220E0,1.154638133E1
1.152508721E1,1.278401550E1,-4.986131287E-1,1.632954254E0,1.289752717E1
1.153509521E1,1.390398651E1,-1.916015625E-1,1.716031494E0,1.401079285E1
1.154510221E1,1.486828125E1,1.624122620E-1,1.835782471E0,1.498206469E1
1.155511021E1,1.592747864E1,4.679269409E-1,2.012564850E0,1.606094482E1
1.156511821E1,1.704954529E1,9.244775391E-1,2.150877228E0,1.720953010E1
1.157512621E1,1.793734909E1,1.395248566E0,2.199825439E0,1.812551911E1
1.158513321E1,1.852143448E1,1.816921692E0,2.121089172E0,1.873082376E1
1.159514121E1,1.897768570E1,2.568209381E0,2.095492401E0,1.926497709E1
1.160514921E1,1.971969269E1,3.933969269E0,2.462080078E0,2.025843608E1
1.161515721E1,2.076631622E1,5.644013214E0,2.845732269E0,2.170697968E1
1.162516521E1,2.201771393E1,7.266638947E0,2.846780090E0,2.335996415E1
1.163517221E1,2.306463684E1,8.688532104E0,2.582579498E0,2.478180340E1
1.164518021E1,2.348885468E1,1.000264938E1,2.402953033E0,2.564280546E1
1.165518821E1,2.323019257E1,1.113998428E1,2.230361938E0,2.585953617E1
1.166519621E1,2.256647278E1,1.185834045E1,2.063159637E0,2.557581982E1
1.167520321E1,2.180530563E1,1.194036987E1,1.964963837E0,2.493802056E1
1.168521121E1,2.108859604E1,1.162093414E1,1.876348114E0,2.415151497E1
1.169521921E1,2.054597443E1,1.087563400E1,1.921554108E0,2.332614092E1
1.170522721E1,2.005649231E1,1.006581802E1,1.998943176E0,2.252952175E1
1.171523521E1,1.958063187E1,9.411528625E0,1.841021576E0,2.180292127E1
1.172524221E1,1.919742874E1,8.796757050E0,1.712888031E0,2.118627363E1
1.173525021E1,1.880344803E1,8.268206177E0,1.720821533E0,2.061295995E1
1.174525821E1,1.846350494E1,7.799680481E0,1.756896515E0,2.012020665E1
1.175526621E1,1.799033890E1,7.292535095E0,1.656754761E0,1.948276670E1
1.176527421E1,1.748813324E1,6.697073364E0,1.646575928E0,1.879885125E1
1.177528121E1,1.703652237E1,6.026168518E0,1.746268616E0,1.815508897E1
1.178528921E1,1.669208862E1,5.206772461E0,1.851799164E0,1.758310161E1
1.179529721E1,1.632894379E1,4.303101654E0,1.974992981E0,1.700152012E1
1.180530521E1,1.583122879E1,3.472628632E0,2.199526062E0,1.635618750E1
1.181531221E1,1.529549286E1,2.705324249E0,2.425556030E0,1.572113874E1
1.182532021E1,1.448837128E1,1.869163055E0,2.618953857E0,1.484134738E1
1.183532821E1,1.347048798E1,1.091979218E0,2.709066467E0,1.378352299E1
1.184533621E1,1.246233444E1,4.613406372E-1,2.824626160E0,1.278675596E1
1.185534321E1,1.149699188E1,-5.044509888E-2,2.993475037E0,1.188041497E1
1.186535121E1,1.057251434E1,-4.427792358E-1,3.141217804E0,1.103817749E1
1.187535921E1,9.611812134E0,-7.695497131E-1,3.104095001E0,1.012988376E1
1.188536721E1,8.635542297E0,-1.026864624E0,2.933449860E0,9.177808551E0
1.189537521E1,7.794291687E0,-1.184187469E0,2.822380829E0,8.373715807E0
1.190538221E1,7.058721313E0,-1.313368835E0,2.748284912E0,7.687883599E0
1.191539021E1,6.291716309E0,-1.448238373E0,2.533930664E0,6.935697016E0
1.192539821E1,5.569917297E0,-1.531465302E0,2.324815521E0,6.226887816E0
1.193540621E1,4.948260040E0,-1.598974915E0,2.221380615E0,5.654779398E0
1.194541321E1,4.399650879E0,-1.724114685E0,2.086361389E0,5.165501249E0
1.195542121E1,3.873644714E0,-1.886227570E0,1.919757843E0,4.716826051E0
1.196542921E1,3.323089600E0,-1.915117493E0,1.820963287E0,4.245763393E0
1.197543721E1,2.717449036E0,-1.834285583E0,1.737287292E0,3.710431242E0
1.198544521E1,2.176324310E0,-1.710942078E0,1.735041962E0,3.267121195E0
1.199545221E1,1.725761261E0,-1.558558960E0,1.726958771E0,2.896505577E0
1.200546021E1,1.394799500E0,-1.420096893E0,1.723665619E0,2.633090199E0
1.201546821E1,1.109343109E0,-1.344803467E0,1.680405579E0,2.421342893E0
1.202547621E1,8.336164856E-1,-1.271006927E0,1.612895966E0,2.216260014E0
1.203548321E1,5.792953491E-1,-1.176403656E0,1.555864563E0,2.034753843E0
1.204549121E1,4.010160828E-1,-1.072220306E0,1.488953705E0,1.878151596E0
1.205549921E1,2.766247559E-1,-1.039288788E0,1.400038605E0,1.765432110E0
1.206550721E1,2.165995789E-1,-1.027313690E0,1.338067474E0,1.700797860E0
1.207551521E1,2.279759216E-1,-1.017583923E0,1.306782532E0,1.671864422E0
1.208552221E1,3.158432007E-1,-1.046922913E0,1.295256500E0,1.695138317E0
1.209553021E1,3.968247986E-1,-9.999206543E-1,1.316212921E0,1.699919907E0
1.210553821E1,5.586383057E-1,-9.485774231E-1,1.328337708E0,1.725212146E0
1.211554621E1,8.122109985E-1,-9.460327148E-1,1.308578796E0,1.807496354E0
1.212555321E1,1.116977234E0,-1.036295013E0,1.279389496E0,1.989568541E0
1.213556121E1,1.425934753E0,-1.147962799E0,1.194216614E0,2.185694816E0
1.214556921E1,1.749262390E0,-1.226100311E0,1.106948090E0,2.405945751E0
1.215557721E1,2.237996063E0,-1.283281403E0,1.018631744E0,2.773634469E0
1.216558521E1,2.917882233E0,-1.396745453E0,9.030720520E-1,3.358641647E0
1.217559221E1,3.750600586E0,-1.555415497E0,7.424560547E-1,4.127658309E0
1.218560021E1,4.690795441E0,-1.700912933E0,5.769003296E-1,5.022895645E0
1.219560821E1,5.800437927E0,-1.879042511E0,4.460723877E-1,6.113498301E0
1.220561621E1,7.052135010E0,-1.856140137E0,3.628454590E-1,7.301336948E0
1.221562421E1,8.534203033E0,-1.672322388E0,3.152444458E-1,8.702221707E0
1.222563121E1,1.036714142E1,-1.549128571E0,3.161425781E-1,1.048700942E1
1.223563921E1,1.221265366E1,-1.272952881E0,2.736309814E-1,1.228186436E1
1.224564721E1,1.416728897E1,-7.212002563E-1,4.691244507E-1,1.419338875E1
1.225565521E1,1.629735947E1,-7.110214233E-2,9.307644653E-1,1.632407129E1
1.226566221E1,1.862082779E1,7.047344971E-1,1.309027863E0,1.868008116E1
1.227567021E1,2.093546448E1,1.684297485E0,1.423390045E0,2.105128429E1
1.228567821E1,2.291135559E1,2.919977875E0,1.572929077E0,2.315017477E1
1.229568621E1,2.417068680E1,4.512516174E0,1.299447784E0,2.462262104E1
1.230569421E1,2.445539474E1,6.209686890E0,7.762857056E-1,2.524339840E1
1.231570121E1,2.388807449E1,7.735763397E0,5.153782654E-1,2.511469198E1
1.232570921E1,2.305086548E1,8.794661407E0,6.727011108E-1,2.468078190E1
1.233571721E1,2.221754837E1,9.732311554E0,6.045927429E-1,2.426320004E1
1.234572521E1,2.167342987E1,1.047237259E1,6.291416931E-1,2.407911895E1
1.235573321E1,2.157598251E1,1.096859070E1,3.520678711E-1,2.420654777E1
1.236574021E1,2.176982941E1,1.095362183E1,4.481680298E-1,2.437433400E1
1.237574821E1,2.158032349E1,1.063613205E1,5.653742981E-1,2.406568750E1
1.238575621E1,2.079909805E1,1.040037231E1,5.822891235E-1,2.326175584E1
1.239576421E1,1.987222549E1,1.016715729E1,5.719606018E-1,2.232943287E1
1.240577121E1,1.920386536E1,9.807155914E0,5.884263611E-1,2.157116124E1
1.241577921E1,1.869671997E1,9.549391937E0,6.343807983E-1,2.100382496E1
1.242578721E1,1.839973755E1,9.370962982E0,6.538403320E-1,2.065896407E1
1.243579546E1,1.814870956E1,9.020391998E0,5.683680725E-1,2.027476690E1
1.244580346E1,1.793450500E1,8.458909607E0,4.044589233E-1,1.983338621E1
1.245581046E1,1.775802200E1,7.827073517E0,3.658392334E-1,1.940990118E1
1.246581846E1,1.751313126E1,7.143145752E0,4.751119995E-1,1.891983163E1
1.247582646E1,1.728964600E1,6.356232147E0,7.149133301E-1,1.843487583E1
1.248583446E1,1.694431412E1,5.407355347E0,9.632469177E-1,1.781227435E1
1.249584246E1,1.636636597E1,4.402345276E0,1.118773499E0,1.698500024E1
1.250584946E1,1.555684937E1,3.386856995E0,1.332828369E0,1.597694570E1
1.251585746E1,1.456321564E1,2.445165253E0,1.657652893E0,1.485980807E1
1.252586546E1,1.342767700E1,1.615141296E0,1.995650024E0,1.367091109E1
1.253587346E1,1.226235031E1,8.729846191E-1,2.194137268E0,1.248765693E1
1.254588046E1,1.112890732E1,2.562670898E-1,2.210153961E0,1.134914232E1
1.255588846E1,1.008812164E1,-3.038681030E-1,2.308649139E0,1.035337602E1
1.256589646E1,9.159901886E0,-7.839198303E-1,2.385888519E0,9.497936454E0
1.257590446E1,8.365054779E0,-1.139580231E0,2.418670349E0,8.781955979E0
1.258591246E1,7.672894135E0,-1.387913818E0,2.433190155E0,8.168232581E0
1.259591946E1,7.205715637E0,-1.523831177E0,2.460283813E0,7.765139776E0
1.260592746E1,6.831493835E0,-1.649420013E0,2.508782959E0,7.462163650E0
1.261593546E1,6.395450592E0,-1.834435272E0,2.436782684E0,7.085538151E0
1.262594346E1,5.994733887E0,-1.954036560E0,2.356848907E0,6.731257685E0
1.263595046E1,5.604944458E0,-2.023941193E0,2.355651398E0,6.407872801E0
1.264595846E1,5.113067322E0,-2.129920807E0,2.346969452E0,6.015670012E0
1.265596646E1,4.483177185E0,-2.200424194E0,2.301763458E0,5.498987118E0
1.266597446E1,3.873195648E0,-2.214944000E0,2.253264313E0,4.998481921E0
1.267598246E1,3.324436798E0,-2.224524078E0,2.181862793E0,4.556414451E0
1.268598946E1,2.869233398E0,-2.269430695E0,2.101180573E0,4.218741017E0
1.269599746E1,2.448907471E0,-2.337089996E0,2.043849792E0,3.954296325E0
1.270600546E1,2.017803955E0,-2.287393341E0,1.953288116E0,3.622020923E0
1.271601346E1,1.607058105E0,-2.263742523E0,1.927691345E0,3.379816547E0
1.272602146E1,1.221310272E0,-2.209405518E0,1.949246521E0,3.189456619E0
1.273602846E1,8.866062927E-1,-2.116748199E0,1.914668427E0,2.988753727E0
1.274603646E1,6.442602539E-1,-2.024390259E0,1.863474884E0,2.825909736E0
1.275604446E1,5.138813782E-1,-1.980531464E0,1.788780212E0,2.717777327E0
1.276605246E1,4.204756165E-1,-2.008074188E0,1.658251648E0,2.637984120E0
1.277605946E1,4.037104797E-1,-2.021695862E0,1.530866547E0,2.567837357E0
1.278606746E1,4.848417664E-1,-2.007475433E0,1.468296661E0,2.533954269E0
1.279607546E1,5.858816528E-1,-2.001787262E0,1.418001251E0,2.522129478E0
1.280608346E1,7.815248108E-1,-2.036515045E0,1.318757629E0,2.548979451E0
1.281609146E1,1.106948090E0,-2.117646332E0,1.228645020E0,2.686880839E0
1.282609846E1,1.487456818E0,-2.139500885E0,1.117575989E0,2.835307375E0
1.283610646E1,2.012115784E0,-2.131118317E0,1.007704468E0,3.099313392E0
1.284611446E1,2.862347717E0,-2.176024933E0,8.574169922E-1,3.696387813E0
1.285612246E1,3.893703003E0,-2.193538513E0,6.527925110E-1,4.516488940E0
1.286613046E1,5.047653351E0,-2.285597076E0,4.134402466E-1,5.556409919E0
1.287613746E1,6.552174683E0,-2.548151093E0,2.821632385E-1,7.035885385E0
1.288614546E1,8.186625824E0,-2.852468262E0,2.019300842E-1,8.671689185E0
1.289615346E1,9.981094208E0,-3.135379944E0,1.305285645E-1,1.046278580E1
1.290616146E1,1.233539841E1,-3.341651001E0,1.299298096E-1,1.278067162E1
1.291616846E1,1.483759506E1,-3.032094727E0,6.197113037E-2,1.514436087E1
1.292617646E1,1.759770538E1,-2.287543030E0,-2.559677124E-2,1.774578099E1
1.293618446E1,2.055076447E1,-1.328487396E0,4.864883423E-2,2.059371665E1
1.294619246E1,2.297781738E1,8.352630615E-2,4.346960449E-1,2.298208061E1
1.295620046E1,2.468097565E1,1.996548157E0,1.024469604E0,2.478278236E1
1.296620746E1,2.580663483E1,4.000431061E0,1.766326904E0,2.617452503E1
1.297621546E1,2.583896759E1,5.995931396E0,2.466570740E0,2.663995891E1
1.298622346E1,2.480401978E1,7.819140015E0,2.616858215E0,2.613859779E1
1.299623146E1,2.376518005E1,8.861422577E0,2.725232849E0,2.550951758E1
1.300623946E1,2.334500381E1,9.617200928E0,2.666255493E0,2.538875096E1
1.301624646E1,2.314247498E1,1.032313293E1,2.471360779E0,2.546073144E1
1.302625446E1,2.279983749E1,1.065304688E1,2.312091980E0,2.527183742E1
1.303626246E1,2.206381805E1,1.047102539E1,2.229463806E0,2.452396682E1
1.304627046E1,2.107063339E1,9.980345764E0,2.358794861E0,2.343379624E1
1.305627846E1,2.012894165E1,9.447304230E0,2.316732330E0,2.235605282E1
1.306628546E1,1.927960785E1,9.014254761E0,1.830543365E0,2.136143620E1
1.307629346E1,1.846110992E1,8.706644440E0,1.447938995E0,2.046252097E1
1.308630146E1,1.766012558E1,8.391699371E0,1.404678955E0,1.960290225E1
1.309630946E1,1.702454727E1,8.112380219E0,1.514999542E0,1.891933261E1
1.310631646E1,1.674298279E1,7.771688690E0,1.424288177E0,1.851364941E1
1.311632446E1,1.676064606E1,7.202123108E0,1.436862030E0,1.829902746E1
1.312633246E1,1.682216812E1,6.356232147E0,1.767524414E0,1.806962008E1
1.313634046E1,1.702305038E1,5.475314026E0,2.275268555E0,1.802609650E1
1.314634846E1,1.711555801E1,4.612059174E0,2.721041565E0,1.793369686E1
1.315635546E1,1.705358688E1,3.694617004E0,3.088078308E0,1.772036253E1
1.316636346E1,1.674403061E1,2.744692383E0,3.478167114E0,1.732032170E1
1.317637146E1,1.619392456E1,1.997146912E0,3.845503235E0,1.676364172E1
1.318637946E1,1.558064987E1,1.375040588E0,4.156406708E0,1.618403855E1
1.319638746E1,1.502395752E1,7.334747314E-1,4.318818970E0,1.564958408E1
1.320639446E1,1.433359314E1,1.101708984E-1,4.377646637E0,1.498758887E1
1.321640246E1,1.352257965E1,-4.710704041E-1,4.331093445E0,1.420705593E1
1.322641046E1,1.268791534E1,-9.190887451E-1,4.198768616E0,1.339617773E1
1.323641846E1,1.187211182E1,-1.287322998E0,4.007915497E0,1.259633384E1
1.324642646E1,1.105047043E1,-1.581461334E0,3.740571442E0,1.177309608E1
1.325643346E1,1.022373962E1,-1.839075623E0,3.459905090E0,1.094888096E1
1.326644146E1,9.292825470E0,-2.112706604E0,3.078348541E0,1.001480724E1
1.327644946E1,8.196804657E0,-2.320474548E0,2.638263702E0,8.918107651E0
1.328645746E1,7.176226959E0,-2.501448212E0,2.277214508E0,7.933547910E0
1.329646446E1,6.295009460E0,-2.708318024E0,2.017953644E0,7.143827233E0
1.330647246E1,5.430557098E0,-2.830314331E0,1.742376709E0,6.366907115E0
1.331648046E1,4.599635010E0,-2.936892700E0,1.484612732E0,5.655621621E0
1.332648846E1,3.785627747E0,-3.020568695E0,1.244212646E0,5.000287770E0
1.333649646E1,2.980152740E0,-3.092119904E0,1.147214355E0,4.445066550E0
1.334650346E1,2.236499176E0,-3.122057648E0,1.037791901E0,3.978213738E0
1.335651146E1,1.558558960E0,-3.084485779E0,9.583071899E-1,3.586294916E0
1.336651946E1,9.506730652E-1,-3.057841187E0,9.086105347E-1,3.328625107E0
1.337652746E1,4.507127380E-1,-3.091371460E0,8.309220886E-1,3.232669329E0
1.338653546E1,-7.244934082E-2,-3.160078583E0,7.346722412E-1,3.245163919E0
1.339654246E1,-6.024971008E-1,-3.160078583E0,6.141728210E-1,3.275104221E0
1.340655046E1,-1.080602875E0,-3.074157257E0,4.875361633E-1,3.294819711E0
1.341655846E1,-1.521585846E0,-2.999761963E0,3.216810608E-1,3.378945697E0
1.342656646E1,-1.839375000E0,-2.914140015E0,1.438508606E-1,3.449087631E0
1.343656967E1,-1.920955353E0,-2.799927521E0,4.595443726E-2,3.395846787E0
1.344657767E1,-1.689386902E0,-2.772833862E0,2.095642090E-3,3.246943197E0
1.345658567E1,-1.177002411E0,-2.853665771E0,-8.277786255E-2,3.087975904E0
1.346659367E1,-6.462062073E-1,-2.910547485E0,-4.700225830E-2,2.981791129E0
1.347660167E1,-1.761836243E-1,-2.812351685E0,6.676116943E-2,2.818655658E0
1.348660867E1,4.939727783E-1,-2.733465729E0,1.281335449E-1,2.780694554E0
1.349661667E1,1.299597473E0,-2.722688141E0,2.165995789E-1,3.024714810E0
1.350662467E1,2.223027191E0,-2.587968292E0,3.391946411E-1,3.428481118E0
1.351663267E1,3.672014008E0,-2.321073303E0,3.731739807E-1,4.360083367E0
1.352664067E1,5.660628662E0,-2.120640106E0,5.391787720E-1,6.068817435E0
1.353664767E1,7.848928070E0,-1.734443207E0,1.008452911E0,8.101292635E0
1.354665567E1,1.026729904E1,-8.631051636E-1,1.092727661E0,1.036129499E1
1.355666367E1,1.261097534E1,2.420466614E-1,1.108894043E0,1.266194818E1
1.356667167E1,1.490929596E1,1.093625793E0,1.275647278E0,1.500367953E1
1.357667967E1,1.728904724E1,1.465751953E0,1.100212097E0,1.738591528E1
1.358668667E1,1.823612778E1,2.065554657E0,1.006057892E0,1.838028903E1
1.359669467E1,1.979064514E1,3.085832977E0,1.631607056E0,2.009612256E1
1.360670267E1,2.150338348E1,4.325255585E0,2.525099030E0,2.207893707E1
1.361671067E1,2.200139786E1,5.729186096E0,3.378324738E0,2.298473752E1
1.362671767E1,2.229808090E1,6.585854645E0,4.553680573E0,2.369206407E1
1.363672567E1,2.240690460E1,6.858138428E0,6.279890900E0,2.425985297E1
1.364673367E1,2.196607132E1,7.499404907E0,7.935298462E0,2.452994751E1
1.365674167E1,2.179707275E1,8.659193115E0,8.698710938E0,2.501522692E1
1.366674967E1,2.182925583E1,9.836644592E0,8.875643005E0,2.553532897E1
1.367675667E1,2.154140442E1,1.052371582E1,8.729097748E0,2.551426751E1
1.368676467E1,2.133737869E1,1.094718521E1,7.751480713E0,2.520337372E1
1.369677267E1,2.134142029E1,1.096709381E1,6.976841583E0,2.498819091E1
1.370678067E1,2.128004791E1,1.042147842E1,6.564598846E0,2.458742788E1
1.371678867E1,2.083427490E1,9.888586578E0,6.018684082E0,2.383433895E1
1.372679567E1,2.037502991E1,9.638307037E0,5.589227142E0,2.322236565E1
1.373680367E1,1.992147308E1,8.989556122E0,5.429359589E0,2.252010556E1
1.374681167E1,1.944216980E1,8.234975281E0,5.501958618E0,2.181935684E1
1.375681967E1,1.881377655E1,7.646399231E0,5.448669434E0,2.102649776E1
1.376682767E1,1.786924072E1,6.736890564E0,5.035678253E0,1.974977250E1
1.377683467E1,1.692440552E1,5.540428619E0,4.669240265E0,1.841015090E1
1.378684267E1,1.614931732E1,4.489314423E0,4.349355469E0,1.731679205E1
1.379685067E1,1.519145920E1,3.430865479E0,3.955674133E0,1.606856024E1
1.380685867E1,1.438568481E1,2.337389374E0,3.582350464E0,1.500814950E1
1.381686667E1,1.382031052E1,1.287023621E0,3.114872589E0,1.422532403E1
1.382687367E1,1.320434143E1,1.890568542E-1,2.888842621E0,1.351798013E1
1.383688167E1,1.239213043E1,-7.455995178E-1,2.979553986E0,1.276708883E1
1.384688967E1,1.106184677E1,-1.214873657E0,3.005599823E0,1.152709861E1
1.385689767E1,9.771529999E0,-1.197809143E0,2.900368652E0,1.026302507E1
1.386690567E1,9.036708069E0,-1.471589813E0,2.734214172E0,9.555291541E0
1.387691267E1,8.481512604E0,-2.059716797E0,2.590662689E0,9.104395779E0
1.388692067E1,8.035589905E0,-2.459535370E0,2.501298523E0,8.767925277E0
1.389692867E1,7.400760040E0,-2.674488373E0,2.237097931E0,8.180998984E0
1.390693667E1,6.793622589E0,-2.899320831E0,2.210603027E0,7.710131965E0
1.391694367E1,5.499563599E0,-3.118016052E0,1.700912933E0,6.546780024E0
1.392695167E1,4.266128540E0,-3.028352509E0,1.559157715E0,5.459097399E0
1.393695967E1,3.398981781E0,-2.891087952E0,1.597028961E0,4.739405890E0
1.394696767E1,2.693648529E0,-2.899470520E0,1.811532898E0,4.352507683E0
1.395697567E1,1.882485352E0,-2.921774139E0,1.517095184E0,3.792373006E0
1.396698267E1,9.976753235E-1,-2.831661530E0,1.092128906E0,3.194747035E0
1.397699067E1,3.062631226E-1,-2.620301056E0,1.044078827E0,2.837230220E0
1.398699867E1,-1.032852173E-1,-2.398761749E0,9.824070740E-1,2.594195333E0
1.399700667E1,-3.218307495E-1,-2.424807587E0,6.259982300E-1,2.524904087E0
1.400701467E1,-7.282356262E-1,-2.577041016E0,3.537144470E-1,2.701218509E0
1.401702167E1,-1.122366028E0,-2.568808136E0,3.766168213E-1,2.828483864E0
1.402702967E1,-1.300645294E0,-2.594853973E0,5.864804077E-1,2.961233627E0
1.403703767E1,-1.687890015E0,-2.393073578E0,7.182064819E-1,3.015227090E0
1.404704567E1,-2.129920807E0,-2.048789520E0,8.801696777E-1,3.083634188E0
1.405705367E1,-2.190993805E0,-1.928888855E0,7.840695190E-1,3.022553735E0
1.406706067E1,-1.899549866E0,-1.864822083E0,5.276527405E-1,2.713718575E0
1.407706867E1,-1.152303772E0,-1.694626007E0,5.066963196E-1,2.110995606E0
1.408707667E1,-4.538562012E-1,-1.486558685E0,5.378315735E-1,1.644720334E0
1.409708467E1,1.881587219E-1,-1.264570312E0,7.418572998E-1,1.478138706E0
1.410709167E1,1.051413574E0,-9.279203796E-1,7.472460938E-1,1.588988187E0
1.411709967E1,2.414628754E0,-6.911128235E-1,8.457412720E-1,2.650159854E0
1.412710767E1,3.838467865E0,-4.463717651E-1,1.254840546E0,4.062967893E0
1.413711567E1,5.225483551E0,-2.529739380E-1,1.285227356E0,5.387159132E0
1.414712367E1,6.584956512E0,-1.983375549E-1,1.458267517E0,6.747409444E0
1.415713067E1,8.136929169E0,1.248403931E-1,2.340682526E0,8.467821214E0
1.416713867E1,1.041818527E1,5.692662048E-1,2.539918213E0,1.073842786E1
1.417714667E1,1.316063232E1,1.002764740E0,2.345771942E0,1.340561175E1
1.418715467E1,1.554831711E1,1.616937561E0,1.845063171E0,1.574067693E1
1.419716267E1,1.709235626E1,2.368225250E0,1.289119263E0,1.730372682E1
1.420716967E1,1.763797165E1,3.547772369E0,4.791535950E-1,1.799761987E1
1.421717767E1,1.829091385E1,4.901557159E0,7.026388550E-1,1.894931380E1
1.422718567E1,1.944710953E1,6.569538574E0,1.508862305E0,2.058216635E1
1.423719367E1,2.114188522E1,8.140222321E0,1.876348114E0,2.273242645E1
1.424720167E1,2.254671387E1,8.954379272E0,2.097737732E0,2.435027141E1
1.425720867E1,2.353226440E1,9.718091125E0,2.788551178E0,2.561219984E1
1.426721667E1,2.399869446E1,1.055515045E1,3.102598114E0,2.640027749E1
1.427722467E1,2.341909973E1,1.150552414E1,3.498674469E0,2.632626143E1
1.428723267E1,2.283651123E1,1.211236221E1,3.877087555E0,2.613900097E1
1.429724067E1,2.225541962E1,1.262534546E1,3.801644440E0,2.586804111E1
1.430724767E1,2.111419281E1,1.287382874E1,3.441942444E0,2.496781072E1
1.431725567E1,1.994108231E1,1.239362732E1,3.132535858E0,2.368673769E1
1.432726367E1,1.869342682E1,1.218795502E1,2.551294556E0,2.246106760E1
1.433727167E1,1.799318298E1,1.162871796E1,2.165696411E0,2.153304336E1
1.434727967E1,1.739457779E1,1.124880798E1,1.717528381E0,2.078597896E1
1.435728667E1,1.701077591E1,1.085946762E1,1.320404205E0,2.022468792E1
1.436729467E1,1.657907364E1,1.020832169E1,9.861492920E-1,1.949481995E1
1.437730267E1,1.591640167E1,9.695637817E0,9.500743103E-1,1.866118635E1
1.438731067E1,1.584275482E1,8.796906738E0,9.765692139E-1,1.814751046E1
1.439731867E1,1.548978882E1,7.988887024E0,1.018332367E0,1.745831820E1
1.440732567E1,1.496168701E1,7.141798553E0,1.251846771E0,1.662601832E1
1.441733367E1,1.463596436E1,6.133195953E0,1.371897125E0,1.592826566E1
1.442734167E1,1.400487671E1,5.287754059E0,1.534309387E0,1.504828960E1
1.443734933E1,1.312036606E1,4.408632202E0,1.674567719E0,1.394217416E1
1.444735733E1,1.231010101E1,3.336112518E0,1.725162506E0,1.287029212E1
1.445736433E1,1.150881729E1,2.428849182E0,1.778451691E0,1.189601085E1
1.446737233E1,1.078612015E1,1.708846436E0,1.929637299E0,1.108981713E1
1.447738033E1,1.018347336E1,9.556127930E-1,2.065255280E0,1.043463487E1
1.448738833E1,9.309440918E0,2.182461548E-1,2.011517029E0,9.526779222E0
1.449739633E1,8.251590729E0,-2.423460388E-1,2.017803955E0,8.498177096E0
1.450740333E1,7.337591400E0,-9.144483948E-1,1.911075897E0,7.637321160E0
1.451741133E1,6.253395996E0,-1.204096069E0,1.782942352E0,6.613145413E0
1.452741933E1,5.254972229E0,-1.527124329E0,1.594783630E0,5.700015497E0
1.453742733E1,4.296665039E0,-1.729204102E0,1.421893158E0,4.844920787E0
1.454743433E1,3.531306610E0,-1.946552124E0,1.236428833E0,4.217576058E0
1.455744233E1,2.744243317E0,-2.128124542E0,1.102756805E0,3.643605086E0
1.456745033E1,2.120191040E0,-2.452949066E0,9.963281250E-1,3.391878373E0
1.457745833E1,1.465751953E0,-2.638263702E0,9.527687073E-1,3.164906375E0
1.458746633E1,9.083111572E-1,-2.805915070E0,9.412426758E-1,3.095824012E0
1.459747333E1,3.653901672E-1,-3.031795349E0,8.388555908E-1,3.166855178E0
1.460748133E1,-1.878593445E-1,-3.133883057E0,9.012757874E-1,3.266314772E0
1.461748933E1,-7.164102173E-1,-3.185974731E0,9.084608459E-1,3.389539747E0
1.462749733E1,-1.090781708E0,-3.210673370E0,8.810678101E-1,3.503499495E0
1.463750533E1,-1.357527008E0,-3.177592163E0,8.607101440E-1,3.561010178E0
1.464751233E1,-1.407073975E0,-3.050207062E0,8.517288208E-1,3.465409395E0
1.465752033E1,-1.143921204E0,-3.007246399E0,8.325686646E-1,3.323440567E0
1.466752833E1,-9.105564880E-1,-2.861000519E0,8.955876160E-1,3.133131702E0
1.467753633E1,-6.092330933E-1,-2.616858215E0,1.034648438E0,2.879168156E0
1.468754433E1,-1.779798889E-1,-2.480342102E0,1.139430542E0,2.735338324E0
1.469755133E1,3.876937866E-1,-2.233355713E0,1.238225098E0,2.582902554E0
1.470755933E1,1.062640228E0,-1.919608154E0,1.335373077E0,2.568525059E0
1.471756733E1,1.956281891E0,-1.484313354E0,1.391805725E0,2.822649136E0
1.472757533E1,3.104394379E0,-9.870474243E-1,1.355730743E0,3.528389565E0
1.473758333E1,4.311484222E0,-4.505630493E-1,1.412163391E0,4.559178512E0
1.474759033E1,5.715265045E0,-6.810836792E-2,1.499581604E0,5.909114847E0
1.475759833E1,7.195536804E0,3.673361206E-1,1.651964722E0,7.391865338E0
1.476760633E1,8.998836823E0,8.958869934E-1,1.688788147E0,9.199656682E0
1.477761433E1,1.107307343E1,1.504072266E0,1.534908142E0,1.127967781E1
1.478762233E1,1.319161789E1,2.345622253E0,1.238823853E0,1.345568322E1
1.479762933E1,1.498937943E1,3.459306335E0,1.051114197E0,1.541924567E1
1.480763733E1,1.647324371E1,4.214635620E0,7.315287781E-1,1.701957832E1
1.481764533E1,1.784424271E1,5.108127594E0,6.483018494E-1,1.857229820E1
1.482765333E1,1.930700089E1,6.160888367E0,8.276289368E-1,2.028304214E1
1.483766133E1,2.060120956E1,7.290738831E0,1.116827545E0,2.188177351E1
1.484766833E1,2.193807953E1,8.730894012E0,1.557960205E0,2.366294748E1
1.485767633E1,2.313618805E1,1.006596771E1,1.911674652E0,2.530338719E1
1.486768433E1,2.367776184E1,1.121213425E1,2.217937775E0,2.629196851E1
1.487769233E1,2.346580261E1,1.217942276E1,2.418071594E0,2.654862146E1
1.488770033E1,2.281705170E1,1.283790344E1,2.465672607E0,2.629656164E1
1.489770733E1,2.186563019E1,1.286694305E1,2.349663849E0,2.547910766E1
1.490771533E1,2.044957489E1,1.257160721E1,2.169887695E0,2.410267275E1
1.491772333E1,1.916240158E1,1.207838287E1,1.902244263E0,2.273111305E1
1.492773133E1,1.824480972E1,1.169473068E1,1.588197327E0,2.172929309E1
1.493773933E1,1.760219604E1,1.132170639E1,1.269210663E0,2.096733738E1
1.494774633E1,1.719743774E1,1.110705276E1,1.025667114E0,2.049806037E1
1.495775433E1,1.698008972E1,1.089209976E1,8.764274597E-1,2.019231065E1
1.496776233E1,1.684971085E1,1.042911255E1,6.770420837E-1,1.982769604E1
1.497777033E1,1.649270325E1,9.783654785E0,5.959107971E-1,1.918552243E1
1.498777833E1,1.603570358E1,9.030121765E0,5.535488892E-1,1.841177082E1
1.499778533E1,1.533037033E1,8.180638275E0,5.025050354E-1,1.738377428E1
1.500779333E1,1.444136902E1,7.334148560E0,6.245013428E-1,1.620903687E1
1.501780133E1,1.368723724E1,6.349945221E0,7.174580383E-1,1.510552924E1
1.502780933E1,1.300794983E1,5.442831573E0,8.913963318E-1,1.412889811E1
1.503781733E1,1.264570312E1,4.616250458E0,1.257235565E0,1.352051098E1
1.504782433E1,1.238928635E1,3.830085297E0,1.559906158E0,1.306128925E1
1.505783233E1,1.194980026E1,3.001707916E0,1.629511414E0,1.242832588E1
1.506784033E1,1.139415573E1,2.359094238E0,1.739233246E0,1.176507725E1
1.507784833E1,1.077145065E1,2.030228119E0,1.801354065E0,1.110814349E1
1.508785633E1,9.923913116E0,1.434317322E0,1.659299469E0,1.016339473E1
1.509786333E1,8.806786194E0,8.467890930E-1,1.512754211E0,8.975798579E0
1.510787133E1,7.651039581E0,4.370910645E-1,1.392105103E0,7.788928802E0
1.511787933E1,6.748117218E0,9.116043091E-2,1.335073700E0,6.879521640E0
1.512788733E1,5.898933105E0,-1.799258423E-1,1.208586731E0,6.024156952E0
1.513789533E1,5.186115417E0,-3.806584167E-1,1.141526184E0,5.323887300E0
1.514790233E1,4.751119995E0,-5.968089294E-1,1.151854706E0,4.925047347E0
1.515791033E1,4.180955658E0,-7.572752380E-1,1.085991669E0,4.385571104E0
1.516791833E1,3.589984589E0,-8.560697937E-1,1.135688324E0,3.861428856E0
1.517792633E1,2.859503632E0,-8.936416626E-1,1.136885834E0,3.204351079E0
1.518793433E1,2.276166687E0,-9.160949707E-1,1.072369995E0,2.677712118E0
1.519794133E1,1.763183441E0,-9.210346985E-1,1.006057892E0,2.229186678E0
1.520794933E1,1.209634552E0,-8.394543457E-1,8.644523621E-1,1.707389011E0
1.521795733E1,7.237449646E-1,-7.972421265E-1,7.819738770E-1,1.330746004E0
1.522796533E1,4.177812195E-1,-8.551716614E-1,7.872129822E-1,1.235137238E0
1.523797333E1,6.526428223E-2,-8.300239563E-1,7.827223206E-1,1.142739439E0
1.524798033E1,-2.697390747E-1,-7.229965210E-1,7.390132141E-1,1.068467907E0
1.525798833E1,-4.330494690E-1,-8.381071472E-1,6.722520447E-1,1.158394684E0
1.526799633E1,-6.685098267E-1,-8.379574585E-1,6.024971008E-1,1.229666966E0
1.527800433E1,-7.789801025E-1,-6.336323547E-1,5.855822754E-1,1.162414110E0
1.528801233E1,-6.550378418E-1,-6.315367126E-1,4.998106384E-1,1.038134802E0
1.529801933E1,-4.501139832E-1,-4.614903259E-1,5.198689270E-1,8.281543455E-1
1.530802733E1,-7.963439941E-2,-3.104544067E-1,5.387297058E-1,6.268598505E-1
1.531803533E1,3.384461975E-1,-3.185375977E-1,4.553530884E-1,6.506600225E-1
1.532804333E1,9.330097961E-1,-3.643423462E-1,3.954776001E-1,1.076872860E0
1.533805133E1,1.734592896E0,-5.704637146E-1,2.133064270E-1,1.838407190E0
1.534805833E1,1.963466949E0,-3.930825806E-1,1.308279419E-1,2.006696870E0
1.535806633E1,2.171384583E0,-1.043330383E-1,2.962339783E-1,2.193980619E0
1.536807433E1,3.181334381E0,9.565109253E-2,5.658233643E-1,3.232675928E0
1.537808233E1,5.099146271E0,4.638853455E-1,7.920030212E-1,5.181095549E0
1.538809033E1,6.962770844E0,7.417076111E-1,8.491841125E-1,7.053468768E0
1.539809733E1,8.791068878E0,8.789721680E-1,8.095166016E-1,8.871910799E0
1.540810533E1,1.110301117E1,7.584727478E-1,1.150657196E0,1.118821478E1
1.541811333E1,1.291169998E1,1.086590424E0,1.703757019E0,1.306887383E1
1.542812133E1,1.381177826E1,1.633403320E0,1.726060638E0,1.401472477E1
1.543812867E1,1.434152664E1,2.010918274E0,1.614392853E0,1.457152851E1
1.544813667E1,1.476978607E1,2.414029999E0,1.548230438E0,1.504563521E1
1.545814467E1,1.512350052E1,2.980003052E0,1.599723358E0,1.549709008E1
1.546815267E1,1.601833969E1,3.997437286E0,2.090852051E0,1.664146549E1
1.547816067E1,1.744577133E1,5.300776978E0,2.410138092E0,1.839189875E1
1.548816867E1,1.929547485E1,6.308631134E0,2.252815247E0,2.042521366E1
1.549817567E1,2.114502869E1,7.694149933E0,2.190993805E0,2.260780032E1
1.550818367E1,2.237112900E1,9.734257507E0,2.504142609E0,2.452537282E1
1.551819167E1,2.384241943E1,1.159653488E1,3.005001068E0,2.668277754E1
1.552819967E1,2.511342636E1,1.320838303E1,3.333268433E0,2.857019853E1
1.553820767E1,2.542597641E1,1.437326065E1,3.873195648E0,2.946307083E1
1.554821467E1,2.528990936E1,1.421593781E1,4.500690765E0,2.935862089E1
1.555822267E1,2.374557083E1,1.387030655E1,4.909640350E0,2.793460410E1
1.556823067E1,2.187236618E1,1.265692978E1,5.270090790E0,2.581418468E1
1.557823867E1,1.972403366E1,1.138517441E1,5.142556000E0,2.334749628E1
1.558824667E1,1.783002228E1,1.046907944E1,4.853357391E0,2.123832377E1
1.559825367E1,1.679911606E1,9.729018402E0,4.415667572E0,1.990884777E1
1.560826167E1,1.624421997E1,9.137448578E0,3.812122650E0,1.902366758E1
1.561826967E1,1.603899673E1,8.565937042E0,3.153342590E0,1.845449168E1
1.562827767E1,1.608210709E1,7.770491180E0,2.611469421E0,1.805088569E1
1.563828567E1,1.577943649E1,7.040608978E0,2.155816956E0,1.741287850E1
1.564829267E1,1.500749176E1,6.332281952E0,2.022743683E0,1.641383854E1
1.565830067E1,1.430395477E1,5.431455231E0,1.965263214E0,1.542614947E1
1.566830867E1,1.354263794E1,4.743635559E0,2.081122284E0,1.449952381E1
1.567831667E1,1.296454010E1,3.885470123E0,2.304457855E0,1.372904600E1
1.568832467E1,1.240590179E1,3.051404572E0,2.481988678E0,1.301452024E1
1.569833167E1,1.172227341E1,2.410886536E0,2.746189270E0,1.227866537E1
1.570833967E1,1.120105728E1,1.724713440E0,2.915487213E0,1.170206761E1
1.571834767E1,1.034274216E1,1.149759064E0,2.938389587E0,1.081334336E1
1.572835567E1,9.500593414E0,4.055067444E-1,2.821632385E0,9.919038273E0
1.573836367E1,8.636141052E0,-5.044509888E-2,2.655178528E0,9.035233810E0
1.574837067E1,7.577991486E0,-3.513194275E-1,2.486030273E0,7.983090054E0
1.575837867E1,6.528074799E0,-6.632707214E-1,2.167792053E0,6.910500055E0
1.576838667E1,5.542973328E0,-8.556207275E-1,1.790576477E0,5.887512570E0
1.577839467E1,4.727169800E0,-1.052760773E0,1.444047089E0,5.053682969E0
1.578840267E1,3.861669617E0,-1.182241516E0,1.156495056E0,4.200912763E0
1.579840967E1,3.028951263E0,-1.351689148E0,1.015488281E0,3.468836369E0
1.580841767E1,2.260449371E0,-1.394649811E0,9.407936096E-1,2.817760116E0
1.581842567E1,1.521585846E0,-1.467398529E0,8.367599487E-1,2.273466327E0
1.582843367E1,8.898994446E-1,-1.545236664E0,7.200027466E-1,1.923039605E0
1.583844167E1,3.721261597E-1,-1.608105927E0,5.870791626E-1,1.751897398E0
1.584844867E1,-1.757345581E-1,-1.651665344E0,4.273612976E-1,1.715085631E0
1.585845667E1,-5.996530151E-1,-1.823507996E0,3.191363525E-1,1.945922188E0
1.586846467E1,-1.111588440E0,-1.762584686E0,2.686912537E-1,2.101077968E0
1.587847267E1,-1.460063782E0,-1.670226746E0,2.465373230E-1,2.232089667E0
1.588848067E1,-1.589394836E0,-1.684896240E0,5.149291992E-2,2.316830336E0
1.589848767E1,-1.725012817E0,-1.472487946E0,-1.544787598E-1,2.273269376E0
1.590849567E1,-1.714684296E0,-1.387614441E0,-2.146536255E-1,2.216233798E0
1.591850367E1,-1.491199036E0,-1.318158875E0,-1.995350647E-1,2.000257889E0
1.592851167E1,-1.183738403E0,-1.208736420E0,-1.282832336E-1,1.696684098E0
1.593851967E1,-7.072792053E-1,-1.278940430E0,-2.065704346E-2,1.461628958E0
1.594852667E1,-2.495310974E-1,-1.299747162E0,1.146615601E-1,1.328441089E0
1.595853467E1,1.826202393E-1,-9.415420532E-1,4.499642944E-1,1.059395798E0
1.596854267E1,7.940986633E-1,-9.005273438E-1,5.631289673E-1,1.326143438E0
1.597855067E1,1.640289001E0,-6.767427063E-1,6.691085815E-1,1.896374170E0
1.598855867E1,2.775228882E0,-3.614982605E-1,8.397537231E-1,2.921945012E0
1.599856567E1,4.106410675E0,-4.954696655E-2,9.505233765E-1,4.215276767E0
1.600857367E1,5.549559631E0,2.423460388E-1,1.082249451E0,5.659293912E0
1.601858167E1,7.002588043E0,5.013075256E-1,1.295256500E0,7.138994183E0
1.602858967E1,8.514743500E0,4.450245667E-1,1.369352417E0,8.635625616E0
1.603859767E1,1.000833755E1,3.953279114E-1,1.339714050E0,1.010534208E1
1.604860467E1,1.142259659E1,1.122216339E0,1.554068298E0,1.158232320E1
1.605861267E1,1.282488052E1,1.667831726E0,1.562151489E0,1.302687761E1
1.606862067E1,1.393991180E1,2.110012207E0,1.477427673E0,1.417589804E1
1.607862867E1,1.530582138E1,2.711760864E0,1.749262390E0,1.564230591E1
1.608863667E1,1.667771851E1,3.434607697E0,1.940564575E0,1.713792915E1
1.609864467E1,1.781625092E1,4.442461853E0,2.197729797E0,1.849281699E1
1.610865167E1,1.883922363E1,5.526657257E0,2.590363312E0,1.980328936E1
1.611865967E1,1.968541397E1,6.608158264E0,2.691103821E0,2.093860833E1
1.612866767E1,2.071721832E1,7.761809235E0,2.594404907E0,2.227509269E1
1.613867567E1,2.172851532E1,8.921298065E0,2.694097595E0,2.364267538E1
1.614868367E1,2.294398773E1,9.789492645E0,2.704575806E0,2.509134252E1
1.615869067E1,2.362896332E1,1.041144928E1,2.529739380E0,2.594466737E1
1.616869867E1,2.311538132E1,1.131871262E1,2.481988678E0,2.585719197E1
1.617870667E1,2.204705292E1,1.203093155E1,2.253563690E0,2.521694679E1
1.618871467E1,2.054283096E1,1.201177139E1,2.122586060E0,2.389133583E1
1.619872267E1,1.906794800E1,1.159264297E1,1.860481110E0,2.239279799E1
1.620872967E1,1.800051773E1,1.104074066E1,1.409618683E0,2.116373355E1
1.621873767E1,1.711690521E1,1.044902115E1,8.265811157E-1,2.007121629E1
1.622874567E1,1.628254028E1,9.909243622E0,4.194277954E-1,1.906541756E1
1.623875367E1,1.573632614E1,9.449848938E0,3.727249146E-1,1.835948064E1
1.624876167E1,1.547047897E1,8.954528961E0,5.324427795E-1,1.788303117E1
1.625876867E1,1.555071213E1,8.290509796E0,6.846762085E-1,1.763592872E1
1.626877667E1,1.551239182E1,7.705376587E0,9.339079285E-1,1.734587306E1
1.627878467E1,1.531794617E1,7.219487000E0,1.241817627E0,1.697947521E1
1.628879267E1,1.514520538E1,6.735543365E0,1.546434174E0,1.664740968E1
1.629880067E1,1.506736725E1,6.242468719E0,1.779499512E0,1.640611441E1
1.630880767E1,1.504162079E1,5.757327576E0,1.931732941E0,1.622124437E1
1.631881567E1,1.495644791E1,5.195695496E0,2.114053802E0,1.597372246E1
1.632882367E1,1.476529541E1,4.662504272E0,2.246678009E0,1.564610037E1
1.633883167E1,1.450588486E1,4.139042816E0,2.292782135E0,1.525808706E1
1.634883967E1,1.432910248E1,3.584595795E0,2.416724396E0,1.496706590E1
1.635884767E1,1.405008270E1,3.057242432E0,2.654879150E0,1.462189928E1
1.636885467E1,1.359173584E1,2.424807587E0,2.803969116E0,1.408819427E1
1.637886267E1,1.293100983E1,1.825753326E0,2.805466003E0,1.335720891E1
1.638887067E1,1.221070770E1,1.340911560E0,2.811752930E0,1.260180070E1
1.639887867E1,1.129536118E1,7.934999084E-1,2.769989777E0,1.165708667E1
1.640888667E1,1.009470795E1,2.486329651E-1,2.543510742E0,1.041318365E1
1.641889367E1,8.795260162E0,-2.059716797E-1,2.229314117E0,9.075729562E0
1.642890167E1,7.502698059E0,-6.304888916E-1,1.905986481E0,7.766645278E0
1.643890992E1,6.274202728E0,-1.049018555E0,1.587149506E0,6.556302568E0
1.644891792E1,5.055736542E0,-1.389560394E0,1.302142181E0,5.402492418E0
1.645892592E1,3.888014832E0,-1.642833710E0,1.055006104E0,4.350701071E0
1.646893292E1,2.825224915E0,-1.785187683E0,9.065148926E-1,3.462738820E0
1.647894092E1,1.894460449E0,-1.898352356E0,8.111631775E-1,2.801911448E0
1.648894892E1,1.205742645E0,-2.056723022E0,7.461982727E-1,2.498146669E0
1.649895692E1,7.367678833E-1,-2.259700928E0,7.553292847E-1,2.493912092E0
1.650896492E1,3.022215271E-1,-2.422262878E0,7.617658997E-1,2.557143443E0
1.651897192E1,-5.777984619E-2,-2.514620819E0,6.545887756E-1,2.599065763E0
1.652897992E1,-4.076023865E-1,-2.624642029E0,5.559439087E-1,2.713661570E0
1.653898792E1,-8.396040344E-1,-2.726879425E0,5.441184998E-1,2.904629284E0
1.654899592E1,-1.239123230E0,-2.728675690E0,5.257067871E-1,3.042608260E0
1.655900392E1,-1.538051605E0,-2.657872925E0,4.537065125E-1,3.104148969E0
1.656901192E1,-1.684896240E0,-2.616109772E0,3.353027344E-1,3.129749767E0
1.657901892E1,-1.641336823E0,-2.546654205E0,2.125579834E-1,3.037205147E0
1.658902692E1,-1.452279968E0,-2.466570740E0,1.073268127E-1,2.864368581E0
1.659903492E1,-1.085093536E0,-2.411934357E0,1.047821045E-3,2.644779087E0
1.660904292E1,-6.894662476E-1,-2.217788086E0,-7.963439941E-2,2.323852263E0
1.661905092E1,-3.445834351E-1,-1.892065430E0,-1.601669312E-1,1.929845274E0
1.662905792E1,1.637594604E-1,-1.534608765E0,-1.612147522E-1,1.551718859E0
1.663906592E1,9.596543884E-1,-1.251697083E0,-1.679507446E-1,1.586155599E0
1.664907392E1,1.744771729E0,-9.385482788E-1,-1.652563477E-1,1.988067131E0
1.665908192E1,2.733615417E0,-3.879931641E-1,-7.858657837E-2,2.762131024E0
1.666908992E1,4.123924255E0,3.255729675E-1,8.831634521E-2,4.137698490E0
1.667909692E1,5.831722870E0,1.058448944E0,3.263214111E-1,5.935974348E0
1.668910492E1,7.664661255E0,1.828447723E0,3.573069763E-1,7.887833765E0
1.669911292E1,9.563163300E0,2.595153351E0,1.282832336E-1,9.909862249E0
1.670912092E1,1.130104935E1,3.140020294E0,-4.242178345E-1,1.173683963E1
1.671912892E1,1.287607407E1,3.440146179E0,-8.556207275E-1,1.335514792E1
1.672913592E1,1.418944290E1,3.769311676E0,-9.604028320E-1,1.471293220E1
1.673914392E1,1.527872772E1,4.387825470E0,-8.225395203E-1,1.591757219E1
1.674915192E1,1.635124741E1,5.648803253E0,-9.833052063E-1,1.732741063E1
1.675915992E1,1.805350754E1,7.550448761E0,-1.114432526E0,1.960051966E1
1.676916792E1,1.989946884E1,9.683213654E0,-2.113604736E0,2.223107761E1
1.677917592E1,2.162567917E1,1.112756012E1,-2.458936615E0,2.444461010E1
1.678918292E1,2.301538925E1,1.195848221E1,-2.298320618E0,2.603835088E1
1.679919092E1,2.355741211E1,1.277623169E1,-1.905537415E0,2.686661189E1
1.680919892E1,2.300595886E1,1.373289230E1,-1.295406189E0,2.682432760E1
