"Time (s)","Acceleration x (m/s^2)","Acceleration y (m/s^2)","Acceleration z (m/s^2)","Absolute acceleration (m/s^2)"
1.265916624E-3,1.807790680E0,-1.076965439E1,6.146218872E-1,1.093761047E1
1.134491665E-2,3.162922668E0,-1.006042923E1,1.260079651E0,1.062092825E1
2.142391668E-2,3.837420044E0,-9.672585754E0,8.746311951E-1,1.044268584E1
3.150191659E-2,4.107159119E0,-9.343869324E0,3.442840576E-2,1.020675440E1
4.158091662E-2,3.189716949E0,-9.333840179E0,-5.830375671E-1,9.881032310E0
5.165991664E-2,2.230361938E0,-9.476194153E0,-6.738986206E-1,9.758427606E0
6.173791667E-2,1.798060913E0,-9.511221313E0,-1.922003174E-1,9.681595679E0
7.181691669E-2,7.914042664E-1,-9.524094543E0,4.948709106E-1,9.569722817E0
8.189591661E-2,-4.589456177E-1,-9.478439484E0,1.044228516E0,9.546824567E0
9.197391663E-2,-1.701212311E0,-9.219777374E0,1.620829468E0,9.514489283E0
1.020529167E-1,-2.933749237E0,-8.888067169E0,1.988464966E0,9.568626626E0
1.121319167E-1,-4.201912079E0,-8.862919464E0,2.019749908E0,1.001432955E1
1.222099166E-1,-5.584586792E0,-9.127269745E0,1.901346130E0,1.086783234E1
1.322889166E-1,-6.668183441E0,-9.560618591E0,2.063159637E0,1.183751350E1
1.423679166E-1,-7.310647430E0,-9.843081207E0,2.604733429E0,1.253461008E1
1.524459167E-1,-7.496560822E0,-9.658215637E0,3.137924652E0,1.262244527E1
1.625249166E-1,-6.888375549E0,-8.897048492E0,3.218756561E0,1.170331506E1
1.726039166E-1,-5.957910461E0,-8.109685822E0,2.854114838E0,1.045990787E1
1.826819166E-1,-5.277275848E0,-7.615114288E0,2.217788086E0,9.526709295E0
1.927609167E-1,-4.784799957E0,-7.994575195E0,1.527573395E0,9.441452413E0
2.028389167E-1,-4.154161377E0,-8.893006897E0,5.942642212E-1,9.833401160E0
2.129179166E-1,-3.399281158E0,-9.701176300E0,-3.004252625E-1,1.028388007E1
2.229969166E-1,-2.794838104E0,-1.005429199E1,-9.942324829E-1,1.048276708E1
2.330749166E-1,-2.157014465E0,-9.978848877E0,-1.272054749E0,1.028825834E1
2.431539167E-1,-1.352287903E0,-9.923464050E0,-1.307980042E0,1.010022936E1
2.532329166E-1,-5.435197449E-1,-9.898466034E0,-8.187973022E-1,9.947133887E0
2.633109166E-1,-1.670526123E-1,-9.826914825E0,-6.436614990E-2,9.828545394E0
2.733899166E-1,-5.291496277E-1,-9.806108093E0,8.508306885E-1,9.857163290E0
2.834689167E-1,-1.091679840E0,-9.834998016E0,1.552870789E0,1.001650431E1
2.935469167E-1,-1.541793823E0,-9.789342957E0,1.862127686E0,1.008344600E1
3.036259166E-1,-1.424587555E0,-9.774374084E0,1.708397369E0,1.002429349E1
3.137049166E-1,-1.130149841E0,-9.612710266E0,1.542542267E0,9.801064941E0
3.237829166E-1,-1.368454285E0,-9.393416290E0,1.571132813E0,9.621714766E0
3.338619167E-1,-1.929038544E0,-9.219627686E0,1.696871338E0,9.570898427E0
3.439409166E-1,-2.431543579E0,-9.143136749E0,1.746717682E0,9.620830341E0
3.540189166E-1,-2.505040741E0,-9.266779633E0,1.594633942E0,9.730945035E0
3.640979166E-1,-2.264940033E0,-9.519603882E0,1.348096619E0,9.877761685E0
3.741769167E-1,-2.198328552E0,-9.719887390E0,1.115779724E0,1.002765295E1
3.842549167E-1,-2.299518127E0,-9.867031403E0,1.120420074E0,1.019320526E1
3.943339166E-1,-2.586321716E0,-9.917027435E0,1.131646729E0,1.031101923E1
4.044129166E-1,-2.882406006E0,-9.787097626E0,1.083297272E0,1.026007199E1
4.144909166E-1,-3.059787140E0,-9.451495514E0,1.151405640E0,1.000093994E1
4.245699167E-1,-3.009940796E0,-9.079069977E0,1.294657745E0,9.652222227E0
4.346489166E-1,-2.880460052E0,-8.834628296E0,1.474284210E0,9.408571686E0
4.447269166E-1,-2.782264252E0,-8.737929382E0,1.552571411E0,9.300692568E0
4.548059166E-1,-2.797682190E0,-8.788075104E0,1.484762421E0,9.341402952E0
4.648849167E-1,-2.932701416E0,-8.958570557E0,1.269360352E0,9.511466749E0
4.749629167E-1,-3.091072083E0,-9.290580139E0,9.134005737E-1,9.833814446E0
4.850419166E-1,-3.233725433E0,-9.534872131E0,5.557942200E-1,1.008363397E1
4.951199166E-1,-3.337010651E0,-9.680369568E0,3.121009827E-1,1.024414965E1
5.051989167E-1,-3.373684387E0,-9.771829376E0,1.959425354E-1,1.033967065E1
5.152779167E-1,-3.302133179E0,-9.751771088E0,1.618135071E-1,1.029695618E1
5.253559166E-1,-3.120411072E0,-9.665700073E0,2.137554932E-1,1.015915423E1
5.354349166E-1,-2.924618225E0,-9.559271393E0,3.167413330E-1,1.000166918E1
5.455139166E-1,-2.836451569E0,-9.451944580E0,4.459226990E-1,9.878439193E0
5.555919167E-1,-2.837948456E0,-9.387428741E0,5.120851135E-1,9.820387008E0
5.656709167E-1,-2.808908844E0,-9.346563721E0,5.399272156E-1,9.774443395E0
5.757499166E-1,-2.642005920E0,-9.331594849E0,5.146298218E-1,9.712039001E0
5.858279166E-1,-2.464026031E0,-9.365574188E0,4.819976807E-1,9.696273816E0
5.959069167E-1,-2.236199799E0,-9.390572205E0,4.619393921E-1,9.664203220E0
6.059859167E-1,-2.004331970E0,-9.439071350E0,4.510121155E-1,9.660063485E0
6.160639166E-1,-1.845063171E0,-9.442813568E0,3.731739807E-1,9.628615945E0
6.261429166E-1,-1.861079865E0,-9.437873840E0,2.140548706E-1,9.622000851E0
6.362219166E-1,-2.014361115E0,-9.452992401E0,-4.191284180E-2,9.665323208E0
6.462999167E-1,-2.266436920E0,-9.504185944E0,-3.007246399E-1,9.775311866E0
6.563789166E-1,-2.465822296E0,-9.497300262E0,-4.221221924E-1,9.821261580E0
6.664579166E-1,-2.569107513E0,-9.467063141E0,-4.125421143E-1,9.818135715E0
6.765359166E-1,-2.566413116E0,-9.418114929E0,-2.453398132E-1,9.764607351E0
6.866149167E-1,-2.556234283E0,-9.319020996E0,-5.837860107E-3,9.663256186E0
6.966939167E-1,-2.590662689E0,-9.211245117E0,2.188449097E-1,9.571126521E0
7.067719166E-1,-2.639311523E0,-9.130862274E0,5.080435181E-1,9.518230897E0
7.168509166E-1,-2.692001953E0,-9.098679199E0,7.517367554E-1,9.518295322E0
7.269299167E-1,-2.823578339E0,-9.184151459E0,8.913963318E-1,9.649653884E0
7.370079167E-1,-2.983595581E0,-9.289382629E0,1.069825287E0,9.815243164E0
7.470869166E-1,-3.176095276E0,-9.443711700E0,1.196162567E0,1.003504244E1
7.571649166E-1,-3.384162598E0,-9.645941162E0,1.242416382E0,1.029758884E1
7.672439166E-1,-3.539539490E0,-9.906848602E0,1.230291595E0,1.059186511E1
7.773229167E-1,-3.618575134E0,-1.014051270E1,1.170715485E0,1.083026585E1
7.874009167E-1,-3.646866302E0,-1.023616379E1,9.292675781E-1,1.090606350E1
7.974799166E-1,-3.641327820E0,-1.012135254E1,5.448669434E-1,1.077023331E1
8.075581250E-1,-3.711681519E0,-9.783804474E0,-6.137237549E-3,1.046419836E1
8.176361250E-1,-4.694986725E0,-7.431595917E0,-2.938688965E0,9.268625089E0
8.277151249E-1,-8.642877045E0,-1.977388000E0,-4.755311279E0,1.006093297E1
8.377941250E-1,-1.030502060E1,-4.490362244E0,-1.842069397E0,1.139078673E1
8.478721250E-1,-8.525072021E0,-1.096918945E1,4.631369019E-1,1.390016065E1
8.579511250E-1,-7.793243866E0,-1.326391754E1,3.640429688E-1,1.538826455E1
8.680301249E-1,-7.143894196E0,-1.350162323E1,-2.993774414E-2,1.527514158E1
8.781081249E-1,-4.746779022E0,-1.353844666E1,2.037413177E0,1.449042792E1
8.881871250E-1,-3.016527100E0,-1.289912613E1,1.537752228E0,1.333610035E1
8.982661250E-1,-2.686014404E0,-1.284074753E1,-2.110610962E-2,1.311868575E1
9.083441250E-1,-1.473086700E0,-1.202374649E1,1.426533508E-1,1.211448778E1
9.184231249E-1,-7.515870667E-1,-1.050470535E1,1.101708984E-1,1.053213441E1
9.285021250E-1,1.254391479E-1,-9.056766357E0,1.263372803E-1,9.058516045E0
9.385801250E-1,9.105564880E-1,-7.790549469E0,8.050259399E-1,7.884785407E0
9.486591250E-1,1.040486298E0,-6.786736908E0,2.135159912E0,7.190362817E0
9.587381249E-1,2.505789185E0,-5.698050842E0,3.834575958E0,7.311001000E0
9.688161250E-1,4.859045563E0,-5.371579742E0,4.623884583E0,8.593282338E0
9.788951250E-1,6.394253082E0,-4.944817200E0,4.910837860E0,9.458013433E0
9.889731250E-1,6.092630310E0,-3.897145844E0,4.813091125E0,8.687562144E0
9.990521249E-1,5.126688995E0,-5.359754333E0,3.677552490E0,8.278544491E0
1.009131125E0,5.140160980E0,-7.616461487E0,2.204914856E0,9.449517977E0
1.019209125E0,5.044659576E0,-8.987610168E0,3.124003601E-1,1.031132003E1
1.029288125E0,4.350103912E0,-9.701475677E0,-8.113128662E-1,1.066303254E1
1.039367125E0,3.413651276E0,-1.037582336E1,-1.275647278E0,1.099718153E1
1.049445125E0,2.720891876E0,-1.088865692E1,-1.515897675E0,1.132537187E1
1.059524125E0,2.233804779E0,-1.067235672E1,-1.801803131E0,1.105149656E1
1.069603125E0,1.745071106E0,-9.959239655E0,-1.838626556E0,1.027678331E1
1.079681125E0,1.300046539E0,-9.611812134E0,-1.339115295E0,9.791337155E0
1.089760125E0,1.071022797E0,-1.017404297E1,-4.373904419E-1,1.023960695E1
1.099839125E0,1.127754822E0,-1.050725006E1,4.492158508E-1,1.057714185E1
1.109917125E0,8.833131409E-1,-1.063598236E1,1.123413849E0,1.073156193E1
1.119996125E0,4.858895874E-1,-1.049871780E1,1.234033813E0,1.058215496E1
1.130075125E0,-5.643264771E-2,-1.032118698E1,1.225351868E0,1.039382377E1
1.140153125E0,-6.598278809E-1,-1.024918671E1,1.153800659E0,1.033501122E1
1.150232125E0,-1.262025604E0,-1.020323227E1,1.093775482E0,1.033900393E1
1.160311125E0,-1.826801147E0,-1.023616379E1,9.454339600E-1,1.044079005E1
1.170389125E0,-2.307301941E0,-1.027253815E1,9.358538818E-1,1.056998130E1
1.180468125E0,-2.533481598E0,-1.026161087E1,1.035097504E0,1.062029253E1
1.190547125E0,-2.603835297E0,-1.013781830E1,1.026415558E0,1.051707407E1
1.200625125E0,-2.587070160E0,-9.852361908E0,9.958790588E-1,1.023492757E1
1.210704125E0,-2.504741364E0,-9.510921936E0,1.048569489E0,9.890948556E0
1.220783125E0,-2.432441711E0,-9.179211731E0,1.118773499E0,9.561712965E0
1.230861125E0,-2.439028015E0,-8.918004913E0,1.171463928E0,9.319441884E0
1.240940125E0,-2.465822296E0,-8.763376465E0,1.150208130E0,9.176057182E0
1.251018125E0,-2.529589691E0,-8.642577667E0,1.009351044E0,9.061554076E0
1.261097125E0,-2.667902069E0,-8.607999573E0,6.613247681E-1,9.036188828E0
1.271176125E0,-2.935844879E0,-8.768914948E0,2.454895020E-2,9.247359470E0
1.281254125E0,-3.144211578E0,-9.123826904E0,-1.245260468E0,9.730414044E0
1.291333125E0,-3.244802399E0,-9.256750488E0,-2.979254608E0,1.025144528E1
1.301412125E0,-3.297492828E0,-9.068741455E0,-4.224664764E0,1.053391299E1
1.311490125E0,-3.163072357E0,-8.976533203E0,-5.144951019E0,1.081913564E1
1.321569125E0,-2.546055450E0,-8.534502411E0,-5.478008423E0,1.045603682E1
1.331648125E0,-1.966011658E0,-7.910001068E0,-5.522615662E0,9.845435617E0
1.341726125E0,-2.042951660E0,-7.667804718E0,-5.138664093E0,9.453821944E0
1.351805125E0,-2.501897278E0,-7.455695801E0,-4.008214874E0,8.826815753E0
1.361884125E0,-2.782264252E0,-7.051536255E0,-2.225721588E0,7.900569252E0
1.371962125E0,-3.894002380E0,-6.636898499E0,-7.994874573E-1,7.736333525E0
1.382041125E0,-5.141957245E0,-6.031257935E0,-1.114881592E0,8.003671504E0
1.392120125E0,-5.967789917E0,-5.618266754E0,-2.949017487E0,8.710691244E0
1.402198125E0,-6.859186249E0,-5.425467682E0,-4.867727509E0,1.000894134E1
1.412277125E0,-7.423662415E0,-5.476960602E0,-7.729925537E0,1.203576378E1
1.422355125E0,-7.038962402E0,-5.815556488E0,-1.366493362E1,1.643466154E1
1.432434125E0,-5.941444702E0,-5.980663147E0,-1.971131012E1,2.143839648E1
1.442513125E0,-4.262985077E0,-5.753136292E0,-1.400098480E1,1.572574941E1
1.452591125E0,-2.765948181E0,-4.858297119E0,-2.738704834E0,6.225273039E0
1.462670125E0,-2.661166077E0,-3.540737000E0,3.176993408E0,5.450863281E0
1.472749125E0,-3.049159241E0,-1.690883789E0,4.859344940E0,5.980776982E0
1.482827125E0,-2.677332458E0,-4.311035156E-2,5.104684753E0,5.764353739E0
1.492906125E0,-1.970202942E0,7.005432129E-2,2.448907471E0,3.143843991E0
1.502985125E0,-1.256786499E0,-3.219505005E0,-3.581602020E0,4.977207833E0
1.513063125E0,-1.257984009E0,-8.662635956E0,-9.325307922E0,1.279004118E1
1.523142125E0,-2.284100189E0,-1.287083496E1,-1.105211700E1,1.711796707E1
1.533221125E0,-3.685336304E0,-1.488384888E1,-6.190975800E0,1.653598628E1
1.543299125E0,-4.808301086E0,-1.558903244E1,-8.434959412E-1,1.633551888E1
1.553378125E0,-5.417983246E0,-1.672995987E1,-3.263214111E-1,1.758842191E1
1.563457125E0,-6.669081573E0,-1.683998108E1,-3.244503021E0,1.840077204E1
1.573535125E0,-8.155640259E0,-1.542961395E1,-6.696324921E0,1.869299928E1
1.583614125E0,-8.898096313E0,-1.403930511E1,-1.027822632E1,1.954277724E1
1.593693125E0,-9.185348969E0,-1.400846924E1,-1.404229889E1,2.185849959E1
1.603771125E0,-8.868308258E0,-1.622191635E1,-1.674133621E1,2.494132714E1
1.613850125E0,-8.238567810E0,-2.001981857E1,-1.722258545E1,2.766377749E1
1.623929125E0,-8.544082489E0,-2.403491913E1,-1.771595947E1,3.105694613E1
1.634007125E0,-9.484876099E0,-2.669339081E1,-1.992835876E1,3.463581197E1
1.644086125E0,-1.080992065E1,-2.818653580E1,-2.180650314E1,3.724055268E1
1.654164125E0,-1.100466568E1,-2.897704193E1,-2.109353577E1,3.749278433E1
1.664243125E0,-8.340206451E0,-2.739797562E1,-1.960188766E1,3.470507328E1
1.674322125E0,-4.729415131E0,-2.409254929E1,-1.632445312E1,2.948399682E1
1.684400125E0,-1.582658844E0,-2.162403259E1,-1.068642746E1,2.417236700E1
1.694479125E0,6.715036011E-1,-2.028850983E1,-5.145100708E0,2.094150447E1
1.704558125E0,1.625918884E0,-1.786085815E1,-1.029708710E0,1.796424689E1
1.714636125E0,1.406325531E0,-1.466964432E1,1.505419464E0,1.481359186E1
1.724715125E0,1.973047028E0,-1.135553604E1,2.121538239E0,1.171930194E1
1.734794125E0,2.193837891E0,-8.535400543E0,2.604583740E0,9.189659601E0
1.744872125E0,1.032103729E0,-6.887327728E0,3.831731873E0,7.948754021E0
1.754951125E0,1.772314453E-1,-6.230942688E0,5.250631256E0,8.150164805E0
1.765030125E0,-3.652404785E-1,-6.500083008E0,6.323150940E0,9.075611138E0
1.775108125E0,-3.905378723E-1,-6.927593994E0,6.580465851E0,9.562772045E0
1.785187125E0,-4.328997803E-1,-6.700516205E0,6.553970947E0,9.382902259E0
1.795266125E0,-1.026565247E0,-6.073619843E0,6.740333405E0,9.130979608E0
1.805343875E0,-1.351988525E0,-5.300028534E0,7.743996277E0,9.480909965E0
1.815422875E0,-9.954299927E-1,-4.348906403E0,8.889564056E0,9.946266480E0
1.825501875E0,-3.296145630E-1,-3.365900574E0,7.970774689E0,8.658590045E0
1.835579875E0,6.104306030E-1,-2.622247009E0,6.536008301E0,7.068819520E0
1.845658875E0,7.809260559E-1,-2.054178314E0,6.228547668E0,6.604869424E0
1.855736875E0,2.564167786E-1,-1.463806000E0,6.299949188E0,6.472853879E0
1.865815875E0,-1.460961914E-1,-9.066645813E-1,5.681435394E0,5.755179658E0
1.875894875E0,-5.731581116E-1,-6.339317322E-1,5.208568726E0,5.278216349E0
1.885972875E0,-1.081201630E0,-2.811154175E-1,4.941224670E0,5.065937631E0
1.896051875E0,-1.321601715E0,4.926255798E-1,4.332590332E0,4.556385633E0
1.906130875E0,-8.333171082E-1,1.714235229E0,3.401376801E0,3.899023463E0
1.916208875E0,-8.241860962E-1,2.366578674E0,2.959346008E0,3.877848133E0
1.926287875E0,-1.203497314E0,2.516117706E0,3.032843170E0,4.120363066E0
1.936366875E0,-7.873626709E-1,2.933898926E0,3.416794739E0,4.571891203E0
1.946444875E0,4.251159668E-2,3.285517731E0,3.908821564E0,5.106399907E0
1.956523875E0,9.422904968E-1,3.732188873E0,4.086651764E0,5.614077645E0
1.966602875E0,1.951791229E0,4.144581299E0,3.907025299E0,6.020954229E0
1.976680875E0,2.689307556E0,4.703668671E0,4.493505707E0,7.039067242E0
1.986759875E0,2.624192963E0,5.555547180E0,5.155429230E0,8.020532633E0
1.996837875E0,2.418969727E0,5.637726288E0,4.980892181E0,7.902193313E0
2.006916875E0,3.096760254E0,4.629872131E0,4.305346985E0,7.040003742E0
2.016995875E0,3.417692871E0,3.673061829E0,9.270222473E-1,5.102095452E0
2.027073875E0,2.556533661E0,2.241588593E0,-5.436993713E0,6.412603560E0
2.037152875E0,1.165177002E0,-1.026235931E1,-1.068993018E2,1.073970874E2
2.047231875E0,3.727698212E0,-1.533486099E1,-7.802868851E1,7.960860460E1
2.057309875E0,-1.789678345E0,-1.146615601E1,-4.448299713E0,1.242831656E1
2.067388875E0,-3.049458618E0,-1.102247864E1,1.715507584E1,2.061773169E1
2.077467875E0,-5.839806061E0,-1.127126129E1,1.536464905E1,1.993030623E1
2.087545875E0,-7.938741302E0,-1.069151688E1,1.421309372E1,1.947675999E1
2.097624875E0,-1.023990601E1,-1.542048294E1,1.641142227E1,2.473826490E1
2.107703875E0,-1.233420090E1,-2.317750214E1,1.570713684E1,3.059482415E1
2.117781875E0,-1.380818573E1,-3.230252655E1,1.496333359E1,3.818403550E1
2.127860875E0,-1.437864944E1,-3.858885406E1,1.297531769E1,4.317642976E1
2.137939875E0,-1.259166550E1,-4.039709381E1,7.390880585E0,4.295463123E1
2.148017875E0,-3.304827576E0,-3.978711227E1,-6.205435730E1,7.378807118E1
2.158096875E0,7.167095947E-1,-3.160752182E1,-5.281167755E1,6.155178628E1
2.168175875E0,-4.726571045E0,-2.369692200E1,2.033700897E1,3.158288334E1
2.178253875E0,-3.910019073E0,-1.642878616E1,9.280700684E0,1.926978643E1
2.188332875E0,-3.441044312E0,-9.988428955E0,-6.242468719E0,1.227101930E1
2.198410875E0,-4.261188812E0,-7.032825165E0,-2.255449768E1,2.400674333E1
2.208489875E0,-3.745660858E0,-8.297545166E0,-1.194411209E1,1.501802399E1
2.218568875E0,-2.431094513E0,-1.073567505E1,3.532653809E-1,1.101316193E1
2.228646875E0,-2.483186188E0,-1.297561707E1,-1.104104004E0,1.325714515E1
2.238725875E0,-3.797303467E0,-1.501617371E1,-4.546046448E0,1.614222800E1
2.248804875E0,-5.253026276E0,-1.730102234E1,-6.963519287E0,1.937550670E1
2.258882875E0,-6.020630035E0,-1.890254196E1,-5.373525696E0,2.055307415E1
2.268961875E0,-6.546486511E0,-1.944276855E1,-3.198398895E0,2.076312814E1
2.279040875E0,-6.821315002E0,-1.891541519E1,-3.140469360E0,2.035155567E1
2.289118875E0,-6.434070282E0,-1.771835449E1,-3.750899963E0,1.921995309E1
2.299197875E0,-5.619164886E0,-1.659299469E1,-3.748355255E0,1.791515152E1
2.309276875E0,-4.564907227E0,-1.559666656E1,-3.006797333E0,1.652680296E1
2.319354875E0,-3.686084747E0,-1.435350174E1,-2.062560883E0,1.496209846E1
2.329433875E0,-3.463048553E0,-1.285047729E1,-1.476679230E0,1.339059571E1
2.339512875E0,-3.665577393E0,-1.119252502E1,-1.021176453E0,1.182166974E1
2.349590875E0,-3.918401642E0,-9.390272827E0,-5.974076843E-1,1.019254586E1
2.359669875E0,-4.035757599E0,-7.565567322E0,-1.094374237E0,8.644235262E0
2.369747875E0,-3.772006073E0,-5.709427185E0,-2.504441986E0,7.286824978E0
2.379826875E0,-3.028352509E0,-3.722758484E0,-3.960464172E0,6.222148030E0
2.389905875E0,-2.010169830E0,-1.880090332E0,-4.454586639E0,5.236302563E0
2.399983875E0,-1.188827820E0,-4.231700134E-1,-4.021088104E0,4.214443497E0
2.410062875E0,-9.535171509E-1,8.870553589E-1,-3.357068939E0,3.600829631E0
2.420141875E0,-9.220825195E-1,1.943109283E0,-2.484084320E0,3.285815693E0
2.430219875E0,-1.084943848E0,2.413580933E0,-1.131197662E0,2.877861050E0
2.440298875E0,-1.438957672E0,2.340083771E0,2.748284912E-1,2.760819070E0
2.450377875E0,-1.896256714E0,1.930834808E0,1.091230774E0,2.917995405E0
2.460455875E0,-2.521955566E0,1.394350433E0,1.513053589E0,3.254812464E0
2.470534875E0,-3.259471893E0,8.348139954E-1,1.692380676E0,3.766327626E0
2.480613875E0,-3.874393158E0,3.861968994E-2,1.648072815E0,4.210529400E0
2.490691875E0,-4.189936981E0,-1.282982025E0,1.048868866E0,4.505745297E0
2.500770875E0,-4.243675232E0,-2.751278687E0,5.234614563E-1,5.084518245E0
2.510848875E0,-4.005221100E0,-3.831432495E0,3.632945251E-1,5.554606551E0
2.520927875E0,-3.722908173E0,-4.423301697E0,4.652325439E-1,5.800179694E0
2.531006875E0,-3.605552216E0,-4.765190735E0,1.381626892E-1,5.977134635E0
2.541084875E0,-3.484903107E0,-4.799918518E0,-1.446891174E0,6.105510750E0
2.551163875E0,-6.440357208E0,-3.976331177E0,-1.068208649E1,1.309184411E1
2.561242875E0,-1.310509781E1,-3.878434753E0,-2.223191849E1,2.609682058E1
2.571320875E0,-1.224932739E1,-6.647077332E0,-7.698490906E0,1.592157093E1
2.581399875E0,-8.678053894E0,-9.410181427E0,5.008285217E0,1.374565585E1
2.591478875E0,-1.027433441E1,-1.287532562E1,4.687502289E0,1.712625573E1
2.601556875E0,-1.251143234E1,-1.739861938E1,2.101330261E0,2.153284664E1
2.611635875E0,-1.386821091E1,-2.148093018E1,2.434088287E0,2.568428354E1
2.621714875E0,-1.512903900E1,-2.421963501E1,3.810476074E0,2.880969054E1
2.631792875E0,-1.663460815E1,-2.618938889E1,4.795427856E0,3.139411421E1
2.641871875E0,-1.802401886E1,-2.775722855E1,3.605701904E0,3.329159171E1
2.651949875E0,-1.954590408E1,-2.958597565E1,-7.682324524E0,3.628209519E1
2.662028875E0,-1.561492859E1,-2.952804611E1,-5.078339539E0,3.378640310E1
2.672107875E0,-1.123488693E1,-2.614777542E1,8.048313446E0,2.957539845E1
2.682185875E0,-9.164691925E0,-2.284639069E1,7.314838715E0,2.567987560E1
2.692264875E0,-7.654482422E0,-1.963930984E1,2.677182770E0,2.124760928E1
2.702343875E0,-6.045777740E0,-1.637489822E1,-9.948312378E-1,1.748366122E1
2.712421875E0,-4.039799194E0,-1.308144699E1,-3.115171967E0,1.404095899E1
2.722500875E0,-2.765798492E0,-9.495503998E0,-4.377796326E0,1.081569869E1
2.732579875E0,-2.985691223E0,-6.230044556E0,-5.036576385E0,8.549556066E0
2.742657875E0,-3.727398834E0,-3.988156586E0,-4.550986176E0,7.107064808E0
2.752736875E0,-3.907174988E0,-2.354453888E0,-3.231031036E0,5.590083278E0
2.762815875E0,-3.717220001E0,-9.289682007E-1,-1.120420074E0,3.991997946E0
2.772893875E0,-3.877087555E0,1.824705505E-1,1.311572571E0,4.096989873E0
2.782972875E0,-4.030817871E0,7.825726318E-1,2.666704559E0,4.896041854E0
2.793050875E0,-3.963757324E0,1.398691406E0,2.801723785E0,5.051471661E0
2.803129875E0,-3.097209320E0,1.728006592E0,2.893782349E0,4.577410691E0
2.813208500E0,-1.692081299E0,1.756597137E0,3.214415588E0,4.035001884E0
2.823286500E0,3.921844482E-2,1.905088348E0,3.366948395E0,3.868751891E0
2.833365500E0,1.022823029E0,2.612517242E0,3.232527924E0,4.280262850E0
2.843444500E0,1.013692017E0,2.791844330E0,3.438948669E0,4.544043818E0
2.853522500E0,9.116043091E-1,2.752775574E0,3.751049652E0,4.741220230E0
2.863601500E0,1.059796143E0,2.688708801E0,4.137396240E0,5.046817862E0
2.873680500E0,1.065484314E0,2.714305573E0,4.178410950E0,5.095275226E0
2.883758500E0,7.734416199E-1,2.419568481E0,3.530558167E0,4.349409678E0
2.893837500E0,4.016148376E-1,1.981878662E0,3.069816284E0,3.675990959E0
2.903916500E0,2.059716797E-1,1.805245972E0,3.460204468E0,3.908241588E0
2.913994500E0,-1.663041687E-1,1.328188019E0,4.763843536E0,4.948327569E0
2.924073500E0,-5.405259705E-1,7.571255493E-1,6.937323761E0,6.999419146E0
2.934151500E0,-7.797285461E-1,4.415817261E-2,9.882449341E0,9.913260388E0
2.944230500E0,-9.401948547E-1,-6.246510315E-1,1.118114868E1,1.123798207E1
2.954309500E0,-1.231938171E0,-1.141077118E0,1.137125336E1,1.149456966E1
2.964387500E0,-1.892364807E0,-1.848506012E0,1.034932846E1,1.068206996E1
2.974466500E0,-2.693947906E0,-2.682870941E0,7.746091919E0,8.628852289E0
2.984545500E0,-2.996169434E0,-3.144211578E0,5.607040100E0,7.092390035E0
2.994623500E0,-3.214116211E0,-3.607647858E0,4.057761841E0,6.309603572E0
3.004702500E0,-3.928430786E0,-4.488266602E0,3.141966248E0,6.741591609E0
3.014781500E0,-5.523064728E0,-5.938899994E0,3.295696564E0,8.754221437E0
3.024859500E0,-7.530689850E0,-8.143216095E0,4.341571655E0,1.191102441E1
3.034938500E0,-1.001597168E1,-1.197075668E1,5.176235962E0,1.644421245E1
3.045016500E0,-1.383917130E1,-1.801384003E1,2.585124207E0,2.286271991E1
3.055095500E0,-2.661645081E1,-3.091521149E1,-2.600302643E1,4.837709311E1
3.065174500E0,-3.623380142E1,-4.056040421E1,-5.403702942E1,7.666834616E1
3.075252500E0,-2.213462082E1,-3.294798431E1,-2.664055069E1,4.780407985E1
3.085331500E0,-1.282667679E1,-2.307406723E1,-6.285279694E0,2.713744566E1
3.095410500E0,-1.191821594E1,-1.800171524E1,1.753004608E0,2.166053203E1
3.105488500E0,-1.426653259E1,-1.629301849E1,4.335584106E0,2.208605201E1
3.115567500E0,-1.572719513E1,-1.657907364E1,-2.712359619E-1,2.285353186E1
3.125646500E0,-1.554023392E1,-1.589095459E1,-6.776558075E0,2.323667462E1
3.135724500E0,-1.214619186E1,-1.322948914E1,-5.932014313E0,1.891396715E1
3.145803500E0,-6.838978271E0,-1.094793365E1,-6.083349609E-1,1.292280722E1
3.155882500E0,-3.155138855E0,-9.370513916E0,2.102677460E0,1.010854513E1
3.165960500E0,-8.062234497E-1,-8.473878479E0,3.334166565E0,9.141842233E0
3.176039500E0,5.864804077E-1,-8.037535858E0,4.356540527E0,9.161080029E0
3.186117500E0,6.206094360E-1,-7.827223206E0,4.468358002E0,9.034201814E0
3.196196500E0,-3.427871704E-1,-7.988587646E0,3.810625763E0,8.857533761E0
3.206275500E0,-1.422791290E0,-8.184380493E0,3.080893250E0,8.860040763E0
3.216353500E0,-1.973346405E0,-7.939340057E0,1.684447174E0,8.352519312E0
3.226432500E0,-2.826123047E0,-6.883136444E0,-6.735992432E-1,7.471162876E0
3.236511500E0,-4.527634735E0,-5.437742157E0,-3.218906250E0,7.773665384E0
3.246589500E0,-6.241570587E0,-4.341721344E0,-4.207151184E0,8.689526380E0
3.256668500E0,-7.168592834E0,-3.938759308E0,-4.076173553E0,9.138804022E0
3.266747500E0,-7.082671509E0,-4.220922546E0,-3.618874512E0,9.004258747E0
3.276825500E0,-6.436315613E0,-4.762346649E0,-3.156635742E0,8.606419318E0
3.286904500E0,-5.827381897E0,-5.028493195E0,-2.688858490E0,8.153164021E0
3.296982500E0,-5.081483002E0,-5.115162964E0,-2.148931274E0,7.523580748E0
3.307061500E0,-4.361180878E0,-4.956792297E0,-1.927841034E0,6.877954607E0
3.317140500E0,-3.883075104E0,-4.552932129E0,-2.234104156E0,6.387384802E0
3.327218500E0,-3.525468750E0,-4.108057251E0,-2.802621918E0,6.095880076E0
3.337297500E0,-3.315305786E0,-3.662882996E0,-3.626508636E0,6.128582967E0
3.347376500E0,-3.340303802E0,-3.276536407E0,-4.458927612E0,6.463385783E0
3.357454500E0,-3.614533539E0,-3.102897491E0,-5.281616821E0,7.112545381E0
3.367533500E0,-4.004472656E0,-3.349434814E0,-6.012846222E0,7.962966440E0
3.377612500E0,-4.423601074E0,-4.029171295E0,-6.524182892E0,8.852538065E0
3.387690500E0,-5.200335846E0,-4.709805908E0,-7.664960632E0,1.039121678E1
3.397769500E0,-6.406826935E0,-5.274431763E0,-9.512867889E0,1.262385509E1
3.407848500E0,-6.946155396E0,-6.088139648E0,-9.297166443E0,1.310541197E1
3.417926500E0,-6.381828918E0,-7.082072754E0,-6.643634491E0,1.161986980E1
3.428005500E0,-4.885690155E0,-7.382198639E0,-2.818788300E0,9.290446303E0
3.438083500E0,-3.086880798E0,-6.347101135E0,2.471211090E0,7.478061924E0
3.448162500E0,-2.231409760E0,-5.259013824E0,5.172793121E0,7.706763562E0
3.458241500E0,-2.081870728E0,-4.848567352E0,4.878205719E0,7.186075572E0
3.468319500E0,-2.472558289E0,-4.024980011E0,9.241781616E-1,4.813326693E0
3.478398500E0,-5.933511200E0,-3.251089325E0,-8.050259399E0,1.051583631E1
3.488477500E0,-8.697363739E0,-4.110003204E0,-1.180654816E1,1.522927581E1
3.498555500E0,-9.324110413E0,-5.323679352E0,-8.574768677E0,1.374071522E1
3.508634500E0,-9.977202301E0,-6.035449219E0,-5.982609100E0,1.310583170E1
3.518713500E0,-8.813522186E0,-5.687722321E0,-9.912387085E-1,1.053617163E1
3.528791500E0,-6.873706055E0,-5.539979553E0,2.056872711E0,9.064763302E0
3.538870500E0,-5.665867767E0,-5.839356995E0,-9.550140381E-1,8.192203579E0
3.548948500E0,-5.370681610E0,-6.714886322E0,-4.637655945E0,9.769430482E0
3.559027500E0,-6.388265533E0,-8.884774017E0,-7.245832214E0,1.312445162E1
3.569106500E0,-8.405321045E0,-1.110166397E1,-6.211483154E0,1.524725837E1
3.579184500E0,-1.058927948E1,-1.250694168E1,-5.016218719E0,1.713822862E1
3.589263500E0,-1.276066406E1,-1.348830093E1,-5.854625244E0,1.946908950E1
3.599342500E0,-1.465138229E1,-1.452264999E1,-7.983647919E0,2.212033002E1
3.609420500E0,-1.583586914E1,-1.558364365E1,-9.318721619E0,2.409280543E1
3.619499500E0,-1.590038498E1,-1.632430344E1,-9.200617218E0,2.457552609E1
3.629578500E0,-1.584215607E1,-1.700912933E1,-9.261091461E0,2.502103524E1
3.639656500E0,-1.663864975E1,-1.823687622E1,-1.053748718E1,2.684151553E1
3.649735500E0,-1.908606033E1,-2.099653748E1,-1.327289886E1,3.132574228E1
3.659813500E0,-2.256587402E1,-2.532314026E1,-1.431039139E1,3.681395666E1
3.669892500E0,-2.714470230E1,-2.878933228E1,-1.470422241E1,4.221225737E1
3.679971500E0,-2.930875214E1,-2.910592392E1,-1.614347946E1,4.434827717E1
3.690049500E0,-2.327914078E1,-2.496747986E1,-1.313518524E1,3.657631115E1
3.700128500E0,-1.457998077E1,-1.910297516E1,-7.428602142E0,2.515320316E1
3.710207500E0,-9.492959290E0,-1.520867340E1,-3.472329254E0,1.826135518E1
3.720285500E0,-6.510112152E0,-1.229528183E1,-1.438209229E0,1.398656360E1
3.730364500E0,-5.157674561E0,-9.490564270E0,3.589535522E-1,1.080746338E1
3.740443500E0,-4.627477112E0,-7.916737061E0,1.976040802E0,9.380458803E0
3.750521500E0,-4.357738037E0,-7.263345795E0,4.264781342E0,9.483376657E0
3.760600500E0,-3.772904205E0,-6.649771729E0,5.457650757E0,9.393626667E0
3.770678500E0,-2.853366394E0,-5.576054535E0,5.051545258E0,8.046874763E0
3.780757500E0,-2.048340454E0,-4.157304840E0,4.208498383E0,6.260218909E0
3.790836500E0,-1.262025604E0,-3.000660095E0,3.175945587E0,4.547889621E0
3.800914500E0,-4.834945679E-1,-2.172432404E0,2.190095673E0,3.122458743E0
3.810993917E0,6.030958557E-1,-1.581910400E0,1.729653168E0,2.420302710E0
3.821072917E0,1.635498962E0,-2.390079803E0,1.817670135E0,3.419248901E0
3.831150917E0,2.408192139E0,-3.074905701E0,2.294877777E0,4.529999830E0
3.841229917E0,3.643722839E0,-3.884422302E0,3.377725983E0,6.306701639E0
3.851308917E0,4.768034821E0,-4.452341309E0,3.910617828E0,7.605947080E0
3.861386917E0,4.802313538E0,-4.700974274E0,4.103117523E0,7.873814060E0
3.871465917E0,4.346960449E0,-4.721631317E0,4.976850586E0,8.121509047E0
3.881543917E0,4.279600525E0,-4.471950531E0,6.241271210E0,8.790152929E0
3.891622917E0,3.847149811E0,-3.955823822E0,6.555467834E0,8.568737498E0
3.901701917E0,2.681823120E0,-3.040177917E0,6.825057220E0,7.938278345E0
3.911779917E0,3.063828735E0,-1.640588379E0,6.561305695E0,7.424911391E0
3.921858917E0,3.332819366E0,-6.010002136E-1,6.401138763E0,7.241785944E0
3.931937917E0,3.514990540E0,5.960604858E-1,5.272336121E0,6.364587557E0
3.942015917E0,3.436254272E0,1.835632782E0,3.930526428E0,5.534115028E0
3.952094917E0,3.415447540E0,2.608026581E0,3.685485992E0,5.661262363E0
3.962173917E0,3.393592987E0,3.261118469E0,4.156556396E0,6.279198047E0
3.972251917E0,3.524720306E0,3.929478607E0,4.816084900E0,7.145567096E0
3.982330917E0,3.668720856E0,3.893104248E0,5.339097290E0,7.557892119E0
3.992408917E0,3.600163422E0,3.401526489E0,5.370232544E0,7.305542875E0
4.002487917E0,3.364553375E0,3.733985138E0,4.867428131E0,6.996765041E0
4.012566917E0,3.288361816E0,4.786446533E0,4.928501129E0,7.616660504E0
4.022644917E0,2.909050598E0,5.566624146E0,4.586462402E0,7.777243543E0
4.032723917E0,2.844085693E0,5.998925171E0,2.451452179E0,7.077114131E0
4.042802917E0,3.033142548E0,6.721322937E0,-9.678872681E-1,7.437267072E0
4.052880917E0,6.842271423E-1,6.017785950E0,-1.222447906E1,1.364257318E1
4.062959917E0,-1.864073639E1,3.338058472E-2,-8.921477692E1,9.114139887E1
4.073037917E0,-1.846290619E1,-6.162534943E0,-5.590005524E1,5.919182306E1
4.083116917E0,-8.010891266E0,-7.153324585E0,-7.677085419E0,1.320159354E1
4.093195917E0,-5.031486969E0,-6.104904785E0,1.678145279E1,1.855270550E1
4.103273917E0,-4.223766632E0,-5.684728546E0,2.895773209E1,2.981118231E1
4.113352917E0,-3.911965027E0,-7.965086517E0,2.471031464E1,2.625539417E1
4.123431917E0,-4.762346649E0,-1.305031174E1,8.804540863E0,1.644720407E1
4.133509917E0,-1.005848328E1,-2.220198074E1,-1.431113983E1,2.826499174E1
4.143588917E0,-8.664581909E0,-2.441917007E1,-7.001839600E0,2.684020500E1
4.153667917E0,-1.322544754E1,-4.795742203E1,-3.801584564E1,6.261015341E1
4.163745917E0,-6.929689636E0,-6.080909683E1,-1.233120712E1,6.243256782E1
4.173824917E0,-4.275259552E0,-5.669834518E1,-5.489983521E0,5.712372633E1
4.183902917E0,-8.970994720E0,-3.769745773E1,-1.239662109E1,4.068480405E1
4.193981917E0,-9.930649109E0,-2.024105850E1,-1.958976288E0,2.263086011E1
4.204060917E0,-1.073253159E1,-1.109896957E1,-5.066214752E0,1.624933512E1
4.214138917E0,-1.205473206E1,-4.782105560E0,-1.214783844E1,1.776949851E1
4.224217917E0,-9.812095642E0,-2.088157654E0,-9.636061707E0,1.391011533E1
4.234296917E0,-6.552324371E0,-1.484463043E0,-6.316564636E0,9.221473526E0
4.244374917E0,-4.532424774E0,-3.406466217E0,-5.833369446E0,8.134807036E0
4.254453917E0,-4.360582123E0,-6.985673218E0,-4.118385773E0,9.207356196E0
4.264532917E0,-4.854554901E0,-1.013482452E1,-3.203787689E0,1.168527394E1
4.274610917E0,-5.280419312E0,-1.365909576E1,-5.097200317E0,1.550597228E1
4.284689917E0,-5.698050842E0,-1.725402008E1,-5.821544037E0,1.908033981E1
4.294767917E0,-6.041736145E0,-1.889206375E1,-4.074526978E0,2.024881277E1
4.304846917E0,-6.155499573E0,-1.740625351E1,-2.895877991E0,1.868833715E1
4.314925917E0,-5.887556763E0,-1.456022186E1,-3.532204742E0,1.609782146E1
4.325003917E0,-5.805527344E0,-1.225336899E1,-3.691922607E0,1.405273966E1
4.335082917E0,-5.594466248E0,-1.078417419E1,-2.667752380E0,1.243838287E1
4.345161917E0,-5.188061371E0,-9.894274750E0,-1.648671570E0,1.129295230E1
4.355239917E0,-4.491410065E0,-9.125623169E0,-1.589544525E0,1.029448466E1
4.365318917E0,-3.492986298E0,-8.336314545E0,-2.479144592E0,9.372366370E0
4.375397917E0,-2.601889343E0,-7.672295380E0,-3.440445557E0,8.801739043E0
4.385475917E0,-2.026635590E0,-7.106472015E0,-3.580105133E0,8.211354887E0
4.395554917E0,-1.742825775E0,-6.538852386E0,-3.140619049E0,7.460396787E0
4.405632917E0,-1.808988190E0,-5.826633453E0,-2.832260284E0,6.726350719E0
4.415711917E0,-2.057770844E0,-4.960983582E0,-2.701432343E0,6.011947741E0
4.425790917E0,-2.280507660E0,-4.045038300E0,-2.650687866E0,5.346886589E0
4.435868917E0,-2.468067627E0,-3.099604340E0,-2.728825378E0,4.810965893E0
4.445947917E0,-2.622247009E0,-2.213596802E0,-3.294199677E0,4.756883611E0
4.456026917E0,-2.900817719E0,-1.458716583E0,-4.087100830E0,5.219865008E0
4.466104917E0,-3.254382477E0,-8.376580811E-1,-4.929848328E0,5.966245126E0
4.476183917E0,-3.754492493E0,-4.611909485E-1,-6.094127197E0,7.172677134E0
4.486261917E0,-4.650828552E0,-6.794371033E-1,-7.366481323E0,8.738242849E0
4.496340917E0,-5.294639740E0,-2.151775360E0,-8.817713470E0,1.050787410E1
4.506419917E0,-5.553900604E0,-3.987707520E0,-9.968819733E0,1.208821699E1
4.516497917E0,-5.764362946E0,-5.201383667E0,-1.026924500E1,1.287399180E1
4.526576917E0,-5.914500732E0,-5.670657806E0,-9.852810974E0,1.281466203E1
4.536655917E0,-5.835614777E0,-5.169200592E0,-9.301208038E0,1.213620639E1
4.546733917E0,-5.815556488E0,-4.423750763E0,-8.746910706E0,1.139731174E1
4.556812917E0,-5.662574615E0,-3.640878754E0,-7.478897552E0,1.006253735E1
4.566890917E0,-4.964725800E0,-2.828368378E0,-5.629942474E0,8.021497504E0
4.576969917E0,-4.392016754E0,-2.208058319E0,-4.225413208E0,6.482241085E0
4.587048917E0,-4.995861053E0,-1.781295776E0,-3.700754242E0,6.467397024E0
4.597126917E0,-6.242319031E0,-1.141975250E0,-3.491040344E0,7.242790694E0
4.607205917E0,-7.473808136E0,-4.254153442E-1,-3.601061554E0,8.307010930E0
4.617284917E0,-9.647887115E0,2.011816406E-1,-5.521268463E0,1.111785075E1
4.627362917E0,-1.165970352E1,2.894979858E-1,-4.289629669E0,1.242712429E1
4.637441917E0,-1.302905594E1,-5.376818848E-1,-1.740131378E0,1.315573858E1
4.647520917E0,-1.452998474E1,-1.868264923E0,-1.812880096E0,1.476134833E1
4.657598917E0,-1.525432846E1,-3.507057037E0,-4.782554626E-1,1.565958857E1
4.667677917E0,-1.484882172E1,-5.604495392E0,-3.339555359E-1,1.587480398E1
4.677755917E0,-1.401580399E1,-8.333320770E0,-1.291813660E0,1.635713236E1
4.687834917E0,-1.313024551E1,-1.130284561E1,5.149291992E-1,1.733270949E1
4.697913917E0,-1.252685028E1,-1.373528732E1,2.770738220E0,1.879513464E1
4.707991917E0,-1.301064423E1,-1.618494324E1,6.915618896E-1,2.077757225E1
4.718070917E0,-1.493070145E1,-1.961790436E1,-5.497917023E0,2.525896096E1
4.728149917E0,-1.917886734E1,-2.418894882E1,-1.376597351E1,3.379994415E1
4.738227917E0,-2.316148544E1,-2.886058411E1,-1.541015442E1,4.008566554E1
4.748306917E0,-2.263787430E1,-2.973222153E1,-9.551786957E0,3.857090852E1
4.758385917E0,-1.892933624E1,-2.767340286E1,-2.421664124E0,3.361549425E1
4.768463917E0,-1.552915695E1,-2.498244873E1,2.767145691E0,2.954546590E1
4.778542917E0,-1.206700653E1,-2.212743576E1,5.825735321E0,2.586842191E1
4.788620917E0,-8.459957428E0,-1.980007553E1,6.761589203E0,2.256840622E1
4.798699917E0,-5.366490326E0,-1.794977325E1,6.211483154E0,1.973768227E1
4.808778000E0,-3.239862671E0,-1.642369675E1,5.531297607E0,1.763036523E1
4.818856000E0,-1.674418030E0,-1.485959930E1,5.446573792E0,1.591466410E1
4.828935000E0,-4.152365112E-1,-1.317395462E1,5.942642212E0,1.445823289E1
4.839014000E0,-2.140548706E-2,-1.151854706E1,6.123466187E0,1.304508423E1
4.849092000E0,-1.411564636E-1,-9.839338989E0,5.870791626E0,1.145856497E1
4.859171000E0,-7.879614258E-1,-8.000862122E0,5.519322510E0,9.751799776E0
4.869249000E0,-1.620380402E0,-6.269412689E0,5.388344879E0,8.424098091E0
4.879328000E0,-1.786684570E0,-4.537963257E0,5.186265106E0,7.119178185E0
4.889407000E0,-1.637744293E0,-3.123704224E0,4.919519806E0,6.053214813E0
4.899485000E0,-1.173559570E0,-1.955533447E0,4.420158234E0,4.973846795E0
4.909564000E0,-6.506968689E-1,-8.153544617E-1,3.695964203E0,3.840359450E0
4.919643000E0,-1.287322998E-2,4.739144897E-1,3.375929718E0,3.409055899E0
4.929721000E0,5.041516113E-1,1.211580505E0,2.950664062E0,3.229321071E0
4.939800000E0,7.390132141E-1,2.039508820E0,2.579436035E0,3.370345237E0
4.949878000E0,9.798623657E-1,2.872526550E0,2.854863281E0,4.166747340E0
4.959957000E0,1.169368286E0,3.195255432E0,2.986739044E0,4.527437419E0
4.970036000E0,1.080453186E0,3.150348816E0,2.557431793E0,4.199111111E0
4.980114000E0,9.300160217E-1,3.175496521E0,2.620450745E0,4.220837602E0
4.990193000E0,6.647676086E-1,3.424578552E0,2.879711609E0,4.523537685E0
5.000272000E0,1.504371643E-1,3.758833466E0,2.468067627E0,4.499201949E0
5.010350000E0,-4.637356567E-1,3.751648407E0,2.474504242E0,4.518084525E0
5.020429000E0,-9.886940002E-1,3.329376526E0,3.131188660E0,4.676174323E0
5.030508000E0,-1.474134521E0,2.812950439E0,3.615581360E0,4.812295848E0
5.040586000E0,-1.833686829E0,2.337988129E0,3.186872864E0,4.357149817E0
5.050665000E0,-2.162103882E0,1.648521881E0,1.776356049E0,3.247731270E0
5.060743000E0,-2.972368927E0,8.309220886E-1,-4.535568237E-2,3.086659310E0
5.070822000E0,-3.292253723E0,-1.930984497E-2,-3.749702454E-1,3.313594745E0
5.080901000E0,-2.907703400E0,-8.735833740E-1,9.008267212E-1,3.166918969E0
5.090979000E0,-2.312241669E0,-1.551373901E0,2.200124817E0,3.548770453E0
5.101058000E0,-2.053280182E0,-2.280956726E0,2.708018646E0,4.092931478E0
5.111137000E0,-2.397115173E0,-3.169059906E0,2.821183319E0,4.873210150E0
5.121215000E0,-3.508404236E0,-4.551584930E0,3.040028229E0,6.501353497E0
5.131294000E0,-5.081782379E0,-6.628815308E0,3.359613647E0,9.002927768E0
5.141372000E0,-6.963519287E0,-9.526489563E0,4.025728455E0,1.246800280E1
5.151451000E0,-8.745862885E0,-1.332334396E1,4.723427582E0,1.662264660E1
5.161530000E0,-1.089898544E1,-1.880763931E1,4.788093109E0,2.225850435E1
5.171608000E0,-1.274659332E1,-2.518976761E1,4.688550110E0,2.861787091E1
5.181687000E0,-1.328801743E1,-3.105217667E1,5.668711853E0,3.424826093E1
5.191766000E0,-1.305629929E1,-3.571917160E1,7.679480438E0,3.879820345E1
5.201844000E0,-1.187705154E1,-3.889511719E1,7.846832428E0,4.141819979E1
5.211923000E0,-8.239615631E0,-3.780313797E1,4.582420807E0,3.896109709E1
5.222001000E0,-3.108585663E0,-3.354763733E1,-9.635163574E0,3.504202694E1
5.232080000E0,9.465266876E0,-2.949721024E1,-5.806575165E1,6.581267510E1
5.242159000E0,4.582121429E0,-2.357986542E1,1.071172485E0,2.404481858E1
5.252237000E0,1.052461395E0,-2.030063461E1,1.134056717E1,2.327728301E1
5.262316000E0,1.257235565E0,-1.708127930E1,6.180647278E0,1.820854592E1
5.272395000E0,1.147813110E0,-1.416519333E1,5.399421844E0,1.520276071E1
5.282473000E0,8.538244629E-1,-1.194725555E1,3.275937653E0,1.241763661E1
5.292552000E0,2.887495422E-1,-1.038809784E1,1.772164764E0,1.054213076E1
5.302630000E0,-4.126918030E-1,-9.753866730E0,4.653822327E-1,9.773679518E0
5.312709000E0,-9.415420532E-1,-9.409283295E0,-9.689350891E-1,9.505785016E0
5.322788000E0,-7.875123596E-1,-9.124725037E0,-3.618575134E0,9.847581871E0
5.332866000E0,1.209185486E0,-8.777447205E0,-7.112758942E0,1.136208822E1
5.342945000E0,3.080743561E0,-8.453221436E0,-6.538553009E0,1.112207755E1
5.353024000E0,2.847079468E0,-8.113577728E0,-2.355202332E0,8.915322937E0
5.363102000E0,2.110910339E0,-7.689359894E0,-1.820214844E-1,7.975921881E0
5.373181000E0,1.455273743E0,-7.037315826E0,4.755610657E-1,7.201929883E0
5.383260000E0,7.704478455E-1,-6.218069458E0,-1.378633118E-1,6.267135228E0
5.393338000E0,3.212319946E-1,-5.450316010E0,-1.373094635E0,5.629788937E0
5.403417000E0,-1.670526123E-1,-4.964576111E0,-2.377655640E0,5.507101677E0
5.413495000E0,-9.898915100E-1,-4.770130463E0,-2.886447601E0,5.662650403E0
5.423574000E0,-1.963167572E0,-5.070406036E0,-2.959346008E0,6.190377459E0
5.433653000E0,-2.602338409E0,-6.113886108E0,-2.566113739E0,7.122970466E0
5.443731000E0,-2.796334991E0,-7.322472839E0,-1.937421112E0,8.074137628E0
5.453810000E0,-3.131488037E0,-8.062084808E0,-1.128652954E0,8.722229433E0
5.463889000E0,-3.678750000E0,-8.381370850E0,-6.530918884E-1,9.176443096E0
5.473967000E0,-4.165537720E0,-8.565637665E0,-7.701484680E-1,9.555887283E0
5.484046000E0,-4.383783875E0,-8.761580200E0,-1.127904510E0,9.861795843E0
5.494124000E0,-4.455185394E0,-8.731792145E0,-1.729204102E0,9.954045297E0
5.504203000E0,-4.515360260E0,-8.377778320E0,-2.415975952E0,9.818991173E0
5.514282000E0,-4.733756104E0,-8.389154663E0,-3.220552826E0,1.015668860E1
5.524360000E0,-4.794080658E0,-8.482261047E0,-3.787274323E0,1.045348787E1
5.534439000E0,-4.380341034E0,-8.473130035E0,-4.074077911E0,1.037205047E1
5.544518000E0,-3.191962280E0,-8.303383026E0,-4.183949432E0,9.830576063E0
5.554596000E0,-1.341061249E0,-7.668253784E0,-4.406237183E0,8.945137645E0
5.564675000E0,2.179467773E-1,-7.046596527E0,-4.254003754E0,8.233988787E0
5.574753000E0,9.273216248E-1,-7.165149994E0,-3.185076599E0,7.895822489E0
5.584832000E0,1.131497040E0,-7.238497467E0,-2.107317810E0,7.623445381E0
5.594911000E0,1.000968475E0,-7.006330261E0,-2.506986694E0,7.508367592E0
5.604989000E0,2.908451843E-1,-6.837331696E0,-4.889132996E0,8.410547966E0
5.615068000E0,-2.173031158E0,-7.038513336E0,-6.539600830E0,9.850335701E0
5.625147000E0,-5.483995972E0,-6.923702087E0,-4.117337952E0,9.744964557E0
5.635225000E0,-6.413862305E0,-6.655160522E0,-1.381028137E0,9.345374790E0
5.645304000E0,-6.893464966E0,-6.774163055E0,-1.996248779E0,9.868847629E0
5.655382000E0,-8.347690887E0,-6.320306854E0,-5.568570099E0,1.185913972E1
5.665461000E0,-8.835077362E0,-6.117778015E0,-8.562793579E0,1.374071445E1
5.675540000E0,-6.658453674E0,-6.376140747E0,-6.897356873E0,1.151363140E1
5.685618000E0,-4.206702118E0,-5.929469604E0,-1.087937622E0,7.351092488E0
5.695697000E0,-2.451751556E0,-5.157824249E0,8.689430237E-1,5.776616541E0
5.705776000E0,-1.804198151E0,-5.854325867E0,-4.374203796E0,7.527411319E0
5.715854000E0,-3.234922943E0,-7.178921356E0,-4.569397888E0,9.103902204E0
5.725933000E0,-4.414020996E0,-7.941585388E0,-3.156036987E0,9.618364169E0
5.736011000E0,-5.668113098E0,-8.375532990E0,-5.584287415E0,1.155254625E1
5.746090000E0,-7.349416809E0,-8.847950592E0,-6.435417480E0,1.318008935E1
5.756169000E0,-7.849077759E0,-9.383836212E0,-3.673810272E0,1.277346021E1
5.766247000E0,-7.058122559E0,-9.832303619E0,-8.078700256E-1,1.213029029E1
5.776326000E0,-6.112538910E0,-1.072489746E1,4.058061218E-1,1.235116335E1
5.786405000E0,-5.364694061E0,-1.206356369E1,-1.263522491E0,1.326295594E1
5.796483000E0,-6.172414398E0,-1.386087616E1,-4.668791199E0,1.587514405E1
5.806562000E0,-9.107211456E0,-1.657308609E1,-8.804690552E0,2.085979527E1
5.816640375E0,-1.320239548E1,-2.105820923E1,-1.737511826E1,3.032566828E1
5.826719375E0,-1.750025803E1,-2.733690262E1,-2.826661926E1,4.304145723E1
5.836798375E0,-1.716166214E1,-3.049204147E1,-2.785811874E1,4.472540688E1
5.846876375E0,-1.219109848E1,-2.837020386E1,-2.093202164E1,3.730470317E1
5.856955375E0,-9.287286987E0,-2.455942841E1,-1.675495789E1,3.114719629E1
5.867034375E0,-8.621471558E0,-1.957659027E1,-1.454480392E1,2.586743087E1
5.877112375E0,-7.271279297E0,-1.583197723E1,-1.583377350E1,2.354211947E1
5.887191375E0,-1.880539398E0,-1.396116760E1,-1.197689392E1,1.849044665E1
5.897269375E0,9.909393311E-2,-1.252206024E1,-4.648134155E0,1.335728129E1
5.907348375E0,-3.128494263E-1,-1.114851654E1,-2.957100677E0,1.153827284E1
5.917427375E0,-8.562194824E-2,-1.145268402E1,-8.146808624E0,1.405495618E1
5.927505375E0,1.736688538E0,-1.377690079E1,-1.115704880E1,1.781288355E1
5.937584375E0,1.507814484E0,-1.578362778E1,-8.955427094E0,1.820977992E1
5.947663375E0,6.462062073E-1,-1.655422531E1,-7.002288666E0,1.798588348E1
5.957741375E0,-2.724334717E-2,-1.619407425E1,-6.674320679E0,1.751557420E1
5.967820375E0,-5.031037903E-1,-1.482681747E1,-3.288212128E0,1.519539301E1
5.977898375E0,-1.373244324E0,-1.302606216E1,2.042951660E0,1.325661144E1
5.987977375E0,-2.270777893E0,-1.123069565E1,6.384673004E0,1.311674527E1
5.998056375E0,-2.774779816E0,-9.584568787E0,7.619604950E0,1.255474976E1
6.008134375E0,-2.625240784E0,-7.970175934E0,7.242089996E0,1.108437915E1
6.018213375E0,-1.882185974E0,-6.513854370E0,6.427933044E0,9.342978434E0
6.028292375E0,-9.404942322E-1,-5.175936584E0,6.152356110E0,8.094833823E0
6.038370375E0,-2.365081787E-2,-3.897894287E0,6.099216614E0,7.238410222E0
6.048449375E0,6.656657410E-1,-2.660717010E0,6.093229065E0,6.682063029E0
6.058527375E0,1.293609924E0,-1.505569153E0,5.875282288E0,6.201540701E0
6.068606375E0,1.903292084E0,-5.683680725E-1,5.238207092E0,5.602176056E0
6.078685375E0,2.313289490E0,3.356021118E-1,4.609364777E0,5.168189304E0
6.088763375E0,2.479593658E0,7.909552002E-1,4.175417175E0,4.920173110E0
6.098842375E0,2.299518127E0,8.089178467E-1,3.822451172E0,4.533570851E0
6.108921375E0,2.332599335E0,1.137933655E0,3.313808899E0,4.209185441E0
6.118999375E0,2.455493774E0,1.274150391E0,2.632276154E0,3.818610564E0
6.129078375E0,2.305954742E0,1.185534668E0,2.060315552E0,3.311769904E0
6.139156375E0,2.269281006E0,1.013242950E0,1.971550140E0,3.172271665E0
6.149235375E0,2.448757782E0,5.748046875E-1,2.202819214E0,3.343535194E0
6.159314375E0,2.660866699E0,-1.772314453E-1,2.377206573E0,3.572496840E0
6.169392375E0,2.746338959E0,-2.591111755E-1,2.758912811E0,3.901424891E0
6.179471375E0,2.870879974E0,8.036787415E-1,3.776496735E0,4.811421716E0
6.189549375E0,3.266207886E0,1.976938934E0,4.894970856E0,6.207829023E0
6.199628375E0,3.857777710E0,2.888543243E0,5.349126434E0,7.199950315E0
6.209707375E0,4.377197571E0,3.143313446E0,4.228856049E0,6.850073100E0
6.219785375E0,4.420008545E0,3.123704224E0,1.709145813E0,5.675842054E0
6.229864375E0,3.777694244E0,1.794917450E0,-1.203497314E0,4.352138353E0
6.239943375E0,3.521576843E0,-3.531156921E-1,-8.378077698E0,9.094964544E0
6.250021375E0,2.208956451E0,-2.207459564E0,-2.947370911E1,2.963868915E1
6.260100375E0,-4.394860840E0,-3.272045746E0,-3.741035477E1,3.780946613E1
6.270178375E0,-5.770350494E0,-3.826043701E0,-3.673660583E1,3.738333537E1
6.280257375E0,-5.813909912E0,-3.931723938E0,-3.524450867E1,3.593654676E1
6.290336375E0,-6.527925110E0,-4.442761230E0,-3.032019882E1,3.133155582E1
6.300414375E0,-5.005141754E0,-5.557343445E0,-2.017429733E1,2.151598901E1
6.310493375E0,-9.874964905E-1,-6.945107574E0,-1.055006104E0,7.093849901E0
6.320572375E0,3.363505554E-1,-8.079448700E0,1.561672485E1,1.758615132E1
6.330650375E0,-1.332079926E0,-9.445058899E0,1.639390869E1,1.896691374E1
6.340729375E0,-1.365161133E0,-1.175400742E1,1.548410065E1,1.948788670E1
6.350807375E0,-4.930147705E0,-1.550011734E1,1.772134827E1,2.405423410E1
6.360886375E0,-8.935668182E0,-2.037981995E1,1.725312195E1,2.815765338E1
6.370965375E0,-7.165000305E0,-2.681239334E1,1.573078766E1,3.190140038E1
6.381043375E0,-7.044351196E0,-3.434607697E1,1.480316666E1,3.805797722E1
6.391122375E0,-8.790470123E0,-3.840892822E1,9.975406036E0,4.064513326E1
6.401201375E0,-9.748777313E0,-4.160553085E1,-3.648213501E0,4.288785747E1
6.411279375E0,-1.695344513E1,-4.793302277E1,-8.318995560E1,9.749647525E1
6.421358375E0,-1.064675995E1,-3.801195374E1,-3.211751129E1,5.089004476E1
6.431436375E0,-9.677375793E-1,-2.597039429E1,2.368599472E1,3.516282471E1
6.441515375E0,-1.419947205E0,-1.947285599E1,7.533384247E0,2.092749982E1
6.451594375E0,-3.164419556E0,-1.432820435E1,-1.219663696E1,1.908059077E1
6.461672375E0,-3.005150757E0,-1.053628967E1,-2.625031219E1,2.844509134E1
6.471751375E0,-3.306474152E0,-9.954150238E0,-1.309297302E1,1.677628746E1
6.481830375E0,-5.638923798E0,-1.173290131E1,-1.968256989E0,1.316557899E1
6.491908375E0,-7.414082336E0,-1.293984146E1,-1.698068848E0,1.500971525E1
6.501987375E0,-8.957971802E0,-1.344144836E1,-4.955145721E0,1.689589483E1
6.512065375E0,-1.018721558E1,-1.396086823E1,-6.767576752E0,1.856031513E1
6.522144375E0,-9.940678253E0,-1.406535095E1,-5.552703094E0,1.809651053E1
6.532223375E0,-7.766000519E0,-1.355266708E1,-3.182232513E0,1.594089561E1
6.542301375E0,-4.601131897E0,-1.314057404E1,-2.240690460E0,1.410197839E1
6.552380375E0,-1.692380676E0,-1.297397049E1,-1.863325195E0,1.321590116E1
6.562458375E0,2.350112915E-1,-1.223465790E1,-1.687440948E0,1.235271392E1
6.572537375E0,1.495839386E0,-1.130299530E1,-1.713786163E0,1.152962711E1
6.582616375E0,2.082170105E0,-9.950408020E0,-1.688937836E0,1.030526871E1
6.592694375E0,2.433788910E0,-8.304430847E0,-1.778751068E0,8.834639524E0
6.602773375E0,2.605781250E0,-6.608307953E0,-2.044448547E0,7.391860374E0
6.612852375E0,2.329605560E0,-4.929848328E0,-2.339335327E0,5.933207933E0
6.622930375E0,1.398541718E0,-3.589385834E0,-2.556982727E0,4.623610090E0
6.633009375E0,2.390528870E-1,-2.595602417E0,-2.886148224E0,3.888977984E0
6.643087375E0,-8.249345398E-1,-1.916464691E0,-3.137924652E0,3.768278789E0
6.653166375E0,-1.625020752E0,-1.574575653E0,-3.130140839E0,3.862351952E0
6.663245375E0,-2.211950226E0,-1.611548767E0,-2.568658447E0,3.753374408E0
6.673323375E0,-2.563419342E0,-1.822160797E0,-1.826651459E0,3.637037839E0
6.683402375E0,-2.655028839E0,-1.965712280E0,-1.377285919E0,3.579122715E0
6.693481375E0,-2.762355652E0,-1.976489868E0,-1.334025879E0,3.649211695E0
6.703559375E0,-3.004102936E0,-1.777104492E0,-2.210004272E0,4.131204874E0
6.713638375E0,-3.415148163E0,-1.383123779E0,-3.369792480E0,4.993172311E0
6.723716375E0,-3.592379608E0,-1.001567230E0,-3.675157471E0,5.235944098E0
6.733795375E0,-3.555107117E0,-8.050259399E-1,-3.522175598E0,5.068784304E0
6.743874375E0,-3.040926361E0,-7.261399841E-1,-2.868335266E0,4.242859838E0
6.753952375E0,-1.811083832E0,-7.515870667E-1,-1.350791016E0,2.381080455E0
6.764031375E0,-7.303312683E-1,-8.090675354E-1,-5.968089294E-1,1.242640309E0
6.774109375E0,-3.014730835E-1,-1.114282837E0,-1.059496765E0,1.566858531E0
6.784188375E0,-6.861730957E-1,-2.286644897E0,-2.808010712E0,3.685716017E0
6.794267375E0,-1.670975189E0,-4.584217072E0,-6.200705566E0,7.890244214E0
6.804345375E0,-2.568808136E0,-7.606582031E0,-9.829010468E0,1.269126913E1
6.814423875E0,-3.719615021E0,-1.076606186E1,-9.680519257E0,1.494844731E1
6.824502875E0,-4.219126282E0,-1.362870895E1,-3.469335480E0,1.468260954E1
6.834580875E0,-4.182751923E0,-1.621787476E1,2.276466064E0,1.690257889E1
6.844659875E0,-4.055965576E0,-1.859957199E1,3.578907623E0,1.937017075E1
6.854737875E0,-4.256997528E0,-2.062665665E1,3.681594086E0,2.138071859E1
6.864816875E0,-4.046086121E0,-2.134591095E1,3.092868347E0,2.194503501E1
6.874895875E0,-3.783382416E0,-2.201846237E1,2.294578400E0,2.245866776E1
6.884973875E0,-4.347858582E0,-2.424882431E1,2.602937164E0,2.477265905E1
6.895052875E0,-7.011269989E0,-2.896222275E1,-9.650431824E-1,2.981441869E1
6.905131875E0,-1.493594055E1,-3.604594208E1,-1.364367783E1,4.133451590E1
6.915209875E0,-1.680585205E1,-3.816373810E1,-4.008065186E0,4.189238780E1
6.925288875E0,-1.085213287E1,-3.703149261E1,9.016200714E0,3.962817317E1
6.935366875E0,-9.084009705E0,-3.440460526E1,3.435655518E0,3.574912340E1
6.945445875E0,-5.086273041E0,-2.601350464E1,-4.453538818E0,2.687762276E1
6.955524875E0,-1.002914429E0,-1.960637833E1,-6.190077667E0,2.058477520E1
6.965602875E0,-1.056802368E0,-1.608405304E1,-4.971312103E0,1.686794408E1
6.975681875E0,-1.416803741E0,-1.321931030E1,-4.742887115E0,1.411568191E1
6.985760875E0,-1.832938385E0,-1.036923706E1,-3.522924042E0,1.110368111E1
6.995838875E0,-2.887645111E0,-7.571704559E0,-1.139879608E0,8.183430194E0
7.005917875E0,-4.290527802E0,-5.110223236E0,1.089284821E0,6.760883948E0
7.015995875E0,-5.231471100E0,-3.120860138E0,3.652853851E0,7.102914833E0
7.026074875E0,-5.352868652E0,-1.673370209E0,7.578889618E0,9.428305177E0
7.036153875E0,-4.978048096E0,3.402424622E-1,9.076525269E0,1.035760777E1
7.046231875E0,-3.923191681E0,2.026036835E0,9.458979950E0,1.043880069E1
7.056310875E0,-3.107388153E0,2.830464020E0,1.046159500E1,1.127441163E1
7.066388875E0,-3.723207550E0,3.107388153E0,1.116049164E1,1.216859520E1
7.076467875E0,-4.673281860E0,3.300037537E0,9.249565430E0,1.087585729E1
7.086546875E0,-5.838907928E0,3.260519714E0,8.134833527E0,1.053087608E1
7.096624875E0,-6.870861969E0,2.025737457E0,8.710087280E0,1.127732135E1
7.106703875E0,-7.508086853E0,1.155447235E0,9.928852844E0,1.250154172E1
7.116782875E0,-7.069049835E0,3.779640198E-1,1.115255814E1,1.320961299E1
7.126860875E0,-6.022276611E0,1.160087585E-1,1.215337692E1,1.356413817E1
7.136939875E0,-4.393064575E0,2.487826538E-1,1.158411072E1,1.239163146E1
7.147017875E0,-2.272424469E0,-5.263055420E-1,1.001731888E1,1.028530933E1
7.157096875E0,-5.489085388E-1,-1.424288177E0,8.646319885E0,8.780019644E0
7.167175875E0,4.345463562E-1,-1.798959045E0,7.855364685E0,8.070429884E0
7.177253875E0,1.248553619E0,-1.806892548E0,7.603438568E0,7.914292443E0
7.187332875E0,1.896406403E0,-1.806293793E0,7.419620819E0,7.868279838E0
7.197411875E0,2.173180847E0,-1.692680054E0,7.069349213E0,7.587066564E0
7.207489875E0,1.691781921E0,-1.684896240E0,6.594087524E0,7.013058654E0
7.217568875E0,6.557862854E-1,-1.781894531E0,6.262527008E0,6.544039143E0
7.227646875E0,-5.429209900E-1,-1.898651733E0,5.890550537E0,6.212747157E0
7.237725875E0,-1.899549866E0,-2.143093414E0,5.542673950E0,6.238779816E0
7.247804875E0,-3.001109161E0,-2.386337585E0,4.938081207E0,6.251872462E0
7.257882875E0,-3.952380981E0,-2.625689850E0,3.987258453E0,6.197886138E0
7.267961875E0,-4.879403229E0,-2.978955231E0,2.980302429E0,6.447088700E0
7.278039875E0,-5.952821045E0,-3.598816223E0,2.419269104E0,7.364809543E0
7.288118875E0,-7.289092255E0,-4.629423065E0,2.290387115E0,8.933548956E0
7.298197875E0,-9.107211456E0,-6.151008911E0,2.381397858E0,1.124487736E1
7.308275875E0,-1.246802261E1,-8.518934784E0,-6.457571411E-1,1.511425949E1
7.318354875E0,-2.600347549E1,-1.729054413E1,-3.193369354E1,4.466435309E1
7.328433875E0,-2.547088303E1,-1.905342819E1,-4.639152832E0,3.214530676E1
7.338511875E0,-2.433130280E1,-1.980576370E1,8.459658051E0,3.249378996E1
7.348590875E0,-2.779375259E1,-2.203073685E1,-4.493655396E0,3.574967116E1
7.358668875E0,-1.870255783E1,-1.853775055E1,-1.449196381E1,3.005745964E1
7.368747875E0,-1.278341675E1,-1.346659607E1,-4.640799408E0,1.913901702E1
7.378826875E0,-1.545431259E1,-1.221100708E1,9.745484161E0,2.197541656E1
7.388904875E0,-2.000365219E1,-1.447849182E1,8.587641907E-1,2.470850668E1
7.398983875E0,-2.461930389E1,-1.476963638E1,-6.704707489E0,2.948228936E1
7.409061875E0,-2.578492996E1,-1.297037796E1,-8.590635681E-1,2.887613734E1
7.419140875E0,-2.531475769E1,-1.287966660E1,-1.521286469E0,2.844357715E1
7.429219875E0,-2.313005081E1,-1.414558411E1,-6.208190002E0,2.781435643E1
7.439297875E0,-1.525268188E1,-1.564711166E1,-5.758076019E0,2.259716459E1
7.449376875E0,-8.914262695E0,-1.588077576E1,-3.453318787E0,1.853614115E1
7.459455875E0,-5.130131836E0,-1.475481720E1,-1.685045929E0,1.571185104E1
7.469533875E0,-1.365610199E0,-1.315928513E1,-5.206173706E-1,1.324019330E1
7.479612875E0,1.335672455E0,-1.152498367E1,6.692582703E-1,1.162141025E1
7.489690875E0,2.516866150E0,-1.018137772E1,1.907183990E0,1.065985076E1
7.499769875E0,2.663411407E0,-9.350006561E0,2.594404907E0,1.006217272E1
7.509848875E0,2.191891937E0,-9.018296356E0,2.650238800E0,9.651830144E0
7.519926875E0,1.899849243E0,-8.933722229E0,2.745440826E0,9.537204273E0
7.530005875E0,1.419797516E0,-8.750353546E0,2.908002777E0,9.329576213E0
7.540083875E0,6.771917725E-1,-8.615633698E0,3.077600098E0,9.173840802E0
7.550162875E0,2.245330811E-1,-8.389454041E0,3.012485504E0,8.916749582E0
7.560241875E0,3.956272888E-1,-7.682324524E0,2.717299347E0,8.158329902E0
7.570319875E0,2.899470520E-1,-6.658753052E0,2.433190155E0,7.095313653E0
7.580398875E0,1.321751404E-1,-5.553900604E0,1.892065430E0,5.868832403E0
7.590477875E0,-6.301895142E-2,-4.661306763E0,6.747967529E-1,4.710318756E0
7.600555875E0,-6.767427063E-1,-3.633244629E0,-3.313060455E0,4.963347339E0
7.610634875E0,-1.358125763E0,-2.746488647E0,-7.215295715E0,7.838890083E0
7.620712875E0,-1.182391205E0,-2.495460663E0,-6.779551849E0,7.320361751E0
7.630791875E0,-5.075944519E-1,-2.675386505E0,-5.931116180E0,6.526368380E0
7.640870875E0,1.330732727E-1,-3.170706482E0,-5.592370605E0,6.430061981E0
7.650948875E0,1.580712891E-1,-4.055366821E0,-5.430706787E0,6.779643265E0
7.661027875E0,-2.068698120E-1,-5.000950470E0,-5.251978455E0,7.255038140E0
7.671105875E0,-4.598437500E-1,-5.408552856E0,-5.198988647E0,7.516208035E0
7.681184875E0,-8.779243469E-1,-5.489684143E0,-5.076692963E0,7.528625013E0
7.691263875E0,-1.079704742E0,-5.604495392E0,-4.594395905E0,7.326977866E0
7.701341875E0,-1.051563263E0,-6.041436768E0,-4.262086945E0,7.467940053E0
7.711420875E0,-1.287622375E0,-6.818321228E0,-4.628973999E0,8.341155557E0
7.721499875E0,-1.923799438E0,-7.887248383E0,-5.567372589E0,9.844050430E0
7.731577875E0,-2.863545227E0,-8.948391724E0,-7.373217316E0,1.194311263E1
7.741656875E0,-3.792363739E0,-9.207203522E0,-8.675958252E0,1.320707655E1
7.751734875E0,-4.131857758E0,-8.365503845E0,-7.322023773E0,1.186026708E1
7.761813875E0,-3.905977478E0,-6.877448273E0,-3.403771820E0,8.610552677E0
7.771892875E0,-3.874393158E0,-5.454357605E0,5.459147644E-1,6.712597273E0
7.781970875E0,-4.225263519E0,-4.312681732E0,2.278112640E0,6.453051428E0
7.792049875E0,-5.454507294E0,-3.195255432E0,2.584525452E0,6.829427421E0
7.802128875E0,-7.121440887E0,-2.767594757E0,1.212927704E0,7.735999914E0
7.812207875E0,-9.349707184E0,-4.085005188E0,-4.533622284E0,1.116503573E1
7.822286875E0,-1.111154343E1,-5.672154694E0,-1.176777878E1,1.714993742E1
7.832364875E0,-1.031519943E1,-6.420747986E0,-1.284733383E1,1.768285414E1
7.842443875E0,-8.565487976E0,-7.421716461E0,-5.425317993E0,1.256517150E1
7.852522875E0,-6.273304596E0,-8.703201599E0,2.025288391E-1,1.073038147E1
7.862600875E0,-5.434299316E0,-9.521699524E0,-4.915777588E-1,1.097433458E1
7.872679875E0,-5.636379089E0,-9.855804749E0,-3.716621246E0,1.194650283E1
7.882757875E0,-5.319338379E0,-1.034229309E1,-4.880600739E0,1.261263853E1
7.892836875E0,-4.207151184E0,-1.127036316E1,-3.595373383E0,1.255579215E1
7.902915875E0,-2.909799042E0,-1.176613220E1,-4.785398712E0,1.303107203E1
7.912993875E0,-3.261268158E0,-1.169532944E1,-8.298143921E0,1.470631814E1
7.923072875E0,-5.847440186E0,-1.141825562E1,-8.155490570E0,1.520135338E1
7.933150875E0,-7.945028229E0,-1.083312241E1,-4.584217072E0,1.419489559E1
7.943229875E0,-9.634714508E0,-1.049752029E1,-4.977000275E0,1.509291846E1
7.953308875E0,-1.058044785E1,-1.052147049E1,-6.728957062E0,1.636844773E1
7.963386875E0,-9.779912567E0,-1.095601685E1,-7.238198090E0,1.637291991E1
7.973465875E0,-8.351732483E0,-1.173335037E1,-8.295449524E0,1.662039197E1
7.983544875E0,-7.240443420E0,-1.256127869E1,-9.444460144E0,1.730339766E1
7.993622875E0,-7.323221283E0,-1.356284592E1,-1.068448151E1,1.875469286E1
8.003701875E0,-9.120982819E0,-1.484313354E1,-1.221789276E1,2.127881210E1
8.013779875E0,-1.197599579E1,-1.673669586E1,-1.399814072E1,2.488954413E1
8.023858875E0,-1.515867737E1,-2.015498749E1,-1.608075989E1,2.990986223E1
8.033937875E0,-1.810784454E1,-2.378389114E1,-1.853445740E1,3.517234173E1
8.044015875E0,-1.970098160E1,-2.610316818E1,-2.018956558E1,3.843335301E1
8.054094875E0,-1.860241608E1,-2.664309540E1,-1.944112198E1,3.786636555E1
8.064172875E0,-1.521211624E1,-2.503274414E1,-1.651321060E1,3.362637186E1
8.074251875E0,-1.133248398E1,-2.221590179E1,-1.205233704E1,2.769892261E1
8.084330875E0,-8.182584229E0,-1.899235519E1,-8.529113617E0,2.236984621E1
8.094408875E0,-5.573360138E0,-1.595711700E1,-5.244793396E0,1.769745134E1
8.104487875E0,-2.918930054E0,-1.319670731E1,-2.935844879E0,1.383085035E1
8.114566875E0,-1.661544800E-1,-1.095152618E1,-2.378553772E0,1.120807972E1
8.124644875E0,1.279239807E0,-9.337582397E0,4.459226990E-1,9.435345599E0
8.134723875E0,7.680528259E-1,-8.365653534E0,3.659140778E0,9.163153138E0
8.144801875E0,-2.390528870E-1,-7.130122833E0,4.435875549E0,8.400761262E0
8.154880875E0,-1.901046753E-1,-5.216951294E0,3.073259125E0,6.057857892E0
8.164959875E0,2.993774414E-4,-3.363355865E0,1.893113251E0,3.859538903E0
8.175037875E0,-1.965412903E-1,-1.932631073E0,1.864373016E0,2.692504055E0
8.185116875E0,-6.598278809E-1,-9.554631042E-1,2.216590576E0,2.502310204E0
8.195194875E0,-8.800199890E-1,-4.737648010E-1,3.026855621E0,3.187592072E0
8.205273875E0,-5.999523926E-1,1.773811340E-1,3.221900024E0,3.282079631E0
8.215352875E0,-7.409591675E-2,8.725355530E-1,3.078348541E0,3.200474689E0
8.225430875E0,4.435276794E-1,4.513114929E-1,3.034040680E0,3.099322783E0
8.235509875E0,8.919950867E-1,-3.772155762E-2,3.216960297E0,3.338549341E0
8.245588875E0,1.298699341E0,-4.194277954E-1,3.681444397E0,3.926266993E0
8.255666875E0,1.599873047E0,-5.948629761E-1,4.447251892E0,4.763560131E0
8.265745875E0,1.702709198E0,-5.287005615E-1,5.422324219E0,5.707919308E0
8.275823875E0,1.645228729E0,-3.285667419E-1,6.334377594E0,6.552791251E0
8.285902875E0,1.548080750E0,6.885681152E-3,6.632108459E0,6.810393824E0
8.295981875E0,1.388512573E0,4.022135925E-1,5.892197113E0,6.066937428E0
8.306059875E0,1.411265259E0,8.083190918E-1,5.098697205E0,5.351799937E0
8.316138875E0,1.280437317E0,1.106049957E0,4.706961823E0,5.001835246E0
8.326216875E0,8.057743835E-1,1.078656921E0,4.366270294E0,4.569145368E0
8.336295875E0,2.294728088E-1,7.499404907E-1,4.024680634E0,4.100380801E0
8.346374875E0,-4.730163574E-2,7.610174561E-1,4.023782501E0,4.095388947E0
8.356452875E0,-4.191284180E-2,1.062789917E0,3.745062103E0,3.893169564E0
8.366531875E0,-2.877017212E-1,1.330583038E0,3.410058746E0,3.671746744E0
8.376609875E0,-1.374142456E-1,1.709744568E0,3.345243530E0,3.759356785E0
8.386688875E0,2.511776733E-1,2.037712555E0,2.841091919E0,3.505305404E0
8.396767875E0,4.854405212E-1,2.295177155E0,1.741029510E0,2.921416510E0
8.406845875E0,6.661148071E-1,2.594704285E0,7.192543030E-1,2.773720608E0
8.416924875E0,9.868977356E-1,2.792892151E0,-9.325607300E-2,2.963597544E0
8.427003875E0,9.849517822E-1,2.682571564E0,-1.393003235E0,3.179115949E0
8.437081875E0,-3.439098358E0,3.623664551E0,-2.937536362E1,2.979715305E1
8.447160875E0,-1.601878876E1,1.348096619E0,-6.505112549E1,6.700796882E1
8.457238875E0,-1.278147079E1,-1.761237488E0,-3.459500931E1,3.692265730E1
8.467317875E0,-1.240650055E1,-2.652035065E0,-2.138932068E1,2.486880747E1
8.477396875E0,-1.048898804E1,-3.772455139E0,1.053209839E0,1.119640741E1
8.487474875E0,-7.411687317E0,-5.289849701E0,2.094833771E1,2.284181410E1
8.497553875E0,-5.007536774E0,-7.423213348E0,1.807685898E1,2.017306004E1
8.507631875E0,9.879455566E-2,-9.181007996E0,1.423464890E1,1.693888713E1
8.517710875E0,-7.393125916E-1,-1.360490845E1,9.590556335E0,1.666189929E1
8.527789875E0,-6.233487396E0,-3.083812180E1,-3.682641907E0,3.167661555E1
8.537867875E0,-5.395380249E0,-5.750187424E1,-5.001175003E1,7.639863094E1
8.547946875E0,-3.528612213E0,-6.035374374E1,3.363954620E0,6.055032352E1
8.558025875E0,-9.804760895E0,-5.253355591E1,1.262190262E1,5.491102128E1
8.568103875E0,-1.373962830E1,-3.698029907E1,-8.226592712E0,4.029884282E1
8.578182875E0,-7.221133575E0,-2.367686371E1,-6.794371033E0,2.566908886E1
8.588260875E0,-2.939587097E0,-1.660242508E1,-1.447340240E0,1.692266186E1
8.598339875E0,-1.016087036E0,-1.188917633E1,-1.758543091E0,1.206140209E1
8.608418875E0,2.647993469E-1,-6.183641052E0,-8.734935608E0,1.070544887E1
8.618496875E0,-3.944597168E0,-2.081870728E0,-1.917347855E1,1.968543401E1
8.628575875E0,-9.936486969E0,-5.196893005E0,-7.910150757E0,1.372268032E1
8.638653875E0,-1.104403381E1,-1.028136978E1,4.868326263E0,1.585489981E1
8.648732875E0,-1.051533325E1,-1.062700104E1,-1.410666504E0,1.501650307E1
8.658811875E0,-9.772128754E0,-1.066187851E1,-8.978928223E0,1.702325779E1
8.668889875E0,-7.725434875E0,-1.136706207E1,-6.424340515E0,1.517117646E1
8.678968875E0,-6.157894592E0,-1.194725555E1,-2.934048615E0,1.375736975E1
8.689046875E0,-4.696483612E0,-1.234887039E1,-3.228636017E0,1.360057531E1
8.699125875E0,-3.354673920E0,-1.230216751E1,-4.795427856E0,1.362326286E1
8.709204875E0,-2.466121674E0,-1.201192108E1,-5.309309235E0,1.336251356E1
8.719282875E0,-2.227218475E0,-1.159488831E1,-4.568948822E0,1.266006439E1
8.729361875E0,-2.412682800E0,-1.111229187E1,-3.889062653E0,1.201785660E1
8.739440875E0,-2.439626770E0,-1.040321640E1,-3.716920624E0,1.131345169E1
8.749518875E0,-2.218835907E0,-9.633217621E0,-3.538641357E0,1.049971891E1
8.759597875E0,-2.157762909E0,-8.987161102E0,-3.075205078E0,9.740733634E0
8.769675875E0,-2.177671509E0,-8.437204742E0,-2.660717010E0,9.110877679E0
8.779754875E0,-2.248025208E0,-7.886200562E0,-2.608026581E0,8.605090312E0
8.789833875E0,-2.340981903E0,-7.226222992E0,-2.747087402E0,8.077436734E0
8.799911875E0,-2.569855957E0,-6.631958771E0,-3.092419281E0,7.755649153E0
8.809990875E0,-2.878813477E0,-6.203699341E0,-3.557352448E0,7.708969385E0
8.820068875E0,-3.345243530E0,-5.895041199E0,-3.874093781E0,7.807097260E0
8.830147875E0,-3.811673584E0,-5.557493134E0,-4.090843048E0,7.883500636E0
8.840226875E0,-4.246219940E0,-5.067561951E0,-4.382885742E0,7.932228901E0
8.850304875E0,-4.659809875E0,-4.439468079E0,-4.643643494E0,7.936380144E0
8.860383875E0,-5.104385376E0,-3.716172180E0,-4.923711090E0,8.006723215E0
8.870462875E0,-5.562732239E0,-3.013084259E0,-5.161566467E0,8.164829154E0
8.880540875E0,-5.921835480E0,-2.417023773E0,-5.395380249E0,8.367811387E0
8.890619875E0,-6.181246033E0,-1.885628815E0,-5.660928040E0,8.591245824E0
8.900697875E0,-6.281537476E0,-1.551673279E0,-5.843847656E0,8.718713119E0
8.910776875E0,-6.331383820E0,-1.464853821E0,-6.072572021E0,8.894287422E0
8.920855875E0,-6.539600830E0,-1.620530090E0,-6.507417755E0,9.366908915E0
8.930933875E0,-6.884932709E0,-1.856140137E0,-7.266938324E0,1.018115648E1
8.941012875E0,-7.172784119E0,-1.966760101E0,-7.758815460E0,1.074784605E1
8.951090875E0,-7.232060852E0,-1.894759827E0,-8.021369476E0,1.096518068E1
8.961169875E0,-7.161407776E0,-1.592687988E0,-8.687933350E0,1.137113021E1
8.971248875E0,-7.154222717E0,-1.037043457E0,-9.924212494E0,1.227796219E1
8.981326875E0,-7.174131317E0,-4.308041382E-1,-1.061652283E1,1.282046447E1
8.991405875E0,-6.855444031E0,-1.434017944E-1,-7.873626709E0,1.044086560E1
9.001483875E0,-5.573210449E0,-2.670446777E-1,-3.369642792E0,6.518165395E0
9.011562875E0,-4.475543060E0,-1.157542877E0,-6.128256226E-1,4.663254919E0
9.021641875E0,-4.032614136E0,-1.937870178E0,9.918374634E-1,4.582691256E0
9.031719875E0,-3.980223083E0,-2.288291473E0,-2.166444855E0,5.076606836E0
9.041798875E0,-4.632865906E0,-3.485651550E0,-4.742737427E0,7.490445349E0
9.051877875E0,-6.253994751E0,-5.116659851E0,-3.666026459E0,8.873128443E0
9.061955875E0,-8.107290802E0,-7.669900360E0,-1.853445740E0,1.131330176E1
9.072034875E0,-1.032507889E1,-1.051233948E1,1.770667877E0,1.484088273E1
9.082112875E0,-1.198677338E1,-1.310839096E1,2.848276978E0,1.798958953E1
9.092191875E0,-1.313728088E1,-1.606189911E1,1.844314728E0,2.083204860E1
9.102270875E0,-1.528800842E1,-2.017474640E1,-2.320175171E0,2.541902450E1
9.112348875E0,-1.893607224E1,-2.571532471E1,-9.720935211E0,3.338187140E1
9.122427875E0,-2.210153961E1,-3.182846237E1,-1.343995148E1,4.101416055E1
9.132505875E0,-2.211261658E1,-3.523672485E1,-9.950258331E0,4.277384985E1
9.142584875E0,-1.935550003E1,-3.412109482E1,-5.265001373E0,3.958035791E1
9.152663875E0,-1.565160233E1,-2.991738647E1,-3.041974182E0,3.390097750E1
9.162741875E0,-1.163186142E1,-2.563823502E1,-3.045117645E0,2.831769829E1
9.172820875E0,-8.307723999E0,-2.259042297E1,-2.757565613E0,2.422704390E1
9.182898875E0,-6.810238037E0,-2.065389999E1,-3.658392334E-1,2.175078770E1
9.192977875E0,-6.252797241E0,-1.913680481E1,3.035238190E0,2.035994702E1
9.203056875E0,-5.953868866E0,-1.772524017E1,5.779780884E0,1.957137095E1
9.213134875E0,-5.093607788E0,-1.603660172E1,6.308331757E0,1.796976584E1
9.223213875E0,-3.572171631E0,-1.392673920E1,5.737418976E0,1.548006626E1
9.233292875E0,-2.250420227E0,-1.149399811E1,5.256618805E0,1.283777336E1
9.243370875E0,-1.429527283E0,-9.057814178E0,4.742138672E0,1.032353743E1
9.253449875E0,-6.990463257E-1,-6.637497253E0,4.414170685E0,8.001870931E0
9.263527875E0,8.562194824E-2,-4.389472046E0,4.123475189E0,6.023109130E0
9.273606875E0,7.403604126E-1,-2.496658173E0,3.489393768E0,4.353998673E0
9.283685875E0,1.327888641E0,-9.219328308E-1,2.759661255E0,3.198277447E0
9.293763875E0,1.808688812E0,-4.565505981E-2,2.598745880E0,3.166531186E0
9.303842875E0,2.041005707E0,5.412744141E-1,3.040626984E0,3.701904205E0
9.313920875E0,2.054477692E0,1.080303497E0,3.776496735E0,4.432816466E0
9.323999875E0,1.884880371E0,1.606010284E0,4.184099121E0,4.861967555E0
9.334078875E0,1.860032043E0,1.786534882E0,3.904330902E0,4.679233471E0
9.344156875E0,1.785786438E0,2.139800262E0,3.547323303E0,4.511239407E0
9.354235875E0,1.734443207E0,2.559527435E0,3.599414978E0,4.745024986E0
9.364313875E0,1.653910675E0,3.011886749E0,3.964206390E0,5.246123771E0
9.374392875E0,1.637893982E0,3.393892365E0,4.471202087E0,5.847465279E0
9.384471875E0,1.583556976E0,3.864364014E0,4.941374359E0,6.469786896E0
9.394549875E0,1.262624359E0,4.353995819E0,5.073549500E0,6.803852173E0
9.404628875E0,7.677534485E-1,4.608616333E0,5.033732300E0,6.867841781E0
9.414707875E0,3.474275208E-1,4.553680573E0,5.332660675E0,7.020967349E0
9.424785875E0,2.115101624E-1,4.339625702E0,5.450166321E0,6.970035919E0
9.434864875E0,-2.441423035E-1,4.290527802E0,4.888085175E0,6.508579795E0
9.444942875E0,-1.104702759E0,4.102518768E0,4.096381531E0,5.901810745E0
9.455021875E0,-1.897903290E0,3.500620422E0,3.162772980E0,5.085224986E0
9.465100875E0,-2.051783295E0,2.634820862E0,1.947150879E0,3.865681338E0
9.475178875E0,-2.635120239E0,1.627116394E0,-3.985911255E0,5.047658365E0
9.485257875E0,-4.031716003E0,3.570075989E-1,-1.060409866E1,1.135029061E1
9.495335875E0,-1.823208618E0,1.865121460E-1,-3.156785431E0,3.650228856E0
9.505414875E0,-1.041234741E0,-2.754272461E-1,7.213499451E-1,1.296293060E0
9.515493875E0,-1.323847046E0,-1.621128845E0,1.962419128E-1,2.102175212E0
9.525571875E0,-1.729802856E0,-3.564986572E0,5.520520020E-1,4.000763502E0
9.535650875E0,-3.061733093E0,-6.975644073E0,9.512718201E-1,7.677156886E0
9.545728875E0,-4.825365601E0,-1.208032883E1,2.759062500E0,1.329777890E1
9.555807875E0,-6.134842529E0,-1.994527359E1,5.104984131E0,2.148280928E1
9.565886875E0,-6.705006866E0,-2.963387604E1,7.312743073E0,3.125059899E1
9.575964875E0,-6.331084442E0,-3.701323059E1,1.148561554E1,3.926806888E1
9.586043875E0,-6.344556427E0,-4.219934601E1,1.371522903E1,4.482349504E1
9.596122875E0,-7.499704285E0,-4.482832901E1,1.353680008E1,4.742435664E1
9.606200875E0,-8.776698761E0,-4.099689651E1,1.092563004E1,4.332603555E1
9.616279875E0,-5.110821991E0,-3.125680115E1,8.452922058E-1,3.168316017E1
9.626357875E0,8.146808624E0,-2.014076706E1,-4.271637085E1,4.792399532E1
9.636436875E0,1.009859985E1,-1.489776993E1,-2.887600204E1,3.402570737E1
9.646515875E0,3.651057587E0,-1.675435913E1,1.169128784E1,2.075391488E1
9.656593875E0,2.879412231E0,-1.689865906E1,1.134939880E1,2.055880702E1
9.666672875E0,1.694775696E0,-1.570114929E1,5.824238434E0,1.683211535E1
9.676750875E0,1.866618347E0,-1.386372025E1,2.628533936E0,1.423362897E1
9.686829875E0,1.694326630E0,-1.094149704E1,-3.785627747E0,1.170119984E1
9.696908875E0,1.309925995E0,-8.600964203E0,-7.703131256E0,1.162027205E1
9.706986875E0,2.007176056E0,-8.179440765E0,-3.061433716E0,8.961271302E0
9.717065875E0,2.599194946E0,-9.012159119E0,7.427554321E-1,9.408852851E0
9.727143875E0,2.772983551E0,-9.632768555E0,1.785936127E0,1.018180906E1
9.737222875E0,3.577261047E0,-9.531578979E0,1.078058167E0,1.023767571E1
9.747301875E0,5.034031677E0,-8.778944092E0,-2.060764618E0,1.032754013E1
9.757379875E0,5.861959991E0,-7.665110321E0,-5.047952728E0,1.089028548E1
9.767458875E0,5.169799347E0,-6.815177765E0,-4.576582947E0,9.701473327E0
9.777536875E0,4.008813629E0,-6.114784241E0,-2.294578400E0,7.663306274E0
9.787615875E0,2.986439667E0,-5.551954651E0,-4.309538269E-1,6.318919491E0
9.797694875E0,2.027384033E0,-5.152585144E0,1.588197327E-1,5.539372112E0
9.807772875E0,1.015787659E0,-4.880001984E0,-4.580474854E-2,4.984811130E0
9.817852000E0,1.185534668E-1,-4.841382294E0,-7.780819702E-1,4.904941283E0
9.827931000E0,-3.929328918E-1,-5.558091888E0,-1.394200745E0,5.743742457E0
9.838009000E0,2.369572449E-1,-7.061266022E0,-1.184337158E0,7.163817493E0
9.848088000E0,9.053173828E-1,-8.561296692E0,-7.653584290E-1,8.642984099E0
9.858166000E0,1.154100037E0,-1.001806732E1,-8.640032959E-1,1.012127074E1
9.868245000E0,1.128503265E0,-1.118803436E1,-1.117875366E0,1.130023353E1
9.878324000E0,1.064436493E0,-1.181612823E1,-5.432203674E-1,1.187640517E1
9.888402000E0,9.464817810E-1,-1.191043213E1,5.298980713E-2,1.194809730E1
9.898481000E0,6.807843018E-1,-1.155596924E1,-2.655477905E-1,1.157905039E1
9.908559000E0,5.736071777E-1,-1.078327606E1,-8.271798706E-1,1.083015671E1
9.918638000E0,6.137237549E-1,-1.020547760E1,-9.348060608E-1,1.026656185E1
9.928717000E0,5.348377991E-1,-9.818831635E0,-8.680448914E-1,9.871626415E0
9.938795000E0,2.956352234E-1,-9.506880341E0,-9.972262573E-1,9.563609894E0
9.948874000E0,-4.610412598E-2,-9.265731812E0,-1.519340515E0,9.389585038E0
9.958952000E0,3.004252625E-1,-8.224347382E0,-2.062860260E0,8.484429129E0
9.969031000E0,6.086343384E-1,-7.427554321E0,-2.539618835E0,7.873287927E0
9.979110000E0,1.597178650E-1,-7.214996338E0,-3.210823059E0,7.898801597E0
9.989188000E0,-5.771997070E-1,-6.982080688E0,-3.832330627E0,7.985572508E0