"Time (s)","Acceleration x (m/s^2)","Acceleration y (m/s^2)","Acceleration z (m/s^2)","Absolute acceleration (m/s^2)"
-1.125749999E-3,4.475243683E0,-6.437513123E0,1.364263000E0,7.958052196E0
8.882250000E-3,4.432283020E0,-6.449937286E0,1.140178986E0,7.908655504E0
1.889025000E-2,4.337230682E0,-6.500532074E0,9.632469177E-1,7.873774944E0
2.889825000E-2,4.319118347E0,-6.609804840E0,8.219407654E-1,7.938506783E0
3.890625000E-2,4.337080994E0,-6.770121460E0,6.804849243E-1,8.068945152E0
4.891425000E-2,4.495900726E0,-6.897057495E0,5.692662048E-1,8.252671655E0
5.892225000E-2,4.723427582E0,-6.881489868E0,6.002517700E-1,8.368152312E0
6.892925000E-2,4.907694397E0,-6.947203217E0,8.370593262E-1,8.546915534E0
7.893725000E-2,5.047054596E0,-6.973997498E0,1.092428284E0,8.677718637E0
8.894525000E-2,5.085823975E0,-6.950646057E0,1.189127197E0,8.694314786E0
9.895325000E-2,5.126239929E0,-6.884633331E0,1.207538910E0,8.668025273E0
1.089612500E-1,5.210514679E0,-6.820117493E0,1.042881317E0,8.645869955E0
1.189692500E-1,5.301076355E0,-6.832841034E0,7.306306458E-1,8.678879436E0
1.289772500E-1,5.411995697E0,-6.804100800E0,4.507127380E-1,8.705666378E0
1.389852500E-1,5.575605469E0,-6.875202942E0,2.817141724E-1,8.856362386E0
1.489932500E-1,5.744903412E0,-6.881938934E0,1.868115234E-1,8.966598979E0
1.590012500E-1,5.902226257E0,-6.925049286E0,1.266366577E-1,9.099924134E0
1.690092500E-1,5.960604858E0,-6.978488159E0,9.445358276E-2,9.178073259E0
1.790172500E-1,6.102210388E0,-7.036567383E0,1.559756470E-1,9.315287465E0
1.890252500E-1,6.294859772E0,-7.210056610E0,2.568658447E-1,9.574766625E0
1.990332500E-1,6.479276276E0,-7.435038757E0,3.442840576E-1,9.868097785E0
2.090412500E-1,6.720574493E0,-7.623197479E0,4.252656555E-1,1.017153441E1
2.190492500E-1,7.112609253E0,-7.869884491E0,4.652325439E-1,1.061794394E1
2.290572500E-1,7.607180786E0,-8.158484344E0,4.436773682E-1,1.116364259E1
2.390652500E-1,8.040230255E0,-8.403375092E0,3.468287659E-1,1.163539022E1
2.490732500E-1,8.369994507E0,-8.511300659E0,2.333647156E-1,1.193957730E1
2.590812500E-1,8.610693970E0,-8.498876495E0,1.326242065E-1,1.209927855E1
2.690892500E-1,8.754544830E0,-8.380622406E0,1.377136230E-2,1.211928532E1
2.790972500E-1,8.822054443E0,-8.227341156E0,-6.466552734E-2,1.206324868E1
2.891052500E-1,8.887618103E0,-8.137677612E0,-1.366658020E-1,1.205115057E1
2.991132500E-1,9.031618652E0,-8.166268158E0,-1.923500061E-1,1.217764631E1
3.091212500E-1,9.310788116E0,-8.419541473E0,-1.531315613E-1,1.255399949E1
3.191292500E-1,9.788744202E0,-8.838370514E0,-6.481521606E-2,1.318865070E1
3.291372500E-1,1.040920395E1,-9.321565704E0,-4.355941772E-2,1.397301011E1
3.391452500E-1,1.096978821E1,-9.828860779E0,-9.864486694E-2,1.472930712E1
3.491532500E-1,1.120315292E1,-1.018197647E1,-2.091151428E-1,1.514024470E1
3.591612500E-1,1.094404175E1,-9.993668060E0,-3.534150696E-1,1.482465356E1
3.691692500E-1,1.021640488E1,-9.307494965E0,-6.568341064E-1,1.383603347E1
3.791772500E-1,9.264833679E0,-8.372389526E0,-8.598120117E-1,1.251692159E1
3.891852500E-1,8.366701355E0,-7.725584564E0,-9.276210022E-1,1.142570913E1
3.991932500E-1,7.712262268E0,-7.288044434E0,-9.642947388E-1,1.065478509E1
4.092012500E-1,7.232509918E0,-7.142397308E0,-7.746391296E-1,1.019426823E1
4.192092500E-1,6.851851501E0,-7.031777344E0,-5.270539856E-1,9.832169014E0
4.292172500E-1,6.529871063E0,-6.941515045E0,-2.748284912E-1,9.534116526E0
4.392252500E-1,6.173611908E0,-7.049141235E0,-1.944456482E-1,9.372389517E0
4.492332500E-1,5.789061584E0,-7.038513336E0,-2.495310974E-1,9.116806995E0
4.592412500E-1,5.418731689E0,-7.084018707E0,-2.387535095E-1,8.922050067E0
4.692492500E-1,5.129233704E0,-7.268584900E0,-1.353186035E-1,8.897172357E0
4.792572500E-1,4.845573578E0,-7.472161560E0,-3.712280273E-2,8.905849751E0
4.892652500E-1,4.529131622E0,-7.673193512E0,5.882766724E-2,8.910353114E0
4.992732500E-1,4.241280212E0,-7.986941071E0,2.989283752E-1,9.048151396E0
5.092812500E-1,3.893852692E0,-8.017477570E0,5.528004456E-1,8.930152501E0
5.192892500E-1,3.167563019E0,-6.611002350E0,2.968327332E-1,7.336682985E0
5.292972500E-1,3.015928345E0,-7.110214233E0,8.870553589E-1,7.774177605E0
5.393052500E-1,3.230282593E0,-7.964936829E0,1.371298370E0,8.703758012E0
5.493122500E-1,3.439547424E0,-8.470285950E0,1.503323822E0,9.264783487E0
5.593202500E-1,3.511847076E0,-8.741072845E0,1.472787323E0,9.534596314E0
5.693282500E-1,3.707789612E0,-9.316476288E0,1.170715485E0,1.009529638E1
5.793362500E-1,3.845203857E0,-9.553134155E0,7.777825928E-1,1.032728961E1
5.893442500E-1,3.886817322E0,-9.516011353E0,3.839515686E-1,1.028636183E1
5.993522500E-1,3.895349579E0,-9.125024414E0,-1.561253357E-1,9.922912577E0
6.093602500E-1,4.101021881E0,-8.203989716E0,-5.586383057E-1,9.188901157E0
6.193682500E-1,4.200265503E0,-7.119644623E0,-5.438191223E-1,8.284160132E0
6.293762500E-1,4.089944916E0,-6.257287903E0,-3.239263916E-1,7.482394645E0
6.393842500E-1,3.790567474E0,-5.595364380E0,-1.404080200E-1,6.759897835E0
6.493919167E-1,3.644620972E0,-5.329367523E0,-1.465452576E-1,6.458087622E0
6.593999167E-1,3.613186340E0,-5.503006439E0,-3.965254211E-1,6.595106353E0
6.694079167E-1,3.708238678E0,-5.840255127E0,-7.726931763E-1,6.961082444E0
6.794159167E-1,3.913910980E0,-5.784720612E0,-1.264121246E0,7.097865471E0
6.894239167E-1,4.113745422E0,-5.558690643E0,-1.590592346E0,7.095909179E0
6.994319167E-1,4.293521576E0,-5.637127533E0,-1.629960480E0,7.271059449E0
7.094399167E-1,4.569697266E0,-5.826483765E0,-1.437460785E0,7.542966238E0
7.194479167E-1,4.919968872E0,-6.009253693E0,-1.000669098E0,7.830616980E0
7.294559167E-1,5.307063904E0,-6.170169067E0,-3.242257690E-1,8.145000672E0
7.394639167E-1,5.847739563E0,-6.283932495E0,2.517764282E-1,8.587622312E0
7.494719167E-1,6.466253357E0,-6.366111603E0,7.105723572E-1,9.101907629E0
7.594799167E-1,6.967560883E0,-6.369554443E0,1.143322449E0,9.509222612E0
7.694879167E-1,7.316185913E0,-6.385271759E0,1.719324646E0,9.861761962E0
7.794959167E-1,7.598648529E0,-6.518943787E0,2.243235168E0,1.026002883E1
7.895039167E-1,7.669750671E0,-6.624474335E0,2.038760376E0,1.033756642E1
7.995119167E-1,7.767796783E0,-6.619684296E0,1.496737518E0,1.031499444E1
8.095199167E-1,8.059240723E0,-6.535708923E0,9.871971130E-1,1.042311903E1
8.195279167E-1,8.451275482E0,-6.407126312E0,5.363346863E-1,1.061899147E1
8.295359167E-1,8.937763824E0,-6.231990509E0,2.047741699E-1,1.089785577E1
8.395439167E-1,9.443262634E0,-6.059399414E0,-1.263372803E-1,1.122085075E1
8.495519167E-1,1.002210892E1,-5.895789642E0,-4.228706360E-1,1.163536945E1
8.595599167E-1,1.063613205E1,-5.509443054E0,-7.072792053E-1,1.199922963E1
8.695679167E-1,1.130958160E1,-5.112318878E0,-1.070124664E0,1.245743180E1
8.795759167E-1,1.167347488E1,-4.798122253E0,-1.594484253E0,1.272141396E1
8.895839167E-1,1.161120438E1,-4.926555176E0,-2.237247620E0,1.281000741E1
8.995919167E-1,1.180460220E1,-5.425018616E0,-2.780767365E0,1.328578666E1
9.095999167E-1,1.281006134E1,-6.101312256E0,-3.577710114E0,1.463296595E1
9.196079167E-1,1.380264725E1,-7.307803345E0,-4.106710052E0,1.614875005E1
9.296159167E-1,1.397149612E1,-9.288035431E0,-4.407135315E0,1.734627187E1
9.396239167E-1,1.350267105E1,-1.075648178E1,-4.018842773E0,1.772498584E1
9.496319167E-1,1.223405914E1,-1.049093399E1,-2.539020081E0,1.631497846E1
9.596399167E-1,1.088296875E1,-9.199569397E0,-1.294957123E0,1.430901813E1
9.696479167E-1,9.864636383E0,-8.098159790E0,-9.039701843E-1,1.279485854E1
9.796559167E-1,9.080417175E0,-7.526648254E0,-8.376580811E-1,1.182396216E1
9.896639167E-1,8.383017426E0,-7.230863342E0,-9.686357117E-1,1.111299334E1
9.996719167E-1,7.599247284E0,-6.753206635E0,-8.131091309E-1,1.019879922E1
1.009678917E0,6.830595703E0,-6.280639343E0,-3.038681030E-1,9.284169540E0
1.019686917E0,6.320306854E0,-5.950725403E0,2.850073242E-1,8.685542051E0
1.029694917E0,5.967789917E0,-5.868695984E0,7.182064819E-1,8.400710065E0
1.039702917E0,5.638923798E0,-6.030958557E0,9.725276184E-1,8.313587233E0
1.049710917E0,5.302722931E0,-6.407276001E0,1.180594940E0,8.400348841E0
1.059718917E0,5.052892456E0,-6.925797729E0,1.354982300E0,8.679537626E0
1.069726917E0,4.769082642E0,-7.471113739E0,1.470242615E0,8.984614799E0
1.079734917E0,4.476740570E0,-8.037236481E0,1.630858612E0,9.343343951E0
1.089742917E0,4.162244568E0,-8.479117584E0,1.893712006E0,9.633579813E0
1.099750917E0,3.805236969E0,-8.726103973E0,2.255958710E0,9.783356717E0
1.109758917E0,3.460653534E0,-8.735684052E0,2.490670624E0,9.720686132E0
1.119766917E0,3.221301270E0,-8.557404785E0,2.461331635E0,9.469113577E0
1.129774917E0,3.153941345E0,-8.301736450E0,2.234553223E0,9.157477939E0
1.139782917E0,3.222199402E0,-8.051606598E0,1.857038269E0,8.869020742E0
1.149790917E0,3.290307770E0,-7.827372894E0,1.224603424E0,8.578668031E0
1.159798917E0,3.513643341E0,-7.443720703E0,7.283853149E-1,8.263486710E0
1.169806917E0,3.924838257E0,-7.156018982E0,5.881269836E-1,8.182839138E0
1.179814917E0,4.172124023E0,-7.032825165E0,3.379971313E-1,8.184222060E0
1.189822917E0,4.495601349E0,-6.879693604E0,2.239343262E-1,8.221360115E0
1.199830917E0,4.786446533E0,-6.669830017E0,4.421804810E-1,8.221449170E0
1.209838917E0,5.063071289E0,-6.529122620E0,7.417076111E-1,8.295436290E0
1.219846917E0,5.359754333E0,-6.450086975E0,8.931925964E-1,8.433764374E0
1.229854917E0,5.665418701E0,-6.519692230E0,9.241781616E-1,8.686625416E0
1.239862917E0,5.859714661E0,-6.840774536E0,8.098159790E-1,9.043685868E0
1.249870917E0,6.024821320E0,-7.112160187E0,7.569758606E-1,9.351700750E0
1.259878917E0,6.275549927E0,-7.235204315E0,7.432044983E-1,9.606407304E0
1.269886917E0,6.422693939E0,-7.320826263E0,7.529342651E-1,9.767927345E0
1.279894917E0,6.457721100E0,-7.288343811E0,7.294331360E-1,9.764947005E0
1.289902917E0,6.444548492E0,-7.134314117E0,6.506968689E-1,9.636080615E0
1.299910917E0,6.432723083E0,-6.937922516E0,5.815406799E-1,9.479076151E0
1.309918917E0,6.476731567E0,-6.799610138E0,4.463717651E-1,9.401170011E0
1.319926917E0,6.462211761E0,-6.647227020E0,3.062631226E-1,9.275753609E0
1.329934917E0,6.568640442E0,-6.557264099E0,1.287322998E-1,9.282312305E0
1.339942917E0,6.623276825E0,-6.491251373E0,4.939727783E-2,9.273973279E0
1.349950917E0,6.769073639E0,-6.492299194E0,4.370910645E-2,9.379350577E0
1.359958917E0,7.155420227E0,-6.688840485E0,4.909790039E-2,9.795051621E0
1.369966917E0,7.396419067E0,-6.912774811E0,1.586700439E-2,1.012391833E1
1.379974917E0,7.662116547E0,-7.156767426E0,-6.301895142E-2,1.048481384E1
1.389982917E0,7.984546051E0,-7.421267395E0,-9.505233765E-2,1.090124857E1
1.399990917E0,8.259224854E0,-7.616910553E0,-1.336720276E-1,1.123610207E1
1.409998917E0,8.513995056E0,-7.701634369E0,-1.736389160E-1,1.148187416E1
1.420006917E0,8.723858643E0,-7.689808960E0,-2.815644836E-1,1.163263298E1
1.430014917E0,8.800499268E0,-7.592810669E0,-3.131488037E-1,1.162745129E1
1.440022917E0,8.685089264E0,-7.439679108E0,-3.797602844E-1,1.144219466E1
1.450030917E0,8.593479767E0,-7.317084045E0,-4.788542175E-1,1.129676568E1
1.460038917E0,8.676557007E0,-7.295079803E0,-5.276527405E-1,1.134809448E1
1.470046917E0,8.977730713E0,-7.511529694E0,-6.962022400E-1,1.172635598E1
1.480053917E0,9.563163300E0,-7.991581421E0,-9.122030640E-1,1.249606259E1
1.490061917E0,1.043450134E1,-8.535999298E0,-1.218466187E0,1.353612803E1
1.500069917E0,1.134894974E1,-8.999585266E0,-1.482068024E0,1.455979810E1
1.510077917E0,1.198871933E1,-9.314680023E0,-1.634151764E0,1.526967934E1
1.520085917E0,1.202733902E1,-9.377399597E0,-1.548679504E0,1.532941340E1
1.530093917E0,1.106573868E1,-8.885522461E0,-1.299896851E0,1.425106360E1
1.540101917E0,9.695188751E0,-8.039182434E0,-1.002914429E0,1.263451528E1
1.550109917E0,8.607550507E0,-7.587122498E0,-6.054908752E-1,1.149003798E1
1.560117917E0,7.613318024E0,-7.245383148E0,-3.269201660E-1,1.051499240E1
1.570125917E0,6.718778229E0,-6.794221344E0,-1.296304321E-1,9.556161814E0
1.580133917E0,6.134692841E0,-6.596931610E0,-1.071771240E-1,9.009186970E0
1.590141917E0,5.907465363E0,-6.434968414E0,-2.573149109E-1,8.739174816E0
1.600149917E0,5.758076019E0,-6.581363983E0,-3.532653809E-1,8.751833394E0
1.610157917E0,5.621709595E0,-6.820716248E0,-3.004252625E-1,8.843983505E0
1.620165917E0,5.522166595E0,-7.105723572E0,-1.570234680E-1,9.000571524E0
1.630173917E0,5.324727173E0,-7.492818604E0,1.453477478E-1,9.193267975E0
1.640181917E0,5.052593079E0,-7.922275543E0,5.010081482E-1,9.409684148E0
1.650190875E0,4.703668671E0,-8.196056213E0,7.237449646E-1,9.477533603E0
1.660198875E0,4.367018738E0,-8.585845642E0,9.300160217E-1,9.677423616E0
1.670206875E0,4.004772034E0,-8.935368805E0,1.206790466E0,9.865868332E0
1.680214875E0,3.739373932E0,-9.330846405E0,1.407972107E0,1.015036933E1
1.690222875E0,3.609893188E0,-9.676627350E0,1.531914368E0,1.044103478E1
1.700230875E0,3.630550232E0,-9.820178833E0,1.500479736E0,1.057677866E1
1.710238875E0,3.698359222E0,-9.823471985E0,1.372795258E0,1.058598269E1
1.720246875E0,3.693269806E0,-9.683363342E0,1.234632568E0,1.043705347E1
1.730254875E0,3.687282257E0,-9.341623993E0,1.032852173E0,1.009597805E1
1.740262875E0,3.561693420E0,-8.702902222E0,7.866142273E-1,9.436362066E0
1.750270875E0,3.310515747E0,-7.993826752E0,4.974156189E-1,8.666498886E0
1.760278875E0,3.096311188E0,-7.424710236E0,1.779798889E-1,8.046436596E0
1.770286875E0,3.119213562E0,-6.935527496E0,-1.709445190E-1,7.606592991E0
1.780294875E0,3.243604889E0,-6.594536591E0,-3.731739807E-1,7.358542270E0
1.790302875E0,3.382815399E0,-6.314918060E0,-5.616320801E-1,7.185893175E0
1.800310875E0,3.436254272E0,-6.073170776E0,-6.750961304E-1,7.010492243E0
1.810318875E0,3.460503845E0,-5.886059875E0,-6.430627441E-1,6.858156998E0
1.820326875E0,3.619323578E0,-5.846691742E0,-6.478527832E-1,6.906737342E0
1.830334875E0,3.798201599E0,-5.971831512E0,-6.424639893E-1,7.106466561E0
1.840342875E0,4.065246277E0,-6.079158325E0,-5.278024292E-1,7.332187166E0
1.850350875E0,4.563560028E0,-5.985153809E0,-2.300715637E-1,7.530011897E0
1.860358875E0,5.116510162E0,-5.584736481E0,8.921447754E-2,7.574689236E0
1.870366875E0,5.518424377E0,-5.108277283E0,3.372486877E-1,7.527366145E0
1.880374875E0,5.976621552E0,-4.940625916E0,6.403683472E-1,7.780736548E0
1.890382875E0,6.375392303E0,-5.267246704E0,1.066382446E0,8.338266390E0
1.900390875E0,6.640341339E0,-5.843847656E0,1.365011444E0,8.950304172E0
1.910398875E0,6.962022400E0,-6.202801208E0,1.382525024E0,9.426339383E0
1.920406875E0,7.295828247E0,-6.333928528E0,1.361119537E0,9.757069581E0
1.930414875E0,7.560328217E0,-6.365812225E0,1.367556152E0,9.977591787E0
1.940422875E0,7.798333282E0,-6.233038330E0,1.358425140E0,1.007522147E1
1.950430875E0,8.108338623E0,-6.087989960E0,1.338815918E0,1.022747305E1
1.960438875E0,8.439599762E0,-6.002817078E0,1.290616150E0,1.043677858E1
1.970446875E0,8.889863434E0,-5.929020538E0,1.228345642E0,1.075601178E1
1.980454875E0,9.535021820E0,-5.765859833E0,8.729846191E-1,1.117693531E1
1.990462875E0,1.030951126E1,-5.646108856E0,4.315525818E-1,1.176226191E1
2.000470875E0,1.123054596E1,-5.600603485E0,-4.849914551E-2,1.254967227E1
2.010478875E0,1.227731918E1,-5.261408844E0,-5.745053101E-1,1.336955668E1
2.020486875E0,1.325792999E1,-4.689148865E0,-1.366508331E0,1.412898332E1
2.030494875E0,1.426204193E1,-4.455185394E0,-3.559298401E0,1.535978913E1
2.040502875E0,1.510778320E1,-4.314477997E0,-7.205116882E0,1.728506705E1
2.050509875E0,1.576506638E1,-4.708309021E0,-9.952503662E0,1.922908788E1
2.060518875E0,1.558379333E1,-6.356980591E0,-9.740095367E0,1.944570067E1
2.070525875E0,1.423135574E1,-8.212072906E0,-5.896388397E0,1.745671859E1
2.080534875E0,1.298579590E1,-9.078171844E0,-1.835632782E0,1.595034943E1
2.090541875E0,1.193827423E1,-9.318721619E0,1.877096558E-1,1.514583108E1
2.100549875E0,1.113130234E1,-9.136700134E0,3.348536682E-1,1.440476685E1
2.110557875E0,1.017868332E1,-8.746910706E0,6.900650024E-2,1.342083466E1
2.120565875E0,9.153315582E0,-8.368198242E0,-1.243913269E-1,1.240263686E1
2.130573875E0,8.160430298E0,-8.240663452E0,-1.029858398E-1,1.159792063E1
2.140581875E0,7.010671234E0,-8.061336365E0,7.559280396E-2,1.068364963E1
2.150589875E0,5.923332367E0,-7.702532501E0,2.939886475E-1,9.721178045E0
2.160597875E0,5.120402069E0,-7.339687042E0,5.899232483E-1,8.968697378E0
2.170605875E0,4.434528351E0,-7.090455322E0,8.803193665E-1,8.409195001E0
2.180613875E0,3.864364014E0,-6.975494385E0,1.098266144E0,8.049659599E0
2.190621875E0,3.403921509E0,-6.838080139E0,1.360371094E0,7.758648796E0
2.200629875E0,3.148851929E0,-6.742728424E0,1.525926819E0,7.596585267E0
2.210637875E0,3.187321930E0,-6.676865387E0,1.560953979E0,7.561489920E0
2.220645875E0,3.354673920E0,-6.678661652E0,1.662442932E0,7.656505408E0
2.230653875E0,3.683839417E0,-6.684649200E0,1.730700989E0,7.826272018E0
2.240661875E0,4.109554138E0,-6.559808807E0,1.676064606E0,7.920146423E0
2.250669875E0,4.563709717E0,-6.491999817E0,1.579216003E0,8.091194670E0
2.260677875E0,5.004842377E0,-6.705755310E0,1.457369385E0,8.493499103E0
2.270685875E0,5.405110016E0,-6.995402985E0,1.490450592E0,8.965061080E0
2.280693875E0,5.685177612E0,-7.227719879E0,1.540147247E0,9.323799262E0
2.290701875E0,5.776188354E0,-7.394323425E0,1.609752502E0,9.520066909E0
2.300709875E0,5.824986877E0,-7.635322266E0,1.731748810E0,9.758461567E0
2.310717875E0,5.928870850E0,-7.815996552E0,1.789828033E0,9.972201163E0
2.320725875E0,5.975723419E0,-7.934699707E0,1.778751068E0,1.009121822E1
2.330733875E0,5.903423767E0,-8.031398621E0,1.629960480E0,1.010002709E1
2.340741875E0,5.929469604E0,-7.960146790E0,1.571132813E0,1.004942809E1
2.350749875E0,6.078559570E0,-7.786657562E0,1.582808533E0,1.000430934E1
2.360757875E0,6.177952881E0,-7.804171143E0,1.448088684E0,1.005828762E1
2.370765875E0,6.277346191E0,-7.735763397E0,1.318607941E0,1.004917098E1
2.380773875E0,6.323749695E0,-7.499853973E0,1.140628052E0,9.876165864E0
2.390781875E0,6.349945221E0,-7.369475098E0,1.005010071E0,9.779622322E0
2.400789875E0,6.423442383E0,-7.144792328E0,9.330097961E-1,9.652936172E0
2.410797875E0,6.553222504E0,-6.912774811E0,9.057664490E-1,9.568259697E0
2.420805875E0,6.564000092E0,-6.835984497E0,7.403604126E-1,9.506046223E0
2.430813875E0,6.557114410E0,-6.775061188E0,6.408174133E-1,9.450283088E0
2.440821875E0,6.435567169E0,-6.713688812E0,5.189707947E-1,9.314476525E0
2.450829875E0,6.299200745E0,-6.555318146E0,3.552113342E-1,9.098258136E0
2.460837875E0,6.138135681E0,-6.325246582E0,1.857637024E-1,8.815892588E0
2.470845875E0,5.935157776E0,-6.071823578E0,1.320254517E-1,8.491794281E0
2.480853875E0,5.745053101E0,-5.895041199E0,1.640588379E-1,8.233107625E0
2.490861875E0,5.598657532E0,-5.823190613E0,1.585203552E-1,8.079581906E0
2.500869875E0,5.508993988E0,-5.959706726E0,1.327738953E-1,8.116942031E0
2.510877875E0,5.467081146E0,-6.100114746E0,1.275347900E-1,8.192474675E0
2.520885875E0,5.480253754E0,-6.244564362E0,9.819580078E-2,8.308875236E0
2.530893875E0,5.556894379E0,-6.426436157E0,1.308279419E-1,8.496780141E0
2.540901875E0,5.612129517E0,-6.613397369E0,1.993853760E-1,8.675988532E0
2.550909875E0,5.670957184E0,-6.865622864E0,3.025209045E-1,8.909997283E0
2.560917875E0,5.860463104E0,-7.045548706E0,4.959187317E-1,9.177729553E0
2.570925875E0,6.141279144E0,-7.209008789E0,7.092251587E-1,9.496742472E0
2.580933875E0,6.565047913E0,-7.502099304E0,8.029302979E-1,1.000130217E1
2.590941875E0,7.111860809E0,-7.775580597E0,6.867718506E-1,1.055982355E1
2.600949875E0,7.481741638E0,-7.806416473E0,4.936734009E-1,1.082406160E1
2.610957875E0,7.797734528E0,-7.709867249E0,2.194436646E-1,1.096790191E1
2.620965875E0,8.106542358E0,-7.715705109E0,-5.014572144E-2,1.119154363E1
2.630973875E0,8.459957428E0,-7.851772156E0,-1.743873596E-1,1.154346640E1
2.640981875E0,9.090745697E0,-8.230334930E0,-1.056802368E-1,1.226341057E1
2.650988917E0,9.899813232E0,-8.834328918E0,2.200424194E-2,1.326846463E1
2.660996917E0,1.080333435E1,-9.540859680E0,8.502319336E-2,1.441344045E1
2.671004917E0,1.159264297E1,-1.018407211E1,2.351609802E-1,1.543243327E1
2.681012917E0,1.214005463E1,-1.059915894E1,4.323010254E-1,1.612172387E1
2.691020917E0,1.212149323E1,-1.059436890E1,4.299060059E-1,1.610453568E1
2.701028917E0,1.123578506E1,-9.907597046E0,1.267863464E-1,1.498063483E1
2.711036917E0,1.006686584E1,-8.558153229E0,-3.510200500E-1,1.321767717E1
2.721044917E0,9.063801727E0,-7.490722961E0,-6.207591248E-1,1.177492141E1
2.731052917E0,8.159831543E0,-6.897207184E0,-4.613406372E-1,1.069425794E1
2.741060917E0,7.481591949E0,-6.525979156E0,-7.125183105E-2,9.928126655E0
2.751068917E0,7.086413727E0,-6.320755920E0,1.023870850E-1,9.496299175E0
2.761076917E0,6.647975464E0,-6.158493347E0,1.179547119E-1,9.062920688E0
2.771084917E0,6.132148132E0,-6.013894043E0,4.670288086E-2,8.589082805E0
2.781092917E0,5.699098663E0,-5.936355286E0,-1.856140137E-2,8.229239587E0
2.791100917E0,5.382057953E0,-5.870342560E0,-5.224136353E-2,7.964307800E0
2.801108917E0,5.114414520E0,-5.952671356E0,-1.020877075E-1,7.848691232E0
2.811116917E0,4.980592804E0,-6.138884125E0,-1.043330383E-1,7.905889473E0
2.821124917E0,4.921465759E0,-6.466852112E0,-3.577560425E-2,8.126640225E0
2.831132917E0,4.905299377E0,-6.908583527E0,1.242416382E-1,8.473837638E0
2.841140917E0,4.913232880E0,-7.492070160E0,2.805166626E-1,8.963797310E0
2.851148917E0,4.872068481E0,-8.360863495E0,4.125421143E-1,9.685622368E0
2.861156917E0,4.589456177E0,-9.001231842E0,7.720944214E-1,1.013318373E1
2.871164917E0,4.133803711E0,-9.277108154E0,1.063837738E0,1.021199391E1
2.881172917E0,3.709885254E0,-9.384884033E0,1.060245209E0,1.014708908E1
2.891180917E0,3.540737000E0,-9.454788666E0,8.669970703E-1,1.013318958E1
2.901188917E0,3.676354980E0,-9.551936646E0,7.141648865E-1,1.025987871E1
2.911196917E0,3.866010590E0,-9.503287811E0,5.700146484E-1,1.027537998E1
2.921204917E0,4.104464722E0,-9.365723877E0,3.514691162E-1,1.023166384E1
2.931212917E0,4.209546204E0,-9.145831146E0,1.469943237E-1,1.006916650E1
2.941220917E0,4.143832855E0,-8.544082489E0,8.846603394E-2,9.496342588E0
2.951228917E0,4.270768890E0,-7.817942505E0,-5.284011841E-2,8.908562398E0
2.961235917E0,4.453239441E0,-7.227121124E0,-4.083508301E-1,8.498786482E0
2.971243917E0,4.470154266E0,-6.618935852E0,-5.890251160E-1,8.008716599E0
2.981251917E0,4.759352875E0,-6.230194244E0,-7.336244202E-1,7.874323139E0
2.991259917E0,5.164560242E0,-5.973927155E0,-8.749305725E-1,7.945186697E0
3.001267917E0,5.386249237E0,-5.926625519E0,-1.141825562E0,8.089520165E0
3.011275917E0,5.395080872E0,-6.096671906E0,-1.556014252E0,8.288394675E0
3.021283917E0,5.372028809E0,-6.256240082E0,-1.975891113E0,8.479586026E0
3.031291917E0,5.370232544E0,-6.110443268E0,-2.302960968E0,8.454616711E0
3.041299917E0,5.321583710E0,-5.796096954E0,-2.434986420E0,8.236695451E0
3.051307917E0,5.294340363E0,-5.438340912E0,-2.335742798E0,7.941113660E0
3.061315917E0,5.418582001E0,-5.234614563E0,-2.106868744E0,7.823114241E0
3.071323917E0,5.665418701E0,-5.249733124E0,-1.771865387E0,7.924403692E0
3.081331917E0,5.935457153E0,-5.553900604E0,-8.631051636E-1,8.174375454E0
3.091339917E0,6.315367126E0,-5.906716919E0,2.769241333E-1,8.651580993E0
3.101347917E0,6.740932159E0,-6.050268402E0,8.928932190E-1,9.101822478E0
3.111355917E0,7.205416260E0,-6.074817352E0,1.555265808E0,9.551977862E0
3.121363917E0,7.694449310E0,-6.058650970E0,1.946402435E0,9.985002965E0
3.131371917E0,7.915090485E0,-5.819598083E0,1.722168732E0,9.974078623E0
3.141379917E0,7.977959747E0,-5.608836365E0,1.111738129E0,9.815439306E0
3.151387917E0,8.089627533E0,-5.482798462E0,6.237528992E-1,9.792457315E0
3.161395917E0,8.269104309E0,-5.418432312E0,3.150947571E-1,9.891247621E0
3.171403917E0,8.663085022E0,-5.393583984E0,1.463955688E-1,1.020594052E1
3.181411917E0,9.258995819E0,-5.266797638E0,-2.454895020E-1,1.065497189E1
3.191419917E0,9.772727509E0,-5.131479034E0,-6.490502930E-1,1.105710388E1
3.201427917E0,9.988578644E0,-4.993615723E0,-1.027463379E0,1.121443633E1
3.211435917E0,1.005533981E1,-4.842879181E0,-1.345252533E0,1.124157649E1
3.221443917E0,1.017958145E1,-4.696633301E0,-1.553319855E0,1.131790818E1
3.231451917E0,1.034438873E1,-4.527035980E0,-1.825453949E0,1.143821293E1
3.241459917E0,1.052925430E1,-4.437073059E0,-2.153122559E0,1.162706972E1
3.251467917E0,1.091934311E1,-4.621040497E0,-2.667153625E0,1.215317973E1
3.261475917E0,1.153082153E1,-5.177134094E0,-3.300636292E0,1.306356623E1
3.271483917E0,1.206341400E1,-6.223907318E0,-3.933819580E0,1.413286652E1
3.281491917E0,1.224094482E1,-7.758216705E0,-4.425547028E0,1.515308956E1
3.291499917E0,1.203856567E1,-9.105265503E0,-4.649631042E0,1.579404927E1
3.301507917E0,1.151525391E1,-9.989925842E0,-4.190984802E0,1.581025125E1
3.311515917E0,1.080542999E1,-1.020233414E1,-2.631976776E0,1.509212513E1
3.321523917E0,9.973011017E0,-1.001746857E1,-8.764274597E-1,1.416258276E1
3.331531917E0,8.946296082E0,-9.389075317E0,2.667453003E-1,1.297158826E1
3.341539917E0,7.961943054E0,-8.681047668E0,6.427633667E-1,1.179687546E1
3.351547917E0,7.104226685E0,-8.265811157E0,5.563929749E-1,1.091344327E1
3.361555917E0,6.395899658E0,-7.880063324E0,3.391946411E-1,1.015470253E1
3.371563917E0,5.761668549E0,-7.682324524E0,8.831634521E-2,9.603266857E0
3.381571917E0,5.166057129E0,-7.552843781E0,-1.597178650E-1,9.152000067E0
3.391579917E0,4.678221588E0,-7.434440002E0,-2.869532776E-1,8.788571986E0
3.401587917E0,4.268373871E0,-7.400610352E0,-2.618055725E-1,8.547314855E0
3.411595917E0,3.941154327E0,-7.445516968E0,-8.652008057E-2,8.424719940E0
3.421603917E0,3.867357788E0,-7.595954132E0,1.853146362E-1,8.525803009E0
3.431611917E0,3.985312500E0,-7.886350250E0,6.159690857E-1,8.857576074E0
3.441619917E0,4.189637604E0,-8.149652710E0,1.101110229E0,9.229428275E0
3.451627917E0,4.584666138E0,-8.277636566E0,1.452579346E0,9.573317997E0
3.461635917E0,4.968767395E0,-8.315507812E0,1.601070557E0,9.818337259E0
3.471643917E0,5.253175964E0,-8.417894897E0,1.695823517E0,1.006641096E1
3.481651917E0,5.460345154E0,-8.479117584E0,1.711241455E0,1.022932801E1
3.491659917E0,5.683830414E0,-8.426576843E0,1.679956512E0,1.030220265E1
3.501667917E0,5.950575714E0,-8.280031586E0,1.551074524E0,1.031378236E1
3.511675917E0,6.236780548E0,-8.093070374E0,1.331930237E0,1.030384675E1
3.521683917E0,6.505471802E0,-7.932753754E0,1.129102020E0,1.032107634E1
3.531691917E0,6.766528931E0,-7.754474487E0,1.042581940E0,1.034431078E1
3.541699917E0,6.843319244E0,-7.593259735E0,9.803114319E-1,1.026886665E1
3.551707917E0,6.900051270E0,-7.329807587E0,9.705816650E-1,1.011329894E1
3.561715917E0,6.990014191E0,-7.192992096E0,8.301736450E-1,1.006422486E1
3.571723917E0,7.053182831E0,-6.997199249E0,7.762857056E-1,9.965480665E0
3.581731917E0,7.095993805E0,-6.800208893E0,6.721023560E-1,9.851278630E0
3.591739917E0,7.188651123E0,-6.608607330E0,5.908213806E-1,9.782610373E0
3.601747917E0,7.200775909E0,-6.616091766E0,4.763095093E-1,9.790337824E0
3.611755917E0,7.195985870E0,-6.645730133E0,3.854484558E-1,9.802882849E0
3.621763917E0,7.141050110E0,-6.672973480E0,2.332150269E-1,9.776377703E0
3.631771917E0,6.957681427E0,-6.716383209E0,1.070274353E-1,9.671121400E0
3.641779917E0,6.794071655E0,-6.775659943E0,4.834945679E-2,9.595379877E0
3.651788500E0,6.534960480E0,-6.841223602E0,5.912704468E-2,9.461054109E0
3.661796500E0,6.249953156E0,-6.818919983E0,1.239422607E-1,9.250672725E0
3.671804500E0,5.925727386E0,-6.691235504E0,1.941462708E-1,8.940054273E0
3.681812500E0,5.541476440E0,-6.774163055E0,3.029699707E-1,8.757227703E0
3.691820500E0,5.172793121E0,-6.936874695E0,4.751119995E-1,8.666242013E0
3.701828500E0,4.848267975E0,-7.055278473E0,6.026467896E-1,8.581715437E0
3.711836500E0,4.661456451E0,-7.253765717E0,7.497908020E-1,8.654968490E0
3.721844500E0,4.628674622E0,-7.468119965E0,8.937913513E-1,8.831551819E0
3.731852500E0,4.605622559E0,-7.677384796E0,9.545649719E-1,9.003620980E0
3.741860500E0,4.573888550E0,-7.819439392E0,9.027726746E-1,9.103795218E0
3.751868500E0,4.671036530E0,-7.914192352E0,7.759863281E-1,9.222536399E0
3.761876500E0,4.867577820E0,-7.912246399E0,6.298901367E-1,9.310946165E0
3.771884500E0,5.075794830E0,-7.892487488E0,4.984634399E-1,9.396995142E0
3.781892500E0,5.378166046E0,-7.794890442E0,4.249662781E-1,9.479745954E0
3.791900500E0,5.816753998E0,-7.667355652E0,3.502716064E-1,9.630454816E0
3.801908500E0,6.400390320E0,-7.501799927E0,2.583627319E-1,9.864519739E0
3.811916500E0,7.008425903E0,-7.309599609E0,2.448907471E-1,1.012957312E1
3.821924500E0,7.580236816E0,-7.153324585E0,3.472778320E-1,1.042835772E1
3.831932500E0,8.022117920E0,-7.181316376E0,4.746629333E-1,1.077733667E1
3.841940500E0,8.237519989E0,-7.344626770E0,5.833369446E-1,1.105172204E1
3.851948500E0,8.186176758E0,-7.446115723E0,6.867718506E-1,1.108737051E1
3.861956500E0,7.911797333E0,-7.341034241E0,7.415579224E-1,1.081837460E1
3.871964500E0,7.490273895E0,-7.105424194E0,7.551795959E-1,1.035188641E1
3.881972500E0,7.033274231E0,-6.965614929E0,8.235873413E-1,9.933027427E0
3.891980500E0,6.608307953E0,-6.936425629E0,9.970765686E-1,9.632128331E0
3.901988500E0,6.210435333E0,-6.945706329E0,1.167721710E0,9.390203269E0
3.911996500E0,5.848038940E0,-6.975494385E0,1.307530975E0,9.196016453E0
3.922004500E0,5.535488892E0,-6.956783295E0,1.394949188E0,8.999130753E0
3.932012500E0,5.270539856E0,-6.894812164E0,1.459914093E0,8.800475800E0
3.942020500E0,5.001399536E0,-6.828799438E0,1.493743744E0,8.595217825E0
3.952028500E0,4.671635284E0,-6.748865662E0,1.460063782E0,8.336854934E0
3.962036500E0,4.356839905E0,-6.645281067E0,1.462907867E0,8.079722386E0
3.972044500E0,4.132905579E0,-6.612499237E0,1.506766663E0,7.942065251E0
3.982052500E0,4.115541687E0,-6.783443756E0,1.556762695E0,8.085561369E0
3.992060500E0,4.324656830E0,-7.308252411E0,1.632954254E0,8.647528525E0
4.002068500E0,4.712350616E0,-8.099057922E0,1.712738342E0,9.525463778E0
4.012076500E0,5.216651917E0,-9.067394257E0,1.872905273E0,1.062727011E1
4.022084500E0,5.865702209E0,-1.028241760E1,2.207459564E0,1.204190400E1
4.032092500E0,6.529571686E0,-1.140164017E1,2.624492340E0,1.339853219E1
4.042100500E0,6.964267731E0,-1.207149719E1,3.075953522E0,1.427177493E1
4.052108500E0,7.074738007E0,-1.219573883E1,3.497327271E0,1.452650204E1
4.062116500E0,6.982380066E0,-1.180205750E1,3.737427979E0,1.421304191E1
4.072124500E0,6.921307068E0,-1.116588043E1,3.704346771E0,1.364930630E1
4.082132500E0,6.900799713E0,-1.058329193E1,3.339705048E0,1.306831032E1
4.092140500E0,6.795867920E0,-1.014560211E1,2.799628143E0,1.252816749E1
4.102148500E0,6.634653168E0,-9.688452759E0,2.262245636E0,1.195836506E1
4.112156500E0,6.469696198E0,-9.179960175E0,1.778152313E0,1.137059644E1
4.122164500E0,6.322402496E0,-8.842711487E0,1.513053589E0,1.097522897E1
4.132172500E0,6.151008911E0,-8.721313934E0,1.449735260E0,1.077023489E1
4.142180500E0,5.934858398E0,-8.600515137E0,1.433718567E0,1.054736715E1
4.152188500E0,5.731581116E0,-8.404123535E0,1.371897125E0,1.026461963E1
4.162196500E0,5.690416718E0,-8.160579987E0,1.322649536E0,1.003619997E1
4.172204500E0,5.784121857E0,-7.786507874E0,1.233435059E0,9.777889985E0
4.182212500E0,5.927523651E0,-7.352260895E0,9.666897583E-1,9.493459116E0
4.192220500E0,6.203399963E0,-7.050338745E0,6.765930176E-1,9.415265564E0
4.202228500E0,6.451583862E0,-6.903793488E0,3.586541748E-1,9.455894017E0
4.212236500E0,6.609355774E0,-6.753056946E0,7.484436035E-3,9.449201970E0
4.222244500E0,6.629414062E0,-6.552474060E0,-3.363505554E-1,9.327227821E0
4.232252500E0,6.544241180E0,-6.419849854E0,-6.307882690E-1,9.189094548E0
4.242260500E0,6.570137329E0,-6.211034088E0,-8.969348145E-1,9.085600752E0
4.252268500E0,6.709946594E0,-6.063291321E0,-1.148411865E0,9.116234681E0
4.262276500E0,6.983278198E0,-5.951623535E0,-1.376836853E0,9.278128950E0
4.272284500E0,7.220385132E0,-5.844745789E0,-1.472188568E0,9.405442784E0
4.282292500E0,7.331304474E0,-5.817203064E0,-1.503024445E0,9.478763593E0
4.292300500E0,7.415878601E0,-5.910010071E0,-1.431622925E0,9.590256444E0
4.302308500E0,7.469916229E0,-6.100264435E0,-1.356628876E0,9.739266736E0
4.312316500E0,7.453300781E0,-6.335575104E0,-1.312321014E0,9.869822231E0
4.322324500E0,7.400610352E0,-6.534511414E0,-1.196312256E0,9.944849723E0
4.332332500E0,7.385342102E0,-6.695726166E0,-1.030457153E0,1.002186953E1
4.342340500E0,7.415130157E0,-6.883735199E0,-8.207432556E-1,1.015103862E1
4.352348500E0,7.440577240E0,-7.093299408E0,-5.480104065E-1,1.029453261E1
4.362356500E0,7.433841248E0,-7.202721863E0,-2.884501648E-1,1.035492160E1
4.372364500E0,7.501201172E0,-7.286397858E0,-5.328918457E-2,1.045765043E1
4.382372500E0,7.509284363E0,-7.366780701E0,6.885681152E-2,1.051967446E1
4.392380500E0,7.395520935E0,-7.294181671E0,1.224453735E-1,1.038815715E1
4.402388500E0,7.253616028E0,-7.123386841E0,1.709445190E-1,1.016793035E1
4.412396500E0,7.060218201E0,-6.926695862E0,1.791773987E-1,9.892315257E0
4.422404500E0,6.810986481E0,-6.789281616E0,8.457412720E-2,9.617225925E0
4.432412500E0,6.611451416E0,-6.713688812E0,-9.295669556E-2,9.423032858E0
4.442420500E0,6.393654327E0,-6.673871613E0,-3.746708679E-1,9.249851686E0
4.452428500E0,6.130800934E0,-6.709647217E0,-6.728507996E-1,9.113660849E0
4.462436500E0,5.893544312E0,-6.769373016E0,-9.394464111E-1,9.024457610E0
4.472444500E0,5.712720337E0,-6.820117493E0,-1.185834045E0,8.975264823E0
4.482452500E0,5.595663757E0,-6.912026367E0,-1.407373352E0,9.003791487E0
4.492460500E0,5.500761108E0,-6.977889404E0,-1.580862579E0,9.024878936E0
4.502468500E0,5.386698303E0,-6.991810455E0,-1.724863129E0,8.993168789E0
4.512477500E0,5.345533905E0,-6.918762360E0,-1.927990723E0,8.953276135E0
4.522485500E0,5.334606628E0,-6.877148895E0,-2.148482208E0,8.964885978E0
4.532493500E0,5.297334137E0,-6.745572510E0,-2.020198975E0,8.811679825E0
4.542501500E0,5.369783478E0,-6.829847260E0,-2.463576965E0,9.030537063E0
4.552509500E0,5.524711304E0,-6.836583252E0,-2.899021454E0,9.255572967E0
4.562517500E0,5.678441620E0,-6.773713989E0,-3.172652435E0,9.391146038E0
4.572525500E0,5.774541779E0,-6.538403320E0,-2.925965424E0,9.200941495E0
4.582533500E0,6.004014587E0,-6.484964447E0,-2.692900085E0,9.238758895E0
4.592541500E0,6.310876465E0,-6.492748260E0,-2.696941681E0,9.447562445E0
4.602549500E0,6.445596313E0,-6.455326080E0,-2.416125641E0,9.436874999E0
4.612557500E0,6.609505463E0,-6.525081024E0,-2.151775360E0,9.533749631E0
4.622565500E0,6.718478851E0,-6.559808807E0,-1.996099091E0,9.599659434E0
4.632573500E0,6.693480835E0,-6.593638458E0,-1.942959595E0,9.594469542E0
4.642581500E0,6.674021301E0,-6.649322662E0,-1.969604187E0,9.624728196E0
4.652589500E0,6.769373016E0,-6.688690796E0,-2.108365631E0,9.747215050E0
4.662597500E0,6.872807922E0,-6.676715698E0,-2.293380890E0,9.852594438E0
4.672605500E0,6.995702362E0,-6.739884338E0,-2.502496033E0,1.003136974E1
4.682613500E0,7.101681976E0,-6.812782745E0,-2.662812653E0,1.019502167E1
4.692621500E0,7.316634979E0,-6.777306519E0,-2.854863281E0,1.037377826E1
4.702629500E0,7.598648529E0,-6.718927917E0,-3.120411072E0,1.061227672E1
4.712637500E0,7.966583405E0,-6.565796356E0,-3.452720032E0,1.088565150E1
4.722645500E0,8.155939636E0,-6.422244873E0,-3.573069763E0,1.097867971E1
4.732653500E0,8.060138855E0,-6.475234680E0,-3.356170807E0,1.087006831E1
4.742661500E0,7.785909119E0,-6.877448273E0,-2.790796509E0,1.075677557E1
4.752669500E0,7.351213074E0,-7.316784668E0,-2.130220184E0,1.058836671E1
4.762677500E0,6.922354889E0,-7.656428375E0,-1.837429047E0,1.048408499E1
4.772685500E0,6.458918610E0,-7.861202545E0,-1.811233521E0,1.033424898E1
4.782693500E0,6.077511749E0,-8.168064423E0,-1.797462158E0,1.033848614E1
4.792701500E0,6.034700775E0,-8.613088989E0,-1.788630524E0,1.066780739E1
4.802709500E0,6.470294952E0,-8.516689453E0,-1.926793213E0,1.086789989E1
4.812717500E0,7.115453339E0,-7.941884766E0,-2.317630463E0,1.091213182E1
4.822725500E0,7.445067902E0,-7.483986969E0,-2.869233398E0,1.093945142E1
4.832733500E0,7.451205139E0,-7.809410248E0,-3.349584503E0,1.130163983E1
4.842741500E0,7.404502258E0,-8.634793854E0,-3.053649902E0,1.177756750E1
4.852749500E0,7.367828522E0,-9.282496948E0,-2.227817230E0,1.205872366E1
4.862757500E0,7.388186188E0,-9.529034271E0,-1.346000977E0,1.213258043E1
4.872765500E0,7.353458405E0,-9.496551819E0,-5.712121582E-1,1.202431413E1
4.882773500E0,7.188202057E0,-9.251810760E0,6.825805664E-2,1.171626691E1
4.892781500E0,6.892716522E0,-8.827742615E0,4.978646851E-1,1.121099683E1
4.902789500E0,6.599775696E0,-8.295898590E0,7.819738770E-1,1.062969688E1
4.912797500E0,6.358776855E0,-7.763455811E0,9.601034546E-1,1.008102613E1
4.922805500E0,6.179749146E0,-7.408992920E0,1.038989410E0,9.703709321E0
4.932813500E0,6.092031555E0,-7.156018982E0,1.035995636E0,9.454879327E0
4.942821500E0,6.036646729E0,-7.004234619E0,9.334588623E-1,9.293640394E0
4.952829500E0,6.079158325E0,-6.918612671E0,6.897656250E-1,9.235753562E0
4.962837500E0,6.156397705E0,-6.862778778E0,4.348457336E-1,9.229737595E0
4.972845500E0,6.217770081E0,-6.844217377E0,2.915936279E-1,9.251432490E0
4.982853500E0,6.306685181E0,-6.804549866E0,2.701881409E-1,9.281658175E0
4.992861500E0,6.379583588E0,-6.753805389E0,3.294648743E-1,9.296317609E0
5.002869500E0,6.399791565E0,-6.585555267E0,4.483177185E-1,9.193903362E0
5.012877500E0,6.408473511E0,-6.393953705E0,5.950126648E-1,9.072222263E0
5.022885500E0,6.354735260E0,-6.208339691E0,6.968009949E-1,8.911322773E0
5.032893500E0,6.239025879E0,-6.037993927E0,7.134164429E-1,8.711588696E0
5.042901500E0,6.102060699E0,-5.884562988E0,6.521937561E-1,8.502269288E0
5.052909500E0,5.989943848E0,-5.805078278E0,5.774990845E-1,8.361331610E0
5.062917500E0,5.914201355E0,-5.757776642E0,5.517526245E-1,8.272496629E0
5.072925500E0,5.855373688E0,-5.718258820E0,5.623805237E-1,8.203667278E0
5.082933500E0,5.822741547E0,-5.710025940E0,6.108796692E-1,8.178134832E0
5.092941500E0,5.812113647E0,-5.721252594E0,7.012916565E-1,8.185670790E0
5.102949500E0,5.856122131E0,-5.782475281E0,8.069718933E-1,8.269364572E0
5.112957500E0,5.923032990E0,-5.893095245E0,9.204359436E-1,8.405836882E0
5.122965500E0,6.010900269E0,-6.102509766E0,1.023272095E0,8.626623514E0
5.132973500E0,6.114484863E0,-6.286477203E0,1.099014587E0,8.838243821E0
5.142981500E0,6.259533234E0,-6.396947479E0,1.225202179E0,9.033482924E0
5.152989500E0,6.418203278E0,-6.498436432E0,1.371148682E0,9.235965465E0
5.162997500E0,6.556665344E0,-6.574478302E0,1.434766388E0,9.395327560E0
5.173005500E0,6.759044495E0,-6.604266357E0,1.431323547E0,9.557703893E0
5.183013500E0,6.977440338E0,-6.664291534E0,1.338366852E0,9.741082135E0
5.193021500E0,7.196734314E0,-6.713389435E0,1.194965057E0,9.914157754E0
5.203029500E0,7.441475372E0,-6.726711731E0,1.072369995E0,1.008831918E1
5.213037500E0,7.617658997E0,-6.777755585E0,9.511221313E-1,1.024067052E1
5.223045500E0,7.658823395E0,-6.716083832E0,8.431965637E-1,1.022126892E1
5.233053500E0,7.657775574E0,-6.584058380E0,7.893086243E-1,1.012987461E1
5.243061500E0,7.687413940E0,-6.520740051E0,7.400610352E-1,1.010762456E1
5.253069500E0,7.702083435E0,-6.508465576E0,6.378236389E-1,1.010391174E1
5.263077500E0,7.719297638E0,-6.483766937E0,4.920268250E-1,1.009301145E1
5.273085500E0,7.754324799E0,-6.395450592E0,2.767744446E-1,1.005524467E1
5.283093500E0,7.838749237E0,-6.449937286E0,9.205856323E-2,1.015165777E1
5.293101500E0,7.940537567E0,-6.676865387E0,-8.158035278E-2,1.037493728E1
5.303109500E0,7.999814301E0,-6.877597961E0,-1.624122620E-1,1.055105494E1
5.313117500E0,8.024962006E0,-6.926097107E0,-2.163002014E-1,1.060271768E1
5.323125500E0,8.087531891E0,-6.879244537E0,-2.817141724E-1,1.062127772E1
5.333133500E0,8.098908234E0,-6.886579285E0,-3.177891541E-1,1.063570772E1
5.343141500E0,8.096213837E0,-6.917115784E0,-3.796105957E-1,1.065548091E1
5.353149500E0,8.131390686E0,-7.005731506E0,-4.511618042E-1,1.074259444E1
5.363157500E0,8.187374268E0,-7.143594818E0,-5.375321960E-1,1.087901582E1
5.373165500E0,8.253386993E0,-7.251969452E0,-6.357279968E-1,1.100516278E1
5.383173500E0,8.311316528E0,-7.335046692E0,-7.514373779E-1,1.111060532E1
5.393181500E0,8.298143921E0,-7.401508484E0,-8.229885864E-1,1.114983545E1
5.403189500E0,8.197852478E0,-7.480993195E0,-8.629554749E-1,1.113169963E1
5.413197500E0,8.061186676E0,-7.496411133E0,-9.243278503E-1,1.104686799E1
5.423205500E0,7.961044922E0,-7.461533661E0,-1.018182678E0,1.095853169E1
5.433213500E0,7.902666321E0,-7.443870392E0,-1.061143341E0,1.090822472E1
5.443222500E0,7.992030487E0,-7.544461212E0,-1.107696533E0,1.104619563E1
5.453229500E0,8.228089600E0,-7.764803009E0,-1.170266418E0,1.137379214E1
5.463238500E0,8.616531830E0,-8.102201385E0,-1.219364319E0,1.189021183E1
5.473246500E0,9.127120056E0,-8.505313110E0,-1.277892609E0,1.254103987E1
5.483254500E0,9.583670654E0,-8.880582733E0,-1.238674164E0,1.312424499E1
5.493262500E0,9.867330780E0,-9.053473206E0,-1.191372528E0,1.344429107E1
5.503270500E0,9.836644592E0,-8.941955109E0,-1.180744629E0,1.334587187E1
5.513278500E0,9.472751312E0,-8.523724823E0,-1.203497314E0,1.279981672E1
5.523286500E0,8.883726196E0,-7.946974182E0,-1.230740662E0,1.198289249E1
5.533294500E0,8.197104034E0,-7.379953308E0,-1.219813385E0,1.109703429E1
5.543302500E0,7.601342926E0,-6.947652283E0,-1.193468170E0,1.036699825E1
5.553310500E0,7.125482483E0,-6.593937836E0,-1.141975250E0,9.775306863E0
5.563318500E0,6.871011658E0,-6.515351257E0,-1.011746063E0,9.522826960E0
5.573326500E0,6.693480835E0,-6.540349274E0,-8.211923218E-1,9.394318024E0
5.583334500E0,6.513554993E0,-6.649771729E0,-5.894741821E-1,9.327022167E0
5.593342500E0,6.492299194E0,-6.840624847E0,-4.085005188E-1,9.439860688E0
5.603350500E0,6.422544250E0,-7.010671234E0,-2.555186462E-1,9.511249948E0
5.613358500E0,6.288722534E0,-7.203470306E0,-1.224453735E-1,9.563106631E0
5.623366500E0,6.203549652E0,-7.477250977E0,-3.921844482E-2,9.715701135E0
5.633374500E0,6.155349884E0,-7.786807251E0,2.499801636E-2,9.925891610E0
5.643382500E0,6.096522217E0,-8.128247223E0,2.004331970E-1,1.016248786E1
5.653394250E0,6.047574005E0,-8.525970154E0,4.189787292E-1,1.046139864E1
5.663402250E0,5.912405090E0,-8.854536896E0,5.800437927E-1,1.066282366E1
5.673410250E0,5.678441620E0,-9.162147217E0,9.141490173E-1,1.081782368E1
5.683418250E0,5.325325928E0,-9.383237457E0,1.614542542E0,1.090921578E1
5.693426250E0,4.892276459E0,-9.309440918E0,1.816472626E0,1.067237705E1
5.703434250E0,4.318220215E0,-9.025481415E0,1.633852386E0,1.013784071E1
5.713442250E0,3.886517944E0,-8.939410400E0,1.581161957E0,9.875128008E0
5.723450250E0,3.577859802E0,-8.951535187E0,1.666634216E0,9.783084001E0
5.733458250E0,3.257675629E0,-8.829389191E0,1.688039703E0,9.561382851E0
5.743466250E0,2.991678772E0,-8.645272064E0,1.596579895E0,9.286546091E0
5.753474250E0,2.810106354E0,-8.494086456E0,1.540596313E0,9.078526282E0
5.763482250E0,2.794987793E0,-8.370293884E0,1.485211487E0,8.948722235E0
5.773490250E0,2.826272736E0,-8.160430298E0,1.397942963E0,8.748410413E0
5.783498250E0,2.825224915E0,-8.090675354E0,1.250200195E0,8.660480589E0
5.793506250E0,2.822231140E0,-7.743996277E0,1.104253693E0,8.315878977E0
5.803514250E0,2.859653320E0,-7.409891052E0,7.514373779E-1,7.978017338E0
5.813522250E0,2.928809509E0,-7.133865051E0,2.939886475E-1,7.717278344E0
5.823530250E0,3.134631500E0,-6.716682587E0,-1.299298096E-1,7.413273323E0
5.833538250E0,3.597618713E0,-6.365213470E0,-4.116439819E-1,7.323131413E0
5.843546250E0,4.145030365E0,-6.304290161E0,-3.754193115E-1,7.554223376E0
5.853554250E0,4.749024353E0,-6.476432190E0,-3.472778320E-2,8.031102803E0
5.863562250E0,5.463937683E0,-6.646029510E0,4.825964355E-1,8.617263056E0
5.873570250E0,6.037844238E0,-6.639742584E0,9.009764099E-1,9.019617682E0
5.883578250E0,6.308032379E0,-6.508615265E0,1.058448944E0,9.125440227E0
5.893586250E0,6.531218262E0,-6.298152924E0,9.654922485E-1,9.124457108E0
5.903594250E0,6.797364807E0,-6.055507507E0,8.634045410E-1,9.144331954E0
5.913602250E0,7.081324310E0,-5.889203339E0,7.382647705E-1,9.239745928E0
5.923610250E0,7.271728363E0,-5.814808044E0,4.685256958E-1,9.322528751E0
5.933618250E0,7.392377472E0,-5.874533844E0,1.892065430E-1,9.444214721E0
5.943626250E0,7.518115997E0,-5.980663147E0,3.308120728E-2,9.606846215E0
5.953634250E0,7.611372070E0,-5.893694000E0,-9.071136475E-2,9.626881235E0
5.963642250E0,7.910300446E0,-5.234165497E0,-1.694476318E-1,9.486730421E0
5.973650250E0,8.610095215E0,-4.640200653E0,-5.059478760E-2,9.780989804E0
5.983658250E0,9.327403564E0,-4.590354309E0,-4.080514526E-1,1.040376451E1
5.993666250E0,1.000354752E1,-4.493206329E0,-1.257834320E0,1.103820697E1
6.003674250E0,1.078686859E1,-4.491859131E0,-2.406994629E0,1.193008615E1
6.013682250E0,1.161195282E1,-4.602928162E0,-3.856879578E0,1.307286946E1
6.023691250E0,1.199440750E1,-4.349205780E0,-5.243595886E0,1.379408207E1
6.033699250E0,1.116767670E1,-3.548221436E0,-6.527176666E0,1.341308739E1
6.043707250E0,1.014904495E1,-3.437152405E0,-8.005502472E0,1.337554485E1
6.053715250E0,9.628726959E0,-3.937262421E0,-8.890761566E0,1.368429974E1
6.063723250E0,9.161249084E0,-4.390519867E0,-8.473878479E0,1.322920126E1
6.073731250E0,8.986412659E0,-4.660708008E0,-6.300098877E0,1.192346667E1
6.083739250E0,9.564211121E0,-5.414989471E0,-4.175267487E0,1.175708739E1
6.093747250E0,1.047207321E1,-6.764582977E0,-2.771486664E0,1.277125830E1
6.103755250E0,1.144864243E1,-8.328979797E0,-1.914668427E0,1.428668167E1
6.113763250E0,1.215113159E1,-1.000190094E1,-1.424138489E0,1.580241095E1
6.123771250E0,1.232701584E1,-1.126692032E1,-1.075363770E0,1.673485047E1
6.133779250E0,1.204036194E1,-1.198617462E1,-8.505313110E-1,1.701064670E1
6.143787250E0,1.113893646E1,-1.190189987E1,-5.354365540E-1,1.631005268E1
6.153795250E0,9.613458710E0,-1.081201630E1,-1.321751404E-1,1.446843997E1
6.163803250E0,8.010591888E0,-9.580527191E0,1.190025330E-1,1.248880480E1
6.173811250E0,6.472989349E0,-8.972641296E0,1.871109009E-1,1.106539170E1
6.183819250E0,5.152136078E0,-8.667875061E0,1.041833496E-1,1.008401797E1
6.193827250E0,4.201762390E0,-8.328979797E0,1.766326904E-2,9.328827560E0
6.203835250E0,3.270698547E0,-7.817194061E0,3.757186890E-2,8.473924924E0
6.213843250E0,2.610122223E0,-7.449857941E0,3.064128113E-1,7.899810768E0
6.223851250E0,2.214944000E0,-7.524402924E0,9.189390564E-1,7.897282145E0
6.233859250E0,2.296224976E0,-7.714357910E0,1.505718842E0,8.188477046E0
6.243867250E0,2.588716736E0,-7.714657288E0,1.695973206E0,8.312263020E0
6.253875250E0,2.820285187E0,-7.841293945E0,1.732197876E0,8.511193145E0
6.263883250E0,3.121907959E0,-7.943830719E0,1.696571960E0,8.702247538E0
6.273891250E0,3.414998474E0,-8.020022278E0,1.635498962E0,8.868924894E0
6.283899250E0,3.716770935E0,-7.925269318E0,1.525477753E0,8.885457912E0
6.293907250E0,4.019740906E0,-7.622299347E0,1.469494171E0,8.741691907E0
6.303915250E0,4.434528351E0,-7.789351959E0,1.242865448E0,9.048964591E0
6.313923250E0,4.885989532E0,-8.081095276E0,9.324110413E-1,9.489277365E0
6.323931250E0,5.566923523E0,-7.823930054E0,6.686595154E-1,9.625571388E0
6.333939250E0,7.318431244E0,-6.012247467E0,3.465293884E-1,9.477691602E0
6.343947250E0,8.439749451E0,-4.254452820E0,4.216731262E-1,9.460842870E0
6.353955250E0,7.089257813E0,-5.106930084E0,1.580263824E0,8.878938280E0
6.363963250E0,6.279292145E0,-6.053561554E0,1.740430756E0,8.894055124E0
6.373971250E0,6.454278259E0,-6.307733002E0,1.054557037E0,9.086104447E0
6.383979250E0,6.864575043E0,-6.077511749E0,5.254074097E-1,9.183386768E0
6.393987250E0,7.107370148E0,-5.845793610E0,2.911445618E-1,9.207213395E0
6.403995250E0,7.174281006E0,-5.908363495E0,3.182382202E-1,9.299480776E0
6.414003250E0,7.135361938E0,-6.081553345E0,1.586700439E-1,9.376772220E0
6.424011250E0,7.023843842E0,-6.281238098E0,6.436614990E-3,9.422758396E0
6.434019250E0,6.976841583E0,-6.514453125E0,-1.335223389E-1,9.546321083E0
6.444027250E0,6.915618896E0,-6.627168732E0,-2.607577515E-1,9.581917591E0
6.454035250E0,6.873256989E0,-6.706204376E0,-2.555186462E-1,9.606254657E0
6.464043250E0,6.796167297E0,-6.823111267E0,-2.080673218E-1,9.632550509E0
6.474051250E0,6.661148071E0,-6.785090332E0,-1.643582153E-1,9.509750684E0
6.484059250E0,6.508465576E0,-6.730453949E0,-1.116677856E-1,9.363311605E0
6.494068250E0,6.331533508E0,-6.689738617E0,-7.125183105E-2,9.211188640E0
6.504076250E0,6.160588989E0,-6.610403595E0,-6.346801758E-2,9.036278027E0
6.514084250E0,6.082152100E0,-6.496939545E0,-1.194515991E-1,8.900396974E0
6.524092250E0,5.964646454E0,-6.461163940E0,-1.574725342E-1,8.794796438E0
6.534100250E0,5.869594116E0,-6.469396820E0,-1.071771240E-1,8.735943981E0
6.544108250E0,5.878425751E0,-6.598578186E0,-2.514770508E-2,8.837293465E0
6.554116250E0,5.928870850E0,-6.783144379E0,-3.637435913E-2,9.009099861E0
6.564124250E0,6.043382721E0,-6.987170105E0,-1.163081360E-1,9.238860772E0
6.574132250E0,6.242019653E0,-7.185357971E0,-1.661544800E-1,9.519442517E0
6.584140250E0,6.431076508E0,-7.461533661E0,-1.995350647E-1,9.852565344E0
6.594148250E0,6.663543091E0,-7.741601257E0,-1.757345581E-1,1.021597177E1
6.604156250E0,6.996600494E0,-7.957602081E0,-2.404000854E-1,1.059875660E1
6.614164250E0,7.415130157E0,-8.075556793E0,-3.814068604E-1,1.097015241E1
6.624172250E0,7.824977875E0,-8.079897766E0,-5.858816528E-1,1.126313828E1
6.634180250E0,8.150401154E0,-8.014932861E0,-8.357121277E-1,1.146152706E1
6.644188250E0,8.439599762E0,-7.959697723E0,-1.068178711E0,1.165009175E1
6.654196250E0,8.702303467E0,-7.937094727E0,-1.187031555E0,1.183793066E1
6.664204250E0,8.995843048E0,-8.022417297E0,-1.165925446E0,1.210965539E1
6.674212250E0,9.382189636E0,-8.252488861E0,-1.070873108E0,1.254096583E1
6.684220250E0,9.877509613E0,-8.636590118E0,-9.797126770E-1,1.315734479E1
6.694228250E0,1.051488419E1,-9.135802002E0,-9.321116638E-1,1.396046202E1
6.704236250E0,1.117920273E1,-9.689051514E0,-7.514373779E-1,1.481272936E1
6.714244250E0,1.156510025E1,-1.019125717E1,-5.442681885E-1,1.542431504E1
6.724252250E0,1.143696671E1,-1.013647110E1,-3.838018799E-1,1.528723512E1
6.734260250E0,1.059826080E1,-9.305399323E0,-3.872447205E-1,1.410898817E1
6.744268250E0,9.360185394E0,-8.176297302E0,-5.282514954E-1,1.243961245E1
6.754276250E0,8.275690613E0,-7.160809021E0,-6.379733276E-1,1.096226486E1
6.764284250E0,7.514224091E0,-6.640790405E0,-5.653742981E-1,1.004406835E1
6.774292250E0,7.099885712E0,-6.437363434E0,-4.195774841E-1,9.592917719E0
6.784300250E0,6.853947144E0,-6.464457092E0,-3.125500488E-1,9.426743047E0
6.794308250E0,6.580914917E0,-6.550528107E0,-2.399510193E-1,9.288457144E0
6.804316250E0,6.256240082E0,-6.657555542E0,-3.149450684E-1,9.141267754E0
6.814324250E0,5.934559021E0,-6.893165588E0,-4.279600525E-1,9.105925126E0
6.824332250E0,5.656437378E0,-7.168892212E0,-4.340972900E-1,9.142031493E0
6.834340250E0,5.421426086E0,-7.444319458E0,-3.308120728E-1,9.215160858E0
6.844348250E0,5.197641449E0,-7.866142273E0,-1.463955688E-1,9.429374452E0
6.854356250E0,4.871469727E0,-8.207731934E0,1.311273193E-1,9.545432162E0
6.864364250E0,4.525389404E0,-8.524173889E0,4.019142151E-1,9.659307677E0
6.874372250E0,4.314477997E0,-8.850495300E0,7.045848083E-1,9.871293086E0
6.884380250E0,4.183500366E0,-9.132508850E0,9.871971130E-1,1.009351036E1
6.894388250E0,4.093238068E0,-9.366023254E0,1.120569763E0,1.028263906E1
6.904397250E0,3.961661682E0,-9.454788666E0,1.154100037E0,1.031599432E1
6.914405250E0,3.747157745E0,-9.286538544E0,1.110839996E0,1.007546301E1
6.924413250E0,3.487148438E0,-8.847651215E0,9.117539978E-1,9.553660638E0
6.934421250E0,3.319946136E0,-8.299042053E0,5.770500183E-1,8.957071401E0
6.944429250E0,3.317551117E0,-7.751929779E0,3.285667419E-1,8.438395393E0
6.954437250E0,3.402274933E0,-7.166048126E0,2.556683350E-1,7.936818428E0
6.964445250E0,3.567082214E0,-6.701564026E0,-2.505789185E-1,7.595908485E0
6.974453250E0,3.710933075E0,-6.339467010E0,-6.189628601E-1,7.371769210E0
6.984461250E0,3.826642456E0,-6.068829803E0,-8.366102600E-1,7.223143664E0
6.994469250E0,3.889661407E0,-6.039341125E0,-9.922865295E-1,7.251740457E0
7.004477250E0,3.850143585E0,-6.196065216E0,-1.013542328E0,7.364923478E0
7.014485250E0,3.870052185E0,-6.256389771E0,-1.066831512E0,7.433562158E0
7.024493250E0,4.048032074E0,-6.134842529E0,-1.135987701E0,7.437292827E0
7.034501250E0,4.228706360E0,-6.100713501E0,-1.103205872E0,7.504513701E0
7.044509250E0,4.365970917E0,-6.059100037E0,-1.051862640E0,7.541936775E0
7.054517250E0,4.526886292E0,-5.996829529E0,-9.020242310E-1,7.567582944E0
7.064525250E0,4.790488129E0,-6.012995911E0,-6.668632507E-1,7.716838921E0
7.074533250E0,5.069657593E0,-6.003116455E0,-3.029699707E-1,7.863245264E0
7.084541250E0,5.454058228E0,-5.976172485E0,1.046324158E-1,8.091497801E0
7.094549250E0,5.892496490E0,-5.951773224E0,5.291496277E-1,8.391967512E0
7.104557250E0,6.308930511E0,-5.949976959E0,8.723858643E-1,8.715841159E0
7.114565250E0,6.656208344E0,-6.014193420E0,9.680369568E-1,9.022900175E0
7.124573250E0,6.957232361E0,-6.142476654E0,6.491999817E-1,9.303470438E0
7.134581250E0,7.304659882E0,-6.229894867E0,1.648072815E-1,9.601916865E0
7.144589250E0,7.706424408E0,-6.333629150E0,-8.831634521E-2,9.975551872E0
7.154597250E0,8.015830994E0,-6.289770355E0,-7.484436035E-2,1.018922761E1
7.164605250E0,8.298293610E0,-6.223308563E0,-6.391708374E-2,1.037281696E1
7.174613250E0,8.661288757E0,-5.996380463E0,-1.778302002E-1,1.053594444E1
7.184621250E0,9.112600250E0,-5.686075745E0,-4.938230896E-1,1.075243237E1
7.194629250E0,9.631271667E0,-5.350473633E0,-1.265767822E0,1.109013662E1
7.204637250E0,1.033196457E1,-5.009632416E0,-2.308948517E0,1.171226503E1
7.214645250E0,1.104418350E1,-4.668042755E0,-3.630550232E0,1.252778941E1
7.224653250E0,1.132649643E1,-4.123175812E0,-5.080734558E0,1.308067138E1
7.234661250E0,1.096709381E1,-3.498075714E0,-5.746400299E0,1.286603267E1
7.244669250E0,1.060200302E1,-3.405717773E0,-5.593268738E0,1.246138182E1
7.254678250E0,1.083282303E1,-4.265380096E0,-4.818779297E0,1.260016492E1
7.264686250E0,1.111528564E1,-4.738845520E0,-3.530558167E0,1.258852941E1
7.274694250E0,1.154129974E1,-5.704188080E0,-2.631378021E0,1.314014885E1
7.284702250E0,1.229962280E1,-7.537874908E0,-2.468067627E0,1.463528739E1
7.294710250E0,1.286858963E1,-9.599387970E0,-2.644850006E0,1.627095818E1
7.304718250E0,1.291214905E1,-1.124746078E1,-2.710114288E0,1.733706107E1
7.314726250E0,1.212598389E1,-1.189037384E1,-2.260299683E0,1.713270060E1
7.324734250E0,1.050500473E1,-1.121198456E1,-1.618135071E0,1.544933925E1
7.334742250E0,9.037306824E0,-1.007839188E1,-1.170715485E0,1.358740123E1
7.344750250E0,7.963439941E0,-9.353000336E0,-6.734495544E-1,1.230237885E1
7.354758250E0,6.982679443E0,-8.805438995E0,-1.770817566E-1,1.123943620E1
7.364766250E0,5.996380463E0,-8.211773529E0,1.460961914E-1,1.016912716E1
7.374774250E0,5.133424988E0,-7.638316040E0,3.517684937E-1,9.209759232E0
7.384782250E0,4.512665863E0,-7.336244202E0,6.448590088E-1,8.637156669E0
7.394790250E0,4.133055267E0,-7.378755798E0,9.991722107E-1,8.516250823E0
7.404798250E0,3.965403900E0,-7.489974518E0,1.220412140E0,8.562333336E0
7.414806250E0,3.892056427E0,-7.445966034E0,1.322948914E0,8.505334046E0
7.424814250E0,3.976480865E0,-7.360942841E0,1.386117554E0,8.480401019E0
7.434822250E0,4.318669281E0,-7.252867584E0,1.400936737E0,8.556729299E0
7.444830250E0,4.671036530E0,-7.168143768E0,1.297801208E0,8.653620937E0
7.454838250E0,5.049449615E0,-7.051236877E0,1.231339417E0,8.759741987E0
7.464846250E0,5.313949585E0,-6.967111816E0,1.255439301E0,8.851826653E0
7.474854250E0,5.398074646E0,-6.990912323E0,1.151705017E0,8.907215583E0
7.484862250E0,5.526956635E0,-6.926995239E0,1.173858948E0,8.939153065E0
7.494870250E0,5.586532745E0,-6.848558350E0,1.201401672E0,8.919387062E0
7.504878250E0,5.647605743E0,-6.688241730E0,1.254990234E0,8.843247625E0
7.514886250E0,5.585784302E0,-6.696624298E0,1.220412140E0,8.805405672E0
7.524894250E0,5.467230835E0,-6.859036560E0,1.042881317E0,8.833153286E0
7.534902250E0,5.481451263E0,-7.004683685E0,9.698332214E-1,8.947205036E0
7.544910250E0,5.400020599E0,-7.150779877E0,9.222322083E-1,9.008017960E0
7.554918250E0,5.384602661E0,-7.269183655E0,8.951385498E-1,9.090448275E0
7.564926250E0,5.499114532E0,-7.230414276E0,7.424560547E-1,9.114296036E0
7.574935250E0,5.708978119E0,-7.056775360E0,7.661068726E-1,9.109194772E0
7.584943250E0,5.762267303E0,-7.380701752E0,5.351371765E-1,9.378958078E0
7.594951250E0,5.944737854E0,-7.727081451E0,2.996768188E-1,9.753845503E0
7.604959250E0,6.028563538E0,-7.692503357E0,2.264790344E-1,9.775964350E0
7.614967250E0,6.124514008E0,-7.648494873E0,1.613644409E-1,9.799754290E0
7.624975250E0,6.129753113E0,-7.713010712E0,9.924362183E-2,9.852626896E0
7.634983250E0,6.073470154E0,-7.633975067E0,1.347198486E-1,9.756165459E0
7.644991250E0,6.078260193E0,-7.386539612E0,1.481918335E-1,9.567035864E0
7.654995500E0,6.218518524E0,-7.169041901E0,4.236190796E-2,9.490359790E0
7.665003500E0,6.265520782E0,-6.996151428E0,-2.544708252E-2,9.391673601E0
7.675011500E0,6.187832336E0,-6.865622864E0,3.891906738E-2,9.242703123E0
7.685019500E0,6.116281128E0,-6.782096558E0,1.017883301E-2,9.132679353E0
7.695027500E0,6.110592957E0,-6.719526672E0,-1.422042847E-1,9.083589986E0
7.705035500E0,6.126609650E0,-6.629563751E0,-4.122427368E-1,9.036393385E0
7.715043500E0,6.116131439E0,-6.503974915E0,-6.619235229E-1,8.952479892E0
7.725051500E0,6.134243774E0,-6.398144989E0,-8.138575745E-1,8.900987032E0
7.735059500E0,6.146518250E0,-6.336173859E0,-8.306227112E-1,8.866607009E0
7.745067500E0,6.329437866E0,-6.376140747E0,-8.044271851E-1,9.020202749E0
7.755075500E0,6.660998383E0,-6.515500946E0,-7.815248108E-1,9.350477692E0
7.765083500E0,6.959477692E0,-6.628066864E0,-7.203021240E-1,9.637657145E0
7.775091500E0,7.294331360E0,-6.795718231E0,-7.360194397E-1,9.996538445E0
7.785099500E0,7.695347443E0,-7.002737732E0,-6.988966370E-1,1.042809496E1
7.795107500E0,8.080197144E0,-7.206015015E0,-6.771917725E-1,1.084780286E1
7.805115500E0,8.426876221E0,-7.391030273E0,-6.557862854E-1,1.122807316E1
7.815123500E0,8.725505219E0,-7.518415375E0,-6.767427063E-1,1.153772039E1
7.825131500E0,8.991502075E0,-7.580985260E0,-7.274871826E-1,1.178336474E1
7.835139500E0,9.372160492E0,-7.742349701E0,-8.238867188E-1,1.218442286E1
7.845147500E0,9.976154480E0,-8.133636017E0,-9.125024414E-1,1.290396659E1
7.855155500E0,1.083252365E1,-8.714128876E0,-9.705816650E-1,1.393634240E1
7.865163500E0,1.182466049E1,-9.370962982E0,-9.427395630E-1,1.511708639E1
7.875172500E0,1.276769943E1,-1.004186783E1,-8.319699097E-1,1.626485266E1
7.885180500E0,1.336390961E1,-1.066981201E1,-6.448590088E-1,1.711300124E1
7.895188500E0,1.319940170E1,-1.067954178E1,-5.363346863E-1,1.698718555E1
7.905196500E0,1.185100571E1,-9.642648010E0,-6.578819275E-1,1.529247546E1
7.915204500E0,9.813592529E0,-8.056396637E0,-7.508386230E-1,1.271911490E1
7.925212500E0,8.467142487E0,-6.815926208E0,-6.515950012E-1,1.088916563E1
7.935220500E0,7.711214447E0,-6.334078217E0,-5.849835205E-1,9.996278348E0
7.945228500E0,7.186405792E0,-6.148164825E0,-5.465135193E-1,9.473280106E0
7.955236500E0,6.724316711E0,-6.042185211E0,-4.971162415E-1,9.053814772E0
7.965244500E0,6.270011444E0,-5.914351044E0,-4.505630493E-1,8.631083295E0
7.975252500E0,5.804180145E0,-5.809568939E0,-4.125421143E-1,8.222517219E0
7.985260500E0,5.394781494E0,-5.805377655E0,-4.215234375E-1,7.936230786E0
7.995268500E0,5.088069305E0,-5.962401123E0,-4.403842163E-1,7.850644220E0
8.005276500E0,4.797373810E0,-6.158193970E0,-4.311035156E-1,7.818183848E0
8.015284500E0,4.533771973E0,-6.469097443E0,-3.233276367E-1,7.906253903E0
8.025292500E0,4.408781891E0,-7.153773651E0,-1.375639343E-1,8.404329780E0
8.035300500E0,4.263284454E0,-7.897576904E0,1.722917175E-1,8.976469224E0
8.045308500E0,4.002526703E0,-8.360564117E0,5.376818848E-1,9.284845404E0
8.055316500E0,3.779789886E0,-8.534352722E0,7.125183105E-1,9.361072071E0
8.065324500E0,3.748055878E0,-8.878337402E0,7.435038757E-1,9.665691693E0
8.075332500E0,3.795507202E0,-9.473649445E0,8.382568359E-1,1.024004801E1
8.085340500E0,3.725303192E0,-9.862540741E0,1.023870850E0,1.059225685E1
8.095348500E0,3.461102600E0,-9.809251556E0,1.055754547E0,1.045539406E1
8.105356500E0,3.164718933E0,-9.604327698E0,9.803114319E-1,1.015970309E1
8.115364500E0,2.865640869E0,-9.150321808E0,8.077203369E-1,9.622510011E0
8.125372500E0,2.641107788E0,-8.550369415E0,4.517605591E-1,8.960376950E0
8.135380500E0,2.644999695E0,-8.191864929E0,6.915618896E-2,8.608568812E0
8.145388500E0,2.828817444E0,-8.202043762E0,-2.351609802E-1,8.679345061E0
8.155396500E0,3.009791107E0,-8.320148163E0,-2.772235107E-1,8.852150069E0
8.165405500E0,2.962639160E0,-8.264164581E0,-4.053570557E-1,8.788513035E0
8.175413500E0,2.787952423E0,-7.792196045E0,-8.000862122E-1,8.314513567E0
8.185421500E0,2.928360443E0,-6.912924500E0,-1.078656921E0,7.584676709E0
8.195429500E0,3.320694580E0,-6.295608215E0,-1.239123230E0,7.224757551E0
8.205437500E0,3.778143311E0,-6.215075684E0,-1.220412140E0,7.375021249E0
8.215445500E0,4.174519043E0,-6.445895691E0,-1.032403107E0,7.748679673E0
8.225453500E0,4.396657104E0,-6.677613831E0,-8.177494812E-1,8.036780100E0
8.235461500E0,4.440216522E0,-6.831643524E0,-6.583309937E-1,8.174366991E0
8.245469500E0,4.548591156E0,-6.947951660E0,-5.539979553E-1,8.322897783E0
8.255477500E0,4.835993500E0,-6.978937225E0,-4.065545654E-1,8.500452020E0
8.265485500E0,5.358407135E0,-6.690936127E0,-1.941462708E-1,8.574313153E0
8.275493500E0,6.745871887E0,-5.357958069E0,-1.734892273E-1,8.616530665E0
8.285501500E0,8.303832092E0,-3.567980347E0,8.681945801E-3,9.037930435E0
8.295509500E0,7.816445618E0,-3.703149261E0,5.038522339E-1,8.663948501E0
8.305517500E0,7.081473999E0,-5.284460907E0,1.391506348E0,8.944780097E0
8.315525500E0,7.653733978E0,-6.244414673E0,9.557624817E-1,9.924003242E0
8.325533500E0,8.155789948E0,-6.596781921E0,2.279759216E-1,1.049220732E1
8.335541500E0,8.408614197E0,-6.190676422E0,-9.744735718E-2,1.044216277E1
8.345549500E0,8.584797821E0,-5.938750305E0,6.706054688E-2,1.043896575E1
8.355557500E0,8.868308258E0,-5.893993378E0,3.993695068E-1,1.065577521E1
8.365565500E0,9.215735779E0,-5.831124115E0,5.306465149E-1,1.091848800E1
8.375573500E0,9.537566528E0,-5.588329010E0,2.041754150E-1,1.105605192E1
8.385581500E0,9.824819183E0,-5.262306976E0,-5.176235962E-1,1.115736891E1
8.395589500E0,1.008722351E1,-4.942721558E0,-1.389859772E0,1.131875809E1
8.405597500E0,1.063253952E1,-4.472549286E0,-2.627037048E0,1.183029659E1
8.415605500E0,1.115345627E1,-3.739074554E0,-4.057312775E0,1.244355465E1
8.425613500E0,1.141705811E1,-3.290008392E0,-5.090464325E0,1.292618266E1
8.435622500E0,1.155147858E1,-3.097209320E0,-5.395080872E0,1.312007090E1
8.445630500E0,1.169068909E1,-3.451372833E0,-5.258564758E0,1.327541672E1
8.455638500E0,1.210787155E1,-4.260889435E0,-4.767885132E0,1.369264258E1
8.465646500E0,1.280781601E1,-5.532195740E0,-4.153562622E0,1.455669685E1
8.475654500E0,1.324864929E1,-7.221882019E0,-3.478167114E0,1.548482917E1
8.485662500E0,1.305884399E1,-8.577612762E0,-2.516566772E0,1.582535799E1
8.495670500E0,1.268851410E1,-9.360484772E0,-1.506916351E0,1.583944008E1
8.505678500E0,1.205937241E1,-9.630672913E0,-9.818083191E-1,1.546422553E1
8.515686500E0,1.120435043E1,-9.362281036E0,-8.602610779E-1,1.462634007E1
8.525694500E0,1.022403900E1,-8.754245453E0,-9.741741943E-1,1.349506585E1
8.535702500E0,9.027127991E0,-8.218659210E0,-1.035097504E0,1.225180908E1
8.545710500E0,7.720046082E0,-7.889194336E0,-1.061442719E0,1.108896566E1
8.555718500E0,6.759643250E0,-7.532336426E0,-9.048683167E-1,1.016108535E1
8.565726500E0,6.060297546E0,-7.225324860E0,-4.092489624E-1,9.439280184E0
8.575734500E0,5.538332977E0,-7.141349487E0,2.347119141E-1,9.040303886E0
8.585742500E0,5.094505920E0,-7.291786652E0,8.244854736E-1,8.933303949E0
8.595750500E0,4.796625366E0,-7.585775299E0,1.352287903E0,9.076358541E0
8.605758500E0,4.606670380E0,-7.865842896E0,1.567390594E0,9.249303202E0
8.615766500E0,4.437821503E0,-8.247399445E0,1.465452576E0,9.479525755E0
8.625774500E0,4.265679474E0,-8.816066895E0,1.408870239E0,9.894643612E0
8.635782500E0,4.185745697E0,-9.214987335E0,1.413510590E0,1.021931851E1
8.645790500E0,4.156855774E0,-9.406139832E0,1.471440125E0,1.038845766E1
8.655801917E0,4.100123749E0,-9.395811310E0,1.484463043E0,1.035837417E1
8.665809917E0,3.946543121E0,-9.347910919E0,1.455722809E0,1.025074485E1
8.675817917E0,3.855682068E0,-9.130413208E0,1.377435608E0,1.000640087E1
8.685825917E0,3.770359497E0,-8.777447205E0,1.237027588E0,9.632726894E0
8.695834917E0,3.833977203E0,-8.154442749E0,1.139729919E0,9.082582344E0
8.705842917E0,4.065545654E0,-7.511529694E0,9.633966064E-1,8.595340181E0
8.715850917E0,4.159101105E0,-7.082970886E0,7.026388550E-1,8.243803730E0
8.725858917E0,4.192182312E0,-6.894213409E0,5.233117676E-1,8.085692690E0
8.735866917E0,4.359833679E0,-6.893165588E0,4.204756165E-1,8.167048505E0
8.745874917E0,4.609813843E0,-6.937473450E0,3.338058472E-1,8.336087084E0
8.755882917E0,4.880750427E0,-6.956932983E0,2.543211365E-1,8.502077423E0
8.765890917E0,5.149441681E0,-7.047195282E0,2.564167786E-1,8.731864665E0
8.775898917E0,5.391638031E0,-7.093748474E0,3.350033569E-1,8.916459798E0
8.785906917E0,5.673352203E0,-7.076534271E0,4.402345276E-1,9.080642541E0
8.795914917E0,5.945037231E0,-6.993906097E0,4.941224670E-1,9.192515825E0
8.805922917E0,6.184239807E0,-6.846911774E0,4.885839844E-1,9.239249815E0
8.815930917E0,6.320606232E0,-6.661746826E0,4.764591980E-1,9.195430783E0
8.825938917E0,6.284082184E0,-6.625971222E0,4.355941772E-1,9.142369814E0
8.835946917E0,6.211632843E0,-6.617888031E0,2.200424194E-1,9.079055195E0
8.845954917E0,6.258784790E0,-6.474935303E0,2.439926147E-2,9.005430003E0
8.855962917E0,6.225553894E0,-6.380182343E0,-1.065783691E-1,8.914909251E0
8.865970917E0,6.168821869E0,-6.272705841E0,-1.312770081E-1,8.798774657E0
8.875978917E0,6.150110779E0,-6.143823853E0,-1.490899658E-1,8.694404059E0
8.885986917E0,6.159391479E0,-6.079457703E0,-1.550775146E-1,8.655747131E0
8.895994917E0,6.231990509E0,-6.101461945E0,-1.899549866E-1,8.723624617E0
8.906002917E0,6.395600281E0,-6.211782532E0,-2.239343262E-1,8.918525201E0
8.916010917E0,6.667434998E0,-6.425388336E0,-2.606080627E-1,9.263272709E0
8.926019917E0,6.960675201E0,-6.627917175E0,-2.565664673E-1,9.614890103E0
8.936027917E0,7.316784668E0,-6.941365356E0,-2.192939758E-1,1.008791261E1
8.946035917E0,7.648644562E0,-7.249574432E0,-2.038760376E-1,1.054038228E1
8.956043917E0,7.984995117E0,-7.477550354E0,-2.636018372E-1,1.094273239E1
8.966051917E0,8.287066956E0,-7.614365845E0,-3.556604004E-1,1.125968651E1
8.976059917E0,8.422834625E0,-7.626191254E0,-3.129991150E-1,1.136665758E1
8.986067917E0,8.521629181E0,-7.582332458E0,-2.345622253E-1,1.140898544E1
8.996075917E0,8.675509186E0,-7.611970825E0,-1.612147522E-1,1.154264050E1
9.006083917E0,8.953481140E0,-7.775879974E0,-1.420545959E-1,1.185956632E1
9.016091917E0,9.423204346E0,-8.165519714E0,-2.463876343E-1,1.247129501E1
9.026099917E0,1.007569748E1,-8.750353546E0,-3.367996216E-1,1.334922473E1
9.036107917E0,1.082024918E1,-9.411678314E0,-3.995191956E-1,1.434632693E1
9.046115917E0,1.153216873E1,-1.001881577E1,-4.194277954E-1,1.528213024E1
9.056123917E0,1.201940552E1,-1.043809387E1,-4.028123474E-1,1.592426358E1
9.066131917E0,1.198333054E1,-1.042507095E1,-4.077520752E-1,1.588863043E1
9.076139917E0,1.107157654E1,-9.705217896E0,-6.089337158E-1,1.473573418E1
9.086147917E0,9.839189301E0,-8.539741516E0,-8.485853577E-1,1.305591545E1
9.096155917E0,8.814420319E0,-7.656128998E0,-9.247769165E-1,1.171176883E1
9.106163917E0,7.996072083E0,-7.061266022E0,-8.047265625E-1,1.069795454E1
9.116171917E0,7.380252686E0,-6.719826050E0,-6.884184265E-1,1.000490439E1
9.126179917E0,6.765032043E0,-6.443949738E0,-4.552033997E-1,9.354002186E0
9.136187917E0,6.188281403E0,-6.231242065E0,-3.225791931E-1,8.787904286E0
9.146195917E0,5.675747223E0,-6.092630310E0,-2.483335876E-1,8.330421370E0
9.156203917E0,5.226381683E0,-6.010301514E0,-2.118095398E-1,7.967662961E0
9.166211917E0,4.964725800E0,-6.069428558E0,-2.191442871E-1,7.844392233E0
9.176220917E0,4.757257233E0,-6.175857239E0,-2.573149109E-1,7.799930767E0
9.186228917E0,4.578379211E0,-6.456074524E0,-2.405497742E-1,7.918353279E0
9.196236917E0,4.435426483E0,-7.044351196E0,-8.741821289E-2,8.324874402E0
9.206244917E0,4.325704651E0,-7.787705383E0,1.516346741E-1,8.909717669E0
9.216252917E0,4.142036591E0,-8.423583069E0,3.324586487E-1,9.392749735E0
9.226260917E0,4.034111023E0,-9.016350403E0,3.881428528E-1,9.885306328E0
9.236268917E0,4.079317017E0,-9.668993225E0,4.950205994E-1,1.050596510E1
9.246276917E0,4.093986511E0,-1.019963974E1,7.427554321E-1,1.101567347E1
9.256284917E0,3.933071136E0,-1.035052597E1,1.102756805E0,1.112737656E1
9.266292917E0,3.645668793E0,-1.015593063E1,1.299447784E0,1.086841260E1
9.276300917E0,3.358266449E0,-9.623637543E0,1.105750580E0,1.025256248E1
9.286308917E0,3.261118469E0,-9.032816162E0,7.081773376E-1,9.629547063E0
9.296316917E0,3.231480103E0,-8.494685211E0,2.933898926E-1,9.093306226E0
9.306324917E0,3.234922943E0,-8.064180450E0,1.481918335E-2,8.688840682E0
9.316332917E0,3.254232788E0,-7.718100128E0,-1.321751404E-1,8.377145749E0
9.326340917E0,3.435954895E0,-7.168443146E0,-8.357121277E-1,7.993170706E0
9.336348917E0,3.586242371E0,-6.578819275E0,-1.242715759E0,7.595152392E0
9.346356917E0,3.737128601E0,-6.679110718E0,-1.456770630E0,7.790945439E0
9.356364917E0,3.939058685E0,-6.801107025E0,-1.461710358E0,7.994237754E0
9.366372917E0,4.048032074E0,-6.692582703E0,-1.336869965E0,7.935014065E0
9.376380917E0,4.193828888E0,-6.565197601E0,-1.337917786E0,7.904431940E0
9.386388917E0,4.345912628E0,-6.441405029E0,-1.463057556E0,7.906907912E0
9.396397917E0,4.286037140E0,-6.373146973E0,-1.572330322E0,7.839600713E0
9.406405917E0,4.229604492E0,-6.384673004E0,-1.635049896E0,7.831155195E0
9.416413917E0,4.514162750E0,-6.460864563E0,-1.611548767E0,8.044720360E0
9.426421917E0,5.157075806E0,-6.339317322E0,-1.403930511E0,8.291766751E0
9.436429917E0,6.041137390E0,-5.795947266E0,-1.068029022E0,8.439729360E0
9.446437917E0,6.551725616E0,-5.055287476E0,-7.744894409E-1,8.311490475E0
9.456445917E0,6.689738617E0,-4.708907776E0,-4.797523499E-1,8.194911685E0
9.466453917E0,6.560706940E0,-5.402714996E0,1.267863464E-1,8.499898803E0
9.476461917E0,6.724616089E0,-6.157744904E0,4.171824646E-1,9.127558548E0
9.486469917E0,7.077432404E0,-6.406976624E0,4.448748779E-1,9.557055642E0
9.496477917E0,7.330256653E0,-6.365363159E0,3.879931641E-1,9.716020247E0
9.506485917E0,7.665858765E0,-6.324647827E0,3.379971313E-1,9.943882682E0
9.516493917E0,8.016878815E0,-6.277795258E0,4.346960449E-1,1.019166423E1
9.526501917E0,8.317304077E0,-6.305936737E0,6.093827820E-1,1.045532078E1
9.536509917E0,8.511450348E0,-6.207740936E0,6.125262451E-1,1.055253633E1
9.546517917E0,8.624465332E0,-6.028713226E0,3.712280273E-1,1.052922579E1
9.556525917E0,8.630752258E0,-5.848937073E0,-5.328918457E-2,1.042606298E1
9.566533917E0,8.785979462E0,-5.641019440E0,-4.050576782E-1,1.044885674E1
9.576541917E0,9.093739471E0,-5.482199707E0,-7.643106079E-1,1.064588098E1
9.586549917E0,9.412277069E0,-5.253175964E0,-1.178050232E0,1.084318310E1
9.596557917E0,9.849966888E0,-4.995262299E0,-1.833088074E0,1.119529834E1
9.606565917E0,1.019739441E1,-4.505480804E0,-2.488275604E0,1.142268469E1
9.616574917E0,1.041459274E1,-4.137994995E0,-3.337609406E0,1.169300565E1
9.626582917E0,1.052551208E1,-3.751349030E0,-3.932322693E0,1.184576658E1
9.636590917E0,1.061203217E1,-3.511547699E0,-4.236639862E0,1.195388268E1
9.646598917E0,1.100077377E1,-3.813769226E0,-4.491859131E0,1.247952955E1
9.656607167E0,1.170161636E1,-4.591252441E0,-4.642895050E0,1.340014548E1
9.666615167E0,1.257549911E1,-5.711223450E0,-4.427043915E0,1.450379154E1
9.676623167E0,1.322215439E1,-7.127428436E0,-3.524271240E0,1.542874235E1
9.686631167E0,1.329460373E1,-8.381670227E0,-2.021396484E0,1.584565959E1
9.696639167E0,1.284628601E1,-9.168134766E0,-7.080276489E-1,1.579819808E1
9.706647167E0,1.203572159E1,-9.546398163E0,-3.318598938E-1,1.536562537E1
9.716655167E0,1.094269455E1,-9.199569397E0,-4.861889648E-1,1.430423087E1
9.726663167E0,9.904303894E0,-8.506809998E0,-7.896080017E-1,1.307992862E1
9.736671167E0,9.036857758E0,-7.909701691E0,-9.135502625E-1,1.204419998E1
9.746679167E0,8.237819366E0,-7.555238800E0,-9.147477722E-1,1.121517119E1
9.756687167E0,7.367229767E0,-7.277416534E0,-7.831713867E-1,1.038509621E1
9.766695167E0,6.505322113E0,-7.064409485E0,-4.269122314E-1,9.612874243E0
9.776703167E0,6.024521942E0,-6.878945160E0,-6.825805664E-2,9.144364948E0
9.786711167E0,5.718558197E0,-6.891519012E0,4.320016479E-1,8.965576812E0
9.796719167E0,5.460644531E0,-7.003037109E0,8.285270691E-1,8.918947503E0
9.806727167E0,5.302124176E0,-7.176226959E0,1.116378479E0,8.992055108E0
9.816735167E0,5.108127594E0,-7.528145142E0,1.284329224E0,9.187787456E0
9.826743167E0,4.909790039E0,-7.887547760E0,1.353186035E0,9.388852983E0
9.836752167E0,4.690346375E0,-8.238867188E0,1.224004669E0,9.559103989E0
9.846760167E0,4.479884033E0,-8.621172180E0,9.415420532E-1,9.761171659E0
9.856768167E0,4.377796326E0,-8.906927948E0,9.175918579E-1,9.966967491E0
9.866776167E0,4.494403839E0,-8.884474640E0,1.121318207E0,1.001952644E1
9.876784167E0,4.642296295E0,-8.575517120E0,1.217867432E0,9.827187281E0
9.886792167E0,4.934488678E0,-8.042924652E0,1.124910736E0,9.502801673E0
9.896800167E0,5.136269073E0,-7.633825378E0,1.015488281E0,9.256768678E0
9.906808167E0,5.124443665E0,-7.507937164E0,1.042881317E0,9.149680037E0
9.916816167E0,5.120851135E0,-7.449259186E0,1.137634277E0,9.110916009E0
9.926824167E0,5.151687012E0,-7.381899261E0,1.147214355E0,9.074602832E0
9.936832167E0,5.287304993E0,-7.308851166E0,1.096619568E0,9.087214861E0
9.946840167E0,5.473517761E0,-7.201374664E0,1.006207581E0,9.101189342E0
9.956848167E0,5.698649597E0,-7.253017273E0,7.906558228E-1,9.257753692E0
9.966856167E0,5.867199097E0,-7.394922180E0,5.472619629E-1,9.455601247E0
9.976864167E0,6.050567780E0,-7.516319733E0,3.058140564E-1,9.653908795E0
9.986872167E0,6.241869965E0,-7.598349152E0,1.815724182E-1,9.835081038E0
9.996880167E0,6.396348724E0,-7.631580048E0,1.423539734E-1,9.958642261E0
1.000688817E1,6.513405304E0,-7.528594208E0,1.612147522E-1,9.956413491E0
1.001689617E1,6.527026978E0,-7.327861633E0,2.152523804E-1,9.815598345E0
1.002690417E1,6.449488220E0,-7.077881470E0,2.432441711E-1,9.578698875E0
1.003691317E1,6.340814209E0,-6.841073914E0,2.818638611E-1,9.331970015E0
1.004692117E1,6.227200470E0,-6.614594879E0,2.773731995E-1,9.088884805E0
1.005692917E1,6.127058716E0,-6.460864563E0,2.174977112E-1,8.906790930E0
1.006693717E1,6.019133148E0,-6.312523041E0,1.216969299E-1,8.723114188E0
1.007694517E1,5.896687775E0,-6.119424591E0,9.430389404E-3,8.498139383E0
1.008695317E1,5.856122131E0,-5.952371979E0,-1.526824951E-2,8.350157586E0
1.009696117E1,5.855074310E0,-5.919440460E0,1.586700439E-2,8.325978759E0
1.010696917E1,5.896987152E0,-5.950126648E0,7.304809570E-2,8.377577253E0
1.011697717E1,5.990243225E0,-6.060896301E0,-1.541793823E-2,8.521602876E0
1.012698517E1,6.065836029E0,-6.108647003E0,-1.429527283E-1,8.609899559E0
1.013699317E1,6.101611633E0,-6.173162842E0,-2.439926147E-1,8.683152445E0
1.014700117E1,6.138285370E0,-6.281238098E0,-3.489244080E-1,8.789439548E0
1.015700917E1,6.236181793E0,-6.392756195E0,-3.603007507E-1,8.937959038E0
1.016701717E1,6.379583588E0,-6.589447174E0,-3.820056152E-1,9.179642101E0
1.017702517E1,6.584357758E0,-6.782695313E0,-3.832031250E-1,9.460738207E0
1.018703317E1,6.859635315E0,-6.933880920E0,-3.653901672E-1,9.760471876E0
1.019704117E1,7.151977386E0,-7.012317810E0,-3.115022278E-1,1.002099871E1
1.020704917E1,7.479795685E0,-7.064110107E0,-2.615061951E-1,1.029161701E1
1.021705717E1,7.749684448E0,-7.135511627E0,-1.930984497E-1,1.053614836E1
1.022706517E1,7.917186127E0,-7.153025208E0,-1.877096558E-1,1.067159035E1
1.023707417E1,8.056246948E0,-7.095544739E0,-2.085163879E-1,1.073747406E1
1.024708217E1,8.221353607E0,-7.050488434E0,-2.201921082E-1,1.083275251E1
1.025709017E1,8.500074005E0,-7.188351746E0,-2.686912537E-1,1.113534256E1
1.026709817E1,8.994346161E0,-7.552394714E0,-3.384461975E-1,1.174953083E1
1.027710617E1,9.721533966E0,-8.132438507E0,-3.384461975E-1,1.267909005E1
1.028711417E1,1.062056442E1,-8.869356079E0,-4.129911804E-1,1.384313648E1
1.029712217E1,1.144504990E1,-9.556277618E0,-3.987707520E-1,1.491544928E1
1.030713017E1,1.199440750E1,-1.012060410E1,-2.733316040E-1,1.569608705E1
1.031713817E1,1.203617065E1,-1.028331573E1,-2.198927307E-1,1.583238262E1
1.032714617E1,1.150552414E1,-9.900411987E0,-4.846920776E-1,1.518651275E1
1.033715417E1,1.029394363E1,-8.831484833E0,-9.294172668E-1,1.359500704E1
1.034716217E1,9.075327759E0,-7.618108063E0,-1.067280579E0,1.189690011E1
1.035717017E1,8.436007233E0,-6.856491852E0,-1.031654663E0,1.091979899E1
1.036717817E1,7.807314606E0,-6.633904724E0,-8.213420105E-1,1.027800836E1
1.037718617E1,7.168592834E0,-6.399941254E0,-3.492237854E-1,9.616128562E0
1.038719417E1,6.644981689E0,-6.283483429E0,-1.098715210E-1,9.146038345E0
1.039720217E1,5.978567505E0,-5.912105713E0,8.187973022E-2,8.408505673E0
1.040721017E1,5.564827881E0,-5.807323608E0,4.296066284E-2,8.043268145E0
1.041721817E1,5.328170013E0,-5.825435944E0,-1.672023010E-1,7.896395142E0
1.042722617E1,5.262756042E0,-6.114185486E0,-3.523672485E-1,8.074901114E0
1.043723517E1,5.268893280E0,-6.431226196E0,-4.650828552E-1,8.326956758E0
1.044724317E1,5.117707672E0,-6.752607880E0,-3.591032410E-1,8.480424525E0
1.045725117E1,5.041665802E0,-7.257807312E0,-4.146377563E-2,8.837187351E0
1.046725917E1,5.096451874E0,-7.819289703E0,1.664538574E-1,9.335031872E0
1.047726717E1,5.261259155E0,-8.768016815E0,4.200265503E-1,1.023403093E1
1.048727517E1,5.276826782E0,-9.734107819E0,1.032702484E0,1.112044200E1
1.049728317E1,4.939578094E0,-1.030067963E1,1.335073700E0,1.150155878E1
1.050729117E1,4.541406097E0,-1.039438477E1,1.276246033E0,1.141474520E1
1.051729917E1,4.126768341E0,-1.016940262E1,1.043779449E0,1.102435677E1
1.052730717E1,3.776197357E0,-9.753267975E0,7.505392456E-1,1.048566697E1
1.053731517E1,3.589984589E0,-9.409882050E0,4.490661621E-1,1.008144483E1
1.054732317E1,3.756288757E0,-9.156908112E0,3.493734741E-1,9.903571740E0
1.055733117E1,3.956123199E0,-9.029523010E0,7.783813477E-3,9.858156884E0
1.056733917E1,4.052522736E0,-8.552914124E0,-5.902226257E-1,9.482807774E0
1.057734717E1,4.380490723E0,-7.702682190E0,-1.219663696E0,8.944696273E0
1.058735517E1,4.815186768E0,-7.160210266E0,-1.474433899E0,8.753775756E0
1.059736317E1,5.204227753E0,-6.995852051E0,-1.395098877E0,8.830188746E0
1.060737117E1,5.618117065E0,-6.802454224E0,-1.199755096E0,8.903709065E0
1.061737917E1,5.989494781E0,-6.444099426E0,-1.002615051E0,8.854699436E0
1.062738817E1,6.290369110E0,-6.111790466E0,-9.063652039E-1,8.817268519E0
1.063739617E1,6.508016510E0,-5.821993103E0,-9.970765686E-1,8.788859099E0
1.064740417E1,6.534511414E0,-5.444777527E0,-1.124162292E0,8.579579395E0
1.065741237E1,6.371051331E0,-5.038522339E0,-1.228645020E0,8.215021059E0
1.066742038E1,6.185736694E0,-4.883145447E0,-1.257984009E0,7.980662358E0
1.067742838E1,5.956114197E0,-5.119803314E0,-1.134790192E0,7.935706086E0
1.068743638E1,5.836512909E0,-5.383704529E0,-1.031355286E0,8.007050088E0
1.069744438E1,5.896538086E0,-5.393284607E0,-1.002016296E0,8.053615145E0
1.070745237E1,6.092031555E0,-5.491779785E0,-8.571176147E-1,8.246644426E0
1.071746038E1,6.459367676E0,-5.514083405E0,-6.123765564E-1,8.514901738E0
1.072746838E1,6.827901306E0,-5.495971069E0,-2.673440552E-1,8.769116665E0
1.073747638E1,7.050338745E0,-5.475014648E0,1.930984497E-1,8.928625249E0
1.074748438E1,7.178322601E0,-5.497617645E0,5.150788879E-1,9.056347023E0
1.075749237E1,7.402256927E0,-5.577102356E0,6.671626282E-1,9.292071044E0
1.076750038E1,7.612270203E0,-5.751340027E0,7.800279236E-1,9.572513427E0
1.077750838E1,7.798482971E0,-5.918841705E0,7.432044983E-1,9.818420276E0
1.078751638E1,8.012537842E0,-6.004313965E0,5.556445312E-1,1.002802521E1
1.079752438E1,8.206534424E0,-5.934109955E0,3.424877930E-1,1.013302354E1
1.080753338E1,8.395740967E0,-5.887556763E0,1.639091492E-1,1.025566464E1
1.081754138E1,8.434510345E0,-5.818400574E0,8.187973022E-2,1.024702173E1
1.082754938E1,8.416398010E0,-5.546116791E0,-3.038681030E-2,1.007948859E1
1.083755737E1,8.587192841E0,-5.270390167E0,-1.034349060E-1,1.007609012E1
1.084756538E1,8.865913239E0,-5.054688721E0,-1.472937012E-1,1.020666405E1
1.085757338E1,9.009913788E0,-4.937632141E0,-2.538720703E-1,1.027731525E1
1.086758138E1,9.154213715E0,-4.996310120E0,-3.680845642E-1,1.043543146E1
1.087758938E1,9.315428467E0,-5.326373749E0,-5.251080322E-1,1.074351913E1
1.088759738E1,9.320517883E0,-5.691314850E0,-6.339317322E-1,1.093914932E1
1.089760538E1,9.063202972E0,-5.996829529E0,-6.795867920E-1,1.088877636E1
1.090761338E1,8.621172180E0,-6.250102844E0,-6.984475708E-1,1.067128035E1
1.091762137E1,8.053402863E0,-6.427933044E0,-7.797285461E-1,1.033361493E1
1.092762938E1,7.365134125E0,-6.522236938E0,-9.891430664E-1,9.887526453E0
1.093763738E1,6.708898773E0,-6.569089508E0,-1.083297272E0,9.451761354E0
1.094764538E1,6.363117828E0,-6.541247406E0,-1.090332642E0,9.190539233E0
1.095765338E1,6.303092651E0,-6.559359741E0,-1.049317932E0,9.157250969E0
1.096766137E1,6.347101135E0,-6.695726166E0,-9.089099121E-1,9.270628832E0
1.097766938E1,6.402935028E0,-6.917864227E0,-6.143225098E-1,9.446259291E0
1.098767838E1,6.440506897E0,-7.162006531E0,-2.381547546E-1,9.634894100E0
1.099768637E1,6.505022736E0,-7.427853699E0,4.715194702E-2,9.873730534E0
1.100769438E1,6.754254456E0,-7.760911102E0,2.408491516E-1,1.029124398E1
1.101770238E1,6.993007965E0,-8.122708740E0,4.192781067E-1,1.072643239E1
1.102771038E1,7.084767151E0,-8.369545441E0,6.471043396E-1,1.098462382E1
1.103771838E1,7.023694153E0,-8.497529297E0,9.276210022E-1,1.106348790E1
1.104772637E1,6.858138428E0,-8.571774902E0,1.147962799E0,1.103753624E1
1.105773438E1,6.690187683E0,-8.613388367E0,1.308129730E0,1.098454704E1
1.106774238E1,6.515800323E0,-8.590186615E0,1.342707825E0,1.086507360E1
1.107775038E1,6.315367126E0,-8.481512604E0,1.319805450E0,1.065653811E1
1.108775838E1,6.136489105E0,-8.479866028E0,1.270707550E0,1.054416066E1
1.109776637E1,5.999374237E0,-8.533304901E0,1.240021362E0,1.050463882E1
1.110777438E1,5.891598358E0,-8.496032410E0,1.330882416E0,1.042423839E1
1.111778238E1,5.782026215E0,-8.452622681E0,1.534908142E0,1.035541406E1
1.112779037E1,5.846092987E0,-8.498277740E0,1.766626282E0,1.046510851E1
1.113779838E1,6.086493073E0,-8.603359222E0,2.078727264E0,1.074170819E1
1.114780638E1,6.368356934E0,-8.629704437E0,2.514022064E0,1.101581026E1
1.115781438E1,6.682852936E0,-8.673413544E0,2.869832153E0,1.131921209E1
1.116782338E1,6.996899872E0,-8.668473816E0,2.993475037E0,1.153516098E1
1.117783138E1,7.229815521E0,-8.559799805E0,2.936593323E0,1.158291783E1
1.118783938E1,7.440427551E0,-8.488547974E0,2.847827911E0,1.164154340E1
1.119784738E1,7.565267944E0,-8.275540924E0,2.690355377E0,1.153064910E1
1.120785537E1,7.590116272E0,-7.898325348E0,2.412084045E0,1.121657514E1
1.121786338E1,7.537575531E0,-7.526049500E0,2.183509369E0,1.087309428E1
1.122787138E1,7.392976227E0,-7.162904663E0,2.101629639E0,1.050619569E1
1.123787938E1,7.197183380E0,-6.777007141E0,2.135608978E0,1.011375796E1
1.124788738E1,6.979386292E0,-6.513255615E0,2.213896179E0,9.799778977E0
1.125789537E1,6.896758118E0,-6.357579346E0,2.261048126E0,9.648648936E0
1.126790338E1,6.943161621E0,-6.363866272E0,2.286195831E0,9.691902734E0
1.127791138E1,7.035220184E0,-6.466552734E0,2.233655090E0,9.813248309E0
1.128791938E1,7.226222992E0,-6.500831451E0,2.178719330E0,9.961221120E0
1.129792738E1,7.426207123E0,-6.524781647E0,2.182012482E0,1.012336437E1
1.130793537E1,7.555388489E0,-6.530769196E0,2.175575867E0,1.022095748E1
1.131794338E1,7.633526001E0,-6.519392853E0,2.132764893E0,1.026264530E1
1.132795138E1,7.591613159E0,-6.467301178E0,2.078876953E0,1.018726186E1
1.133795938E1,7.473209381E0,-6.378685455E0,2.006427612E0,1.002807251E1
1.134796838E1,7.342381439E0,-6.306385803E0,1.966011658E0,9.876551470E0
1.135797638E1,7.277865601E0,-6.294111328E0,1.962119751E0,9.820034574E0
1.136798438E1,7.322323151E0,-6.371799774E0,1.980082397E0,9.906410802E0
1.137799238E1,7.431895294E0,-6.501879272E0,1.991458740E0,1.007340110E1
1.138800038E1,7.555538177E0,-6.659202118E0,1.990261230E0,1.026607373E1
1.139800838E1,7.642357635E0,-6.772516479E0,2.001787262E0,1.040575619E1
1.140801638E1,7.667804718E0,-6.847360840E0,2.092648315E0,1.049098454E1
1.141802437E1,7.660769348E0,-6.890171814E0,2.175725555E0,1.053069971E1
1.142803238E1,7.605384521E0,-6.913972321E0,2.208507385E0,1.051296304E1
1.143804038E1,7.507188721E0,-6.914720764E0,2.217039642E0,1.044444879E1
1.144804838E1,7.397017822E0,-6.926396484E0,2.183958435E0,1.036631638E1
1.145805638E1,7.279811554E0,-6.915020142E0,2.152972870E0,1.026880967E1
1.146806437E1,7.129673767E0,-6.906936951E0,2.137554932E0,1.015416994E1
1.147807238E1,7.026089172E0,-6.941065979E0,2.172432404E0,1.011255598E1
1.148808038E1,6.954088898E0,-6.971901855E0,2.230511627E0,1.009663063E1
1.149808838E1,6.930887146E0,-7.029382324E0,2.284249878E0,1.013248291E1
1.150809638E1,6.926546173E0,-7.085216217E0,2.279459839E0,1.016726452E1
1.151810538E1,6.883735199E0,-7.129524078E0,2.238445129E0,1.016004727E1
1.152811338E1,6.817872162E0,-7.168293457E0,2.178569641E0,1.012985575E1
1.153812138E1,6.727160797E0,-7.182962952E0,2.086660767E0,1.006001006E1
1.154812937E1,6.656358032E0,-7.191794586E0,2.002086639E0,1.000186795E1
1.155813738E1,6.580465851E0,-7.201374664E0,1.941013641E0,9.946349171E0
1.156814538E1,6.485263824E0,-7.211403809E0,1.880240021E0,9.879184901E0
1.157815338E1,6.398743744E0,-7.209308167E0,1.874851227E0,9.820036296E0
1.158816138E1,6.283633118E0,-7.222031708E0,1.854044495E0,9.750859866E0
1.159816937E1,6.220464478E0,-7.245832214E0,1.828148346E0,9.723085373E0
1.160817738E1,6.191424866E0,-7.265591125E0,1.797312469E0,9.713541495E0
1.161818538E1,6.193670197E0,-7.298073578E0,1.757345581E0,9.731993215E0
1.162819337E1,6.264323273E0,-7.303013306E0,1.716480560E0,9.773538506E0
1.163820138E1,6.338568878E0,-7.350464630E0,1.623224487E0,9.840815182E0
1.164820938E1,6.481820984E0,-7.444020081E0,1.775607605E0,1.002896907E1
1.165821312E1,6.569837952E0,-7.622898102E0,1.858086090E0,1.023346618E1
1.166822113E1,6.528823242E0,-7.606731720E0,1.731000366E0,1.017272150E1
1.167823013E1,6.568041687E0,-7.660619659E0,1.636397095E0,1.022262494E1
1.168823812E1,6.672524414E0,-7.764054565E0,1.503922577E0,1.034721743E1
1.169824613E1,6.783443756E0,-7.832162933E0,1.413360901E0,1.045731679E1
1.170825413E1,6.925049286E0,-7.917635193E0,1.308878174E0,1.059992532E1
1.171826213E1,7.003785553E0,-7.946375427E0,1.245260468E0,1.066529738E1
1.172827013E1,7.019353180E0,-7.982151031E0,1.301244049E0,1.070884168E1
1.173827812E1,7.062313843E0,-7.879614258E0,1.403032379E0,1.067394480E1
1.174828613E1,7.054829407E0,-7.684120789E0,1.349294128E0,1.051840886E1
1.175829413E1,6.988217926E0,-7.486381989E0,1.146615601E0,1.030513621E1
1.176830213E1,6.903194733E0,-7.301815796E0,8.957373047E-1,1.008825836E1
1.177831013E1,6.840026093E0,-7.098837891E0,6.915618896E-1,9.882191771E0
1.178831812E1,6.762637024E0,-6.914870453E0,5.059478760E-1,9.685281418E0
1.179832613E1,6.679110718E0,-6.789431305E0,3.665876770E-1,9.531069402E0
1.180833413E1,6.575077057E0,-6.620283051E0,2.841091919E-1,9.334907820E0
1.181834213E1,6.578669586E0,-6.602470093E0,2.415975952E-1,9.323619160E0
1.182835013E1,6.682703247E0,-6.703360291E0,1.854643250E-1,9.467204386E0
1.183835813E1,6.935527496E0,-7.002737732E0,1.058299255E-1,9.856524609E0
1.184836713E1,7.255262604E0,-7.335795135E0,2.604583740E-2,1.031762589E1
1.185837513E1,7.642956390E0,-7.705975342E0,-6.586303711E-3,1.085342719E1
1.186838313E1,7.889942780E0,-8.349038086E0,-8.711883545E-2,1.148761175E1
1.187839113E1,7.867938538E0,-8.781638489E0,-9.550140381E-2,1.179113022E1
1.188839913E1,7.614515533E0,-8.732989655E0,-2.694396973E-2,1.158648700E1
1.189840712E1,7.151827698E0,-8.412805481E0,1.197509766E-2,1.104192369E1
1.190841513E1,6.676266632E0,-8.101752319E0,2.544708252E-3,1.049813951E1
1.191842313E1,6.293961639E0,-7.867190094E0,-3.562591553E-2,1.007511302E1
1.192843113E1,5.986950073E0,-7.877069550E0,-6.691085815E-2,9.894254541E0
1.193843913E1,5.728886719E0,-7.994275818E0,-1.505868530E-1,9.836222104E0
1.194844712E1,5.602848816E0,-8.132887573E0,-2.228865051E-1,9.878534989E0
1.195845513E1,5.524561615E0,-8.333769836E0,-2.877017212E-1,1.000276327E1
1.196846313E1,5.377267914E0,-8.554710388E0,-3.138972473E-1,1.010923397E1
1.197847113E1,5.159620514E0,-8.750802612E0,-2.610571289E-1,1.016200674E1
1.198847913E1,4.956792297E0,-8.994645538E0,-5.658233643E-2,1.027018207E1
1.199848712E1,4.756359100E0,-9.234596558E0,2.664459229E-1,1.039094408E1
1.200849613E1,4.559817810E0,-9.440717926E0,6.113287354E-1,1.050203867E1
1.201850413E1,4.345912628E0,-9.579629059E0,9.777667236E-1,1.056467118E1
1.202851212E1,4.137545929E0,-9.667945404E0,1.226100311E0,1.058734039E1
1.203852013E1,3.976331177E0,-9.651329956E0,1.210233307E0,1.050828455E1
1.204852813E1,3.827989655E0,-9.508377228E0,1.048719177E0,1.030352145E1
1.205853613E1,3.682492218E0,-9.218729553E0,6.957531738E-1,9.951371563E0
1.206854413E1,3.559897156E0,-8.939709778E0,3.210823059E-1,9.627791674E0
1.207855212E1,3.536545715E0,-8.757239227E0,4.715194702E-2,9.444501987E0
1.208856013E1,3.559597778E0,-8.678203583E0,-1.356179810E-1,9.380849962E0
1.209856813E1,3.690126343E0,-8.707243195E0,-6.367758179E-1,9.478322632E0
1.210857612E1,3.881727905E0,-8.573271790E0,-1.086440735E0,9.473603020E0
1.211858413E1,4.251309357E0,-8.061635742E0,-1.485510864E0,9.234194313E0
1.212859213E1,4.625381470E0,-7.496261444E0,-1.710792389E0,8.973009527E0
1.213860013E1,4.869224396E0,-7.360643463E0,-1.814376984E0,9.010015663E0
1.214860813E1,5.095254364E0,-7.551945648E0,-2.054028625E0,9.338765106E0
1.215861612E1,5.309009857E0,-7.819289703E0,-2.320624237E0,9.732017981E0
1.216862513E1,5.481002197E0,-7.893834686E0,-2.587369537E0,9.952310901E0
1.217863313E1,5.757177887E0,-7.696994019E0,-2.962040405E0,1.005795693E1
1.218864112E1,6.148913269E0,-7.042854309E0,-3.304378510E0,9.916140809E0
1.219864913E1,6.748266907E0,-6.050418091E0,-3.563190308E0,9.738736596E0
1.220865713E1,7.441924438E0,-5.152285767E0,-3.950285339E0,9.875881846E0
1.221866513E1,7.925419006E0,-4.613256683E0,-4.547543335E0,1.023594422E1
1.222867313E1,7.623646545E0,-4.509522400E0,-4.876708832E0,1.011128419E1
1.223868112E1,7.148235168E0,-4.602778473E0,-5.254822540E0,9.994798428E0
1.224868913E1,6.810238037E0,-4.679568787E0,-5.663323059E0,1.001753134E1
1.225869713E1,6.431076508E0,-4.767585754E0,-5.949827271E0,9.974420460E0
1.226870513E1,5.984255676E0,-5.052742767E0,-5.983357544E0,9.856068840E0
1.227871313E1,5.717061310E0,-5.573509827E0,-5.503455505E0,9.697258598E0
1.228872112E1,5.672454071E0,-6.036497040E0,-4.302353210E0,9.334145641E0
1.229872913E1,5.779481506E0,-6.413862305E0,-3.321742401E0,9.250622072E0
1.230873713E1,5.704936523E0,-6.561904449E0,-2.597997437E0,9.074936993E0
1.231874612E1,5.552254028E0,-6.576424255E0,-2.084565125E0,8.855636202E0
1.232875413E1,5.450166321E0,-6.509214020E0,-1.894011383E0,8.698359569E0
1.233876213E1,5.383255463E0,-6.475084991E0,-1.905387726E0,8.633462075E0
1.234877013E1,5.450914764E0,-6.630312195E0,-1.950294342E0,8.802111087E0
1.235877813E1,5.757177887E0,-6.848558350E0,-1.936522980E0,9.154123112E0
1.236878613E1,6.212680664E0,-6.769822083E0,-1.905687103E0,9.384004231E0
1.237879413E1,6.584058380E0,-6.521937561E0,-1.936972046E0,9.467700619E0
1.238880213E1,6.772815857E0,-6.365213470E0,-1.944755859E0,9.495738650E0
1.239881012E1,6.991511078E0,-6.360124054E0,-1.854194183E0,9.631741338E0
1.240881813E1,7.246880035E0,-6.475384369E0,-1.627266083E0,9.853723554E0
1.241882613E1,7.590715027E0,-6.588099976E0,-1.444196777E0,1.015419717E1
1.242883413E1,8.078550568E0,-6.663992157E0,-1.219813385E0,1.054323079E1
1.243884213E1,8.533454590E0,-6.815177765E0,-8.440946960E-1,1.095349219E1
1.244885012E1,9.041797485E0,-7.185956726E0,-3.517684937E-1,1.155490445E1
1.245885813E1,9.841734009E0,-7.690557404E0,9.071136475E-2,1.249050159E1
1.246886713E1,1.044482986E1,-7.965086517E0,6.065386963E-1,1.314933319E1
1.247887512E1,1.089644073E1,-8.143216095E0,8.523275757E-1,1.362977811E1
1.248888313E1,1.143771515E1,-8.391549683E0,8.535250854E-1,1.421154246E1
1.249889113E1,1.201461548E1,-8.607251129E0,3.472778320E-1,1.478365175E1
1.250889913E1,1.247760269E1,-8.547974396E0,-2.588117981E-1,1.512697652E1
1.251890713E1,1.268073029E1,-8.446335754E0,-6.721023560E-1,1.525100750E1
1.252891512E1,1.263163239E1,-8.172405396E0,-1.015338593E0,1.507903376E1
1.253892313E1,1.206955124E1,-7.641459503E0,-1.270408173E0,1.434154480E1
1.254893113E1,1.125584335E1,-7.369924164E0,-1.583556976E0,1.354686106E1
1.255893913E1,1.055230637E1,-7.320377197E0,-2.114053802E0,1.301569497E1
1.256894713E1,9.742340698E0,-7.130721588E0,-2.582878876E0,1.234632155E1
1.257895512E1,8.886869659E0,-6.678661652E0,-2.592309265E0,1.141494814E1
1.258896313E1,8.075407104E0,-6.189628601E0,-2.107018433E0,1.039053554E1
1.259897113E1,7.428602142E0,-5.677842865E0,-1.492246857E0,9.468306610E0
1.260897912E1,6.915768585E0,-5.371280365E0,-1.111289062E0,8.826860782E0
1.261898813E1,6.430777130E0,-5.270390167E0,-9.454339600E-1,8.368139123E0
1.262899613E1,5.892047424E0,-5.258714447E0,-8.147557068E-1,7.939403463E0
1.263900412E1,5.417085114E0,-5.328170013E0,-5.977070618E-1,7.621775420E0
1.264901213E1,4.997058563E0,-5.536985779E0,-3.186872864E-1,7.465277449E0
1.265902063E1,4.706662445E0,-5.750292206E0,-2.769241333E-2,7.430968893E0
1.266902863E1,4.604574738E0,-6.080056458E0,2.585124207E-1,7.631253089E0
1.267903663E1,4.569846954E0,-6.484814758E0,4.793032837E-1,7.947707548E0
1.268904462E1,4.616699524E0,-6.977889404E0,5.249583435E-1,8.383342788E0
1.269905263E1,4.622836761E0,-7.402256927E0,4.511618042E-1,8.738854291E0
1.270906063E1,4.582121429E0,-7.633226624E0,4.619393921E-1,8.914896157E0
1.271906863E1,4.565955048E0,-7.780520325E0,5.222639465E-1,9.036437442E0
1.272907663E1,4.575385437E0,-7.835605774E0,6.565347290E-1,9.097357176E0
1.273908463E1,4.628973999E0,-7.684120789E0,6.551875305E-1,8.994575214E0
1.274909263E1,4.604724426E0,-7.723189545E0,9.066645813E-1,9.037321752E0
1.275910063E1,4.776267700E0,-7.655829620E0,1.140478363E0,9.095336784E0
1.276910963E1,4.955295410E0,-7.664062500E0,1.143023071E0,9.197788231E0
1.277911763E1,5.146298218E0,-7.752528534E0,9.873468018E-1,9.357400158E0
1.278912563E1,5.253774719E0,-7.703131256E0,7.976911926E-1,9.358241886E0
1.279913362E1,5.333708496E0,-7.551795959E0,7.518864441E-1,9.275958266E0
1.280914163E1,5.561085663E0,-7.426955566E0,7.638615417E-1,9.309609400E0
1.281914963E1,5.736670532E0,-7.232210541E0,6.957531738E-1,9.257339282E0
1.282915763E1,5.923931122E0,-7.097341003E0,5.327421570E-1,9.260076860E0
1.283916563E1,6.128705292E0,-7.008575592E0,3.100053406E-1,9.315431482E0
1.284917362E1,6.251300354E0,-7.000043335E0,1.859133911E-1,9.386901864E0
1.285918163E1,6.361620941E0,-7.018754425E0,2.179467773E-1,9.475264401E0
1.286918963E1,6.454877014E0,-7.002887421E0,2.393522644E-1,9.526970085E0
1.287919763E1,6.538253632E0,-6.896907806E0,2.158511353E-1,9.505929179E0
1.288920563E1,6.596183167E0,-6.763535156E0,1.670526123E-1,9.448965380E0
1.289921362E1,6.586453400E0,-6.784641266E0,9.325607300E-2,9.456290086E0
1.290922263E1,6.617738342E0,-6.672374725E0,4.999603271E-2,9.397741476E0
1.291923063E1,6.681655426E0,-6.644083557E0,-1.721420288E-2,9.422773577E0
1.292923862E1,6.697971497E0,-6.630611572E0,-5.897735596E-2,9.425036356E0
1.293924663E1,6.641239471E0,-6.671775970E0,-4.894821167E-2,9.413875517E0
1.294925463E1,6.651717682E0,-6.746770020E0,-1.026864624E-1,9.474956376E0
1.295926263E1,6.672674103E0,-6.729406128E0,-1.483415222E-1,9.477947654E0
1.296927063E1,6.681356049E0,-6.696175232E0,-1.760339355E-1,9.460986700E0
1.297927863E1,6.664441223E0,-6.641688538E0,-1.824705505E-1,9.410637542E0
1.298928663E1,6.645730133E0,-6.596482544E0,-2.011816406E-1,9.365884102E0
1.299929463E1,6.689588928E0,-6.624174957E0,-1.486408997E-1,9.415539709E0
1.300930262E1,6.814429321E0,-6.749913483E0,-1.701960754E-1,9.593057161E0
1.301931063E1,7.010970612E0,-6.934629364E0,-2.031275940E-1,9.863267925E0
1.302931863E1,7.238946533E0,-7.144043884E0,-2.782713318E-1,1.017433756E1
1.303932663E1,7.511829071E0,-7.321425018E0,-3.373983765E-1,1.049498347E1
1.304933463E1,7.876171417E0,-7.503596191E0,-3.276686096E-1,1.088326232E1
1.305934363E1,8.364006958E0,-7.739804993E0,-3.216810608E-1,1.140020493E1
1.306935163E1,8.962163086E0,-8.126450958E0,-3.677851868E-1,1.210350521E1
1.307935963E1,9.683812408E0,-8.630153503E0,-3.951782227E-1,1.297736252E1
1.308936762E1,1.051503387E1,-9.291328583E0,-4.311035156E-1,1.403853890E1
1.309937563E1,1.143591888E1,-9.986033936E0,-5.102888489E-1,1.519083636E1
1.310938363E1,1.225995529E1,-1.063388672E1,-5.989045715E-1,1.624021974E1
1.311939163E1,1.256921219E1,-1.085737198E1,-6.926097107E-1,1.662369783E1
1.312939963E1,1.186492676E1,-1.009545639E1,-7.970924377E-1,1.559904109E1
1.313940762E1,1.047371979E1,-8.627908173E0,-1.197958832E0,1.362258092E1
1.314941563E1,9.140592041E0,-7.338190155E0,-1.349743195E0,1.179920609E1
1.315942363E1,8.199199677E0,-6.518644409E0,-1.410067749E0,1.056919540E1
1.316943163E1,7.605085144E0,-6.247408447E0,-1.260079651E0,9.922461040E0
1.317943963E1,7.141648865E0,-6.174659729E0,-1.103205872E0,9.505084664E0
1.318944863E1,6.703210602E0,-6.274053040E0,-8.587641907E-1,9.221401729E0
1.319945663E1,6.345604248E0,-6.264622650E0,-7.680528259E-1,8.949977395E0
1.320946463E1,5.884113922E0,-6.138435059E0,-7.581733704E-1,8.536861746E0
1.321947262E1,5.335504761E0,-5.998027039E0,-7.277865601E-1,8.060621110E0
1.322948063E1,4.877756653E0,-5.992189178E0,-6.566844177E-1,7.754358487E0
1.323948863E1,4.546196136E0,-6.095923462E0,-5.662724304E-1,7.625539104E0
1.324949662E1,4.390220490E0,-6.325995026E0,-5.225633240E-1,7.717857309E0
1.325950463E1,4.530029755E0,-7.052733765E0,-5.833369446E-1,8.402529686E0
1.326951263E1,4.577630768E0,-7.741002502E0,-4.062551880E-1,9.002381155E0
1.327952063E1,4.582271118E0,-8.305029602E0,-2.381547546E-1,9.488279242E0
1.328952863E1,4.614903259E0,-8.762777710E0,-1.486408997E-1,9.904832124E0
1.329953662E1,4.661606140E0,-9.259744263E0,1.029858398E-1,1.036745107E1
1.330954463E1,4.403692474E0,-9.407337341E0,4.827461243E-1,1.039824731E1
1.331955263E1,4.139491882E0,-9.407636719E0,7.210505676E-1,1.030334584E1
1.332956162E1,3.896996155E0,-9.173224182E0,6.851252747E-1,9.990196073E0
1.333956963E1,3.590733032E0,-8.607251129E0,4.328997803E-1,9.336248600E0
1.334957763E1,3.397634583E0,-7.960446167E0,3.472778320E-2,8.655277578E0
1.335958563E1,3.328328705E0,-7.418722687E0,-1.929487610E-1,8.133415488E0
1.336959363E1,3.538042603E0,-7.121590576E0,-4.423301697E-1,7.964323811E0
1.337960162E1,4.030219116E0,-7.008425903E0,-7.122189331E-1,8.115907563E0
1.338960963E1,4.492308197E0,-6.822662201E0,-9.153465271E-1,8.219939885E0
1.339961763E1,4.664001160E0,-6.524482269E0,-1.027762756E0,8.085670781E0
1.340962563E1,4.469854889E0,-6.287525024E0,-1.083896027E0,7.790212080E0
1.341963363E1,4.353696442E0,-6.112089844E0,-1.390608215E0,7.631913664E0
1.342964162E1,4.432881775E0,-5.862259369E0,-1.947450256E0,7.603228804E0
1.343964963E1,4.494254150E0,-5.635331268E0,-2.372865601E0,7.588528845E0
1.344965763E1,4.546345825E0,-5.458997955E0,-2.573298798E0,7.555910649E0
1.345966563E1,4.569397888E0,-5.369035034E0,-2.535128174E0,7.492183201E0
1.346967463E1,4.717140656E0,-5.329367523E0,-2.229463806E0,7.458155471E0
1.347968263E1,4.945266266E0,-5.326523438E0,-1.844314728E0,7.498600348E0
1.348969063E1,5.217550049E0,-5.381159821E0,-1.485959930E0,7.641190119E0
1.349969863E1,5.764063568E0,-5.520520020E0,-9.939331055E-1,8.042914467E0
1.350970663E1,6.290967865E0,-5.703140259E0,-4.318519592E-1,8.502269203E0
1.351971463E1,6.649172974E0,-5.925128632E0,7.484436035E-3,8.906105016E0
1.352972263E1,7.018305359E0,-6.093229065E0,2.154020691E-1,9.296797761E0
1.353973062E1,7.429200897E0,-6.254294128E0,2.646496582E-1,9.714898891E0
1.354973863E1,7.881111145E0,-6.365662537E0,2.423460388E-1,1.013372113E1
1.355974663E1,8.285420380E0,-6.428382111E0,1.808239746E-1,1.048832612E1
1.356975463E1,8.586594086E0,-6.360872498E0,1.676513672E-1,1.068730106E1
1.357976263E1,8.819360046E0,-6.221063232E0,1.245410156E-1,1.079343550E1
1.358977062E1,9.028175812E0,-6.086343384E0,-5.733078003E-2,1.088828825E1
1.359977963E1,9.255253601E0,-5.853427734E0,-2.429447937E-1,1.095360021E1
1.360978763E1,9.492659912E0,-5.791306915E0,-4.168830872E-1,1.112760619E1
1.361979562E1,9.731862488E0,-5.739364929E0,-7.204518127E-1,1.132115313E1
1.362980363E1,9.979148254E0,-5.547613678E0,-1.058598633E0,1.146647498E1
1.363981163E1,1.002390518E1,-5.269641724E0,-1.241069183E0,1.139245591E1
1.364981963E1,1.018931122E1,-5.218597870E0,-1.634600830E0,1.156407137E1
1.365983104E1,1.044078827E1,-5.137167206E0,-2.160756683E0,1.183509257E1
1.366983904E1,1.087653214E1,-5.159470825E0,-2.849624176E0,1.237091138E1
1.367984704E1,1.164009430E1,-5.362748108E0,-3.620670776E0,1.331766194E1
1.368985504E1,1.254451355E1,-5.620362396E0,-4.228257294E0,1.438163598E1
1.369986304E1,1.346030914E1,-6.187682648E0,-4.449347534E0,1.546816189E1
1.370987104E1,1.409588745E1,-7.097790070E0,-4.017944641E0,1.628547040E1
1.371987904E1,1.367137024E1,-8.121810608E0,-2.943029938E0,1.617193857E1
1.372988704E1,1.259914993E1,-8.615334320E0,-1.942510529E0,1.538622474E1
1.373989604E1,1.137768997E1,-8.508157196E0,-1.428928528E0,1.427873961E1
1.374990404E1,1.013377670E1,-7.944130096E0,-1.560055847E0,1.297059781E1
1.375991204E1,9.013356628E0,-7.268135834E0,-1.941013641E0,1.174026960E1
1.376992004E1,7.950417023E0,-6.835086365E0,-2.145488434E0,1.070189969E1
1.377992804E1,7.039860535E0,-6.467600555E0,-1.840722198E0,9.735386562E0
1.378993604E1,6.260730743E0,-6.205645294E0,-1.401385803E0,8.925842544E0
1.379994404E1,5.682632904E0,-5.983357544E0,-8.737330627E-1,8.297969251E0
1.380995204E1,5.441634064E0,-5.918392639E0,-3.426374817E-1,8.047120799E0
1.381996004E1,5.397326202E0,-6.050867157E0,-1.302291870E-2,8.108285459E0
1.382996804E1,5.307063904E0,-6.403384094E0,1.555265808E-1,8.318199544E0
1.383997604E1,5.193899231E0,-7.007976837E0,3.372486877E-1,8.729379431E0
1.384998404E1,5.137167206E0,-7.676037598E0,5.774990845E-1,9.254487846E0
1.385999204E1,5.126838684E0,-8.257278900E0,7.987390137E-1,9.752185075E0
1.387000104E1,5.073699188E0,-8.676107941E0,9.639953613E-1,1.009685889E1
1.388000904E1,5.018464050E0,-9.016350403E0,1.111289062E0,1.037856056E1
1.389001704E1,5.027145996E0,-9.239536285E0,1.274599457E0,1.059555715E1
1.390002504E1,5.132227478E0,-9.220974884E0,1.352587280E0,1.063934345E1
1.391003304E1,5.059927826E0,-9.007668457E0,1.272204437E0,1.040958524E1
1.392004104E1,4.973557434E0,-8.504864044E0,1.085841980E0,9.912014869E0
1.393004904E1,4.977299652E0,-7.978408813E0,8.903485107E-1,9.445699524E0
1.394005704E1,4.968168640E0,-7.662565613E0,7.289840698E-1,9.161278796E0
1.395006504E1,4.929099884E0,-7.251969452E0,6.017486572E-1,8.789151725E0
1.396007304E1,5.015170898E0,-7.023544464E0,4.240681458E-1,8.640714656E0
1.397008104E1,5.135370941E0,-6.910828857E0,2.908451843E-1,8.614881376E0
1.398008904E1,5.250780945E0,-6.882088623E0,1.299298096E-1,8.657408741E0
1.399009704E1,5.409900055E0,-6.868466949E0,3.532653809E-2,8.743231943E0
1.400010604E1,5.530698853E0,-6.836882629E0,4.415817261E-2,8.793949274E0
1.401011404E1,5.685926056E0,-6.898255005E0,9.714797974E-2,8.940084729E0
1.402012204E1,5.795049133E0,-6.896758118E0,1.757345581E-1,9.009925062E0
1.403013004E1,5.921685791E0,-6.873706055E0,2.659968567E-1,9.076615661E0
1.404013804E1,5.993536377E0,-6.831493835E0,3.573069763E-1,9.095023617E0
1.405014604E1,6.001320190E0,-6.742129669E0,3.824546814E-1,9.034291787E0
1.406015404E1,5.990692291E0,-6.715335388E0,3.641926575E-1,9.006484319E0
1.407016204E1,5.920039215E0,-6.615792389E0,3.013233948E-1,8.882925702E0
1.408017004E1,5.882167969E0,-6.433172150E0,1.544787598E-1,8.718340875E0
1.409017804E1,5.867049408E0,-6.279142456E0,-7.334747314E-3,8.593599510E0
1.410018604E1,5.855523376E0,-6.194119263E0,-7.020401001E-2,8.524036371E0
1.411019404E1,5.862109680E0,-6.143674164E0,-1.384620667E-1,8.492834266E0
1.412020204E1,5.894741821E0,-6.128705292E0,-2.408491516E-1,8.506880627E0
1.413021104E1,5.942342834E0,-6.142776031E0,-3.004252625E-1,8.551923238E0
1.414021904E1,6.093378754E0,-6.274951172E0,-4.052073669E-1,8.756053326E0
1.415022704E1,6.226751404E0,-6.422244873E0,-4.680766296E-1,8.957497306E0
1.416023504E1,6.411467285E0,-6.628366241E0,-4.769082642E-1,9.234153631E0
1.417024304E1,6.733298035E0,-6.899003448E0,-4.564009094E-1,9.651002683E0
1.418025104E1,7.122788086E0,-7.153623962E0,-4.520599365E-1,1.010508803E1
1.419025904E1,7.527247009E0,-7.354356537E0,-4.152365112E-1,1.053178185E1
1.420026704E1,7.922874298E0,-7.516469421E0,-4.174818420E-1,1.092902287E1
1.421027504E1,8.350235596E0,-7.684569855E0,-4.909790039E-1,1.135870189E1
1.422028304E1,8.668174438E0,-7.875273285E0,-5.960604858E-1,1.172657092E1
1.423029104E1,8.855285339E0,-8.011789398E0,-7.949967957E-1,1.196816058E1
1.424029904E1,9.035510559E0,-8.165819092E0,-9.490264893E-1,1.221563358E1
1.425030704E1,9.402397614E0,-8.430768127E0,-1.003213806E0,1.266843992E1
1.426031604E1,1.003917343E1,-8.917406158E0,-9.888436890E-1,1.346413561E1
1.427032404E1,1.089554260E1,-9.684860229E0,-9.460327148E-1,1.460836555E1
1.428033204E1,1.173050629E1,-1.050081345E1,-9.358538818E-1,1.577173685E1
1.429034004E1,1.229617996E1,-1.113714020E1,-8.666976929E-1,1.661273904E1
1.430034804E1,1.218391342E1,-1.132814301E1,-6.474037170E-1,1.664913517E1
1.431035604E1,1.108654541E1,-1.045830185E1,-5.348377991E-1,1.525036453E1
1.432036404E1,9.455686798E0,-8.850345612E0,-6.866221619E-1,1.296958289E1
1.433037204E1,8.138575745E0,-7.422614594E0,-8.849597168E-1,1.105055547E1
1.434038004E1,7.344028015E0,-6.577621765E0,-9.710307312E-1,9.906702592E0
1.435038804E1,6.845115509E0,-6.252497864E0,-8.734336853E-1,9.311939770E0
1.436039604E1,6.421197052E0,-6.133345642E0,-7.840695190E-1,8.914284343E0
1.437040404E1,5.833070068E0,-5.955964508E0,-7.426057434E-1,8.369568862E0
1.438041304E1,5.258265381E0,-5.753735046E0,-7.723937988E-1,7.832714343E0
1.439042104E1,4.873565369E0,-5.732179871E0,-8.665480042E-1,7.573666940E0
1.440042904E1,4.564458160E0,-5.839955750E0,-9.460327148E-1,7.472237908E0
1.441043704E1,4.296814728E0,-6.012995911E0,-9.529183960E-1,7.451630029E0
1.442044504E1,4.199217682E0,-6.581214294E0,-9.029223633E-1,7.858821764E0
1.443045304E1,4.437222748E0,-7.627538452E0,-7.885601807E-1,8.859464753E0
1.444046104E1,4.637955322E0,-8.533903656E0,-5.005590820E-1,9.725672243E0
1.445046904E1,4.730612640E0,-9.188642120E0,-2.674937439E-1,1.033834575E1
1.446047704E1,4.866679688E0,-9.776619415E0,-1.746867371E-1,1.092233372E1
1.447048504E1,4.979245605E0,-1.027643005E1,-1.302291870E-2,1.141919748E1
1.448049304E1,4.774920502E0,-1.027972321E1,2.950364685E-1,1.133841354E1
1.449050104E1,4.386777649E0,-9.830058289E0,2.297721863E-1,1.076692432E1
1.450050904E1,4.067341919E0,-9.158554688E0,-2.691403198E-1,1.002471101E1
1.451051804E1,4.048481140E0,-8.466843109E0,-5.412744141E-1,9.400564332E0
1.452052604E1,4.175866241E0,-7.770491180E0,-7.116201782E-1,8.850129679E0
1.453053404E1,4.268523560E0,-6.970105591E0,-1.066981201E0,8.242640002E0
1.454054204E1,4.389621735E0,-6.270909576E0,-1.396446075E0,7.780947727E0
1.455055004E1,4.619094543E0,-5.970783691E0,-1.647324371E0,7.726575559E0
1.456055804E1,4.719835052E0,-6.117778015E0,-1.832489319E0,7.941162879E0
1.457056604E1,4.856650543E0,-6.379134521E0,-1.970053253E0,8.255999126E0
1.458057404E1,4.933291168E0,-6.395300903E0,-2.042801971E0,8.331282932E0
1.459058204E1,4.862937469E0,-6.126160583E0,-2.063459015E0,8.089243935E0
1.460059004E1,4.772824860E0,-5.741161194E0,-2.105072479E0,7.757068979E0
1.461059804E1,4.761598206E0,-5.385500793E0,-2.174378357E0,7.510283450E0
1.462060604E1,4.762795715E0,-5.124293976E0,-2.224374390E0,7.341011729E0
1.463061504E1,4.692442017E0,-4.983736267E0,-2.186652832E0,7.185964783E0
1.464062304E1,4.696633301E0,-5.048401794E0,-2.069296875E0,7.199077343E0
1.465063104E1,4.745431824E0,-5.206922150E0,-1.912123718E0,7.299820448E0
1.466063538E1,4.843777313E0,-5.402265930E0,-1.632954254E0,7.437284144E0
1.467064338E1,4.993016968E0,-5.590574341E0,-1.301992493E0,7.607885669E0
1.468065137E1,5.210664368E0,-5.697003021E0,-8.449928284E-1,7.766651753E0
1.469065938E1,5.425467682E0,-5.698200531E0,-3.266207886E-1,7.874761584E0
1.470066738E1,5.671256561E0,-5.658982086E0,3.293151855E-2,8.011760963E0
1.471067538E1,5.944139099E0,-5.616171112E0,2.556683350E-1,8.181658382E0
1.472068338E1,6.257587280E0,-5.602998505E0,3.351530457E-1,8.406147654E0
1.473069137E1,6.574328613E0,-5.650300140E0,3.098556519E-1,8.674312590E0
1.474069938E1,6.919510803E0,-5.688021698E0,1.746867371E-1,8.959003072E0
1.475070838E1,7.307803345E0,-5.767506409E0,1.856140137E-2,9.309589917E0
1.476071637E1,7.730823669E0,-5.943091278E0,-7.694000244E-2,9.751506976E0
1.477072438E1,8.116122437E0,-6.115083618E0,-1.121168518E-1,1.016259127E1
1.478073238E1,8.448581085E0,-6.247707825E0,-5.373825073E-2,1.050786673E1
1.479074038E1,8.771459656E0,-6.374494171E0,3.308120728E-2,1.084314414E1
1.480074838E1,9.088500366E0,-6.447392578E0,6.346801758E-2,1.114332707E1
1.481075637E1,9.448202362E0,-6.483617249E0,8.637039185E-2,1.145920069E1
1.482076438E1,9.856403503E0,-6.516848145E0,1.050814819E-1,1.181647333E1
1.483077238E1,1.018302429E1,-6.589297485E0,9.160949707E-2,1.212935354E1
1.484078037E1,1.052581146E1,-6.652765503E0,7.484436035E-3,1.245198987E1
1.485078838E1,1.100167191E1,-6.801107025E0,-1.981878662E-1,1.293565305E1
1.486079638E1,1.165102158E1,-7.131020966E0,-6.686595154E-1,1.367643482E1
1.487080438E1,1.262534546E1,-7.643854523E0,-1.285227356E0,1.481484625E1
1.488081338E1,1.386222336E1,-8.354277191E0,-1.825603638E0,1.628766443E1
1.489082138E1,1.495046036E1,-9.037755890E0,-2.536924438E0,1.765313802E1
1.490082938E1,1.518128036E1,-9.353748779E0,-3.836372223E0,1.823956254E1
1.491083738E1,1.393377457E1,-8.935069427E0,-4.727319489E0,1.721432801E1
1.492084537E1,1.177481415E1,-7.879614258E0,-4.774770813E0,1.495102021E1
1.493085338E1,9.904752960E0,-7.114704895E0,-3.954326935E0,1.282029089E1
1.494086138E1,8.647068329E0,-6.512058105E0,-3.343896332E0,1.132962198E1
1.495086938E1,7.995922394E0,-6.127807159E0,-3.001707916E0,1.051166238E1
1.496087738E1,7.641459503E0,-5.983956299E0,-2.651436310E0,1.006129966E1
1.497088537E1,7.425159302E0,-5.837560730E0,-1.944007416E0,9.643094460E0
1.498089338E1,7.135062561E0,-5.444478149E0,-9.803114319E-1,9.028425697E0
1.499090238E1,6.624474335E0,-5.121599579E0,-4.656816101E-1,8.386375965E0
1.500091037E1,6.314319305E0,-4.914280701E0,-2.686912537E-1,8.005809021E0
1.501091838E1,6.091283112E0,-4.839436340E0,-2.719844055E-1,7.784462059E0
1.502092638E1,5.882167969E0,-4.852159882E0,-3.297642517E-1,7.632306335E0
1.503093438E1,5.678740997E0,-5.107977905E0,-2.718347168E-1,7.642868029E0
1.504094238E1,5.635181580E0,-5.477110291E0,-1.594184875E-1,7.859988729E0
1.505095037E1,5.728437653E0,-5.913153534E0,1.077758789E-1,8.233589636E0
1.506095838E1,5.784121857E0,-6.381529541E0,4.083508301E-1,8.622455296E0
1.507096638E1,5.716163177E0,-6.811585236E0,7.120692444E-1,8.920720683E0
1.508097438E1,5.587281189E0,-7.176526337E0,9.771679688E-1,9.147409392E0
1.509098238E1,5.433850250E0,-7.490273895E0,1.198108521E0,9.330937552E0
1.510099038E1,5.412594452E0,-7.787406006E0,1.437311096E0,9.591961957E0
1.511099937E1,5.478457489E0,-8.064928894E0,1.606159973E0,9.881109471E0
1.512100738E1,5.467679901E0,-8.331674194E0,1.616488495E0,1.009580871E1
1.513101538E1,5.392985229E0,-8.500373383E0,1.528172150E0,1.018213865E1
1.514102338E1,5.323379974E0,-8.579558716E0,1.358425140E0,1.018786145E1
1.515103138E1,5.331912231E0,-8.390352173E0,1.147663422E0,1.000721884E1
1.516103937E1,5.313650208E0,-8.245303802E0,1.025966492E0,9.862683234E0
1.517104738E1,5.270689545E0,-8.168812866E0,9.285191345E-1,9.765849666E0
1.518105538E1,5.272785187E0,-8.056246948E0,7.932005310E-1,9.660980571E0
1.519106338E1,5.291496277E0,-7.867190094E0,7.450007629E-1,9.510396362E0
1.520107138E1,5.351371765E0,-7.705226898E0,7.418572998E-1,9.410528868E0
1.521107937E1,5.418881378E0,-7.510032806E0,7.761360168E-1,9.293398477E0
1.522108738E1,5.501808929E0,-7.341632996E0,8.384065247E-1,9.212621887E0
1.523109538E1,5.589077454E0,-7.180418243E0,9.148974609E-1,9.145120573E0
1.524110437E1,5.601351929E0,-7.089706879E0,9.267228699E-1,9.082835589E0
1.525111238E1,5.571264496E0,-7.001839600E0,7.991880798E-1,8.983509751E0
1.526112038E1,5.590424652E0,-6.878346405E0,6.110293579E-1,8.884697740E0
1.527112838E1,5.626050568E0,-6.734345856E0,4.010160828E-1,8.784342491E0
1.528113638E1,5.643264771E0,-6.580465851E0,2.802172852E-1,8.673378224E0
1.529114437E1,5.589676208E0,-6.425837402E0,2.742297363E-1,8.521212847E0
1.530115238E1,5.590724030E0,-6.325995026E0,2.353106689E-1,8.445695907E0
1.531116038E1,5.631139984E0,-6.255940704E0,1.422042847E-1,8.418239345E0
1.532116838E1,5.664819946E0,-6.267915802E0,2.245330811E-2,8.448518076E0
1.533117638E1,5.772745514E0,-6.342161407E0,-1.113684082E-1,8.576712949E0
1.534118438E1,5.901328125E0,-6.518345032E0,-1.742376709E-1,8.794592336E0
1.535119338E1,6.063441010E0,-6.734046478E0,-1.613644409E-1,9.063042388E0
1.536120138E1,6.267466736E0,-6.914571075E0,-1.107696533E-1,9.332990001E0
1.537120938E1,6.514303436E0,-7.080725555E0,-6.376739502E-2,9.621688518E0
1.538121738E1,6.824608154E0,-7.264692993E0,1.781295776E-2,9.967515139E0
1.539122538E1,7.147187347E0,-7.399113464E0,5.852828979E-2,1.028749691E1
1.540123337E1,7.478149109E0,-7.502099304E0,5.673202515E-2,1.059280070E1
1.541124138E1,7.813451843E0,-7.645950165E0,-6.735992432E-3,1.093209170E1
1.542124938E1,8.078999634E0,-7.754474487E0,-1.348695374E-1,1.119912048E1
1.543125738E1,8.362959137E0,-7.852819977E0,-2.502795410E-1,1.147468984E1
1.544126538E1,8.732839966E0,-7.959697723E0,-3.525169373E-1,1.182131760E1
1.545127337E1,9.332043915E0,-8.364456024E0,-4.055067444E-1,1.253856467E1
1.546128138E1,1.019305344E1,-9.062005463E0,-4.242178345E-1,1.364544767E1
1.547129038E1,1.125434647E1,-9.988129578E0,-4.308041382E-1,1.505352580E1
1.548129837E1,1.214798813E1,-1.085662354E1,-4.340972900E-1,1.629810819E1
1.549130638E1,1.248269211E1,-1.120509888E1,-3.713777161E-1,1.677825273E1
1.550131438E1,1.205682770E1,-1.074570419E1,-4.239184570E-1,1.615601930E1
1.551132238E1,1.061622345E1,-9.404942322E0,-6.230044556E-1,1.419666422E1
1.552133038E1,9.095984802E0,-7.815697174E0,-9.424401855E-1,1.202955757E1
1.553133837E1,7.924071808E0,-6.724765778E0,-1.111289062E0,1.045219365E1
1.554134638E1,7.003486176E0,-6.021528168E0,-1.126257935E0,9.304626646E0
1.555135438E1,6.323450317E0,-5.595963135E0,-9.897418213E-1,8.501789000E0
1.556136238E1,5.877527618E0,-5.426066437E0,-7.788304138E-1,8.037045769E0
1.557137038E1,5.641618195E0,-5.481301575E0,-6.432124329E-1,7.892163521E0
1.558137837E1,5.574707336E0,-5.871689758E0,-6.652166748E-1,8.123830114E0
1.559138738E1,5.588329010E0,-6.438860321E0,-7.613168335E-1,8.559669776E0
1.560139538E1,5.525759125E0,-6.997947693E0,-8.628057861E-1,8.958220785E0
1.561140338E1,5.345533905E0,-7.457192688E0,-8.571176147E-1,9.215156326E0
1.562141138E1,5.165458374E0,-7.971223755E0,-7.484436035E-1,9.527986996E0
1.563141938E1,5.033582611E0,-8.549321594E0,-4.695735168E-1,9.932187720E0
1.564142737E1,4.904550934E0,-9.150621185E0,-1.297801208E-1,1.038293460E1
1.565143538E1,4.744833069E0,-9.535021820E0,1.278341675E-1,1.065112311E1
1.566144692E1,4.561015320E0,-9.654323730E0,4.093986511E-1,1.068533737E1
1.567145492E1,4.494104462E0,-9.743388519E0,6.267466736E-1,1.074818153E1
1.568146292E1,4.376000061E0,-9.619296570E0,7.333250427E-1,1.059330018E1
1.569147092E1,4.047133942E0,-9.040150909E0,4.716691589E-1,9.915951462E0
1.570147992E1,3.805236969E0,-7.977660370E0,1.676513672E-2,8.838731495E0
1.571148792E1,3.873195648E0,-7.065756683E0,-3.119512939E-1,8.063738317E0
1.572149592E1,4.093836823E0,-6.537654877E0,-5.677693176E-1,7.734519585E0
1.573150392E1,4.437372437E0,-5.973927155E0,-8.857081604E-1,7.494168315E0
1.574151192E1,4.835394745E0,-5.378914490E0,-1.209185486E0,7.333204822E0
1.575151992E1,5.056335297E0,-4.975653076E0,-1.430724792E0,7.236755046E0
1.576152792E1,5.090164948E0,-5.033133545E0,-1.680704956E0,7.353025338E0
1.577153592E1,5.173092499E0,-5.390440521E0,-2.058369598E0,7.749491623E0
1.578154392E1,5.134173431E0,-5.817053375E0,-2.571352844E0,8.173720221E0
1.579155192E1,4.807253265E0,-6.106850739E0,-3.022364960E0,8.338944768E0
1.580155992E1,4.487218781E0,-6.119574280E0,-3.096909943E0,8.196046177E0
1.581156792E1,4.302652588E0,-6.218219147E0,-3.024310913E0,8.144048450E0
1.582157692E1,4.282145233E0,-6.218817902E0,-2.818638611E0,8.059478116E0
1.583158492E1,4.221371613E0,-6.108347626E0,-2.143991547E0,7.728427315E0
1.584159292E1,4.186194763E0,-6.101012878E0,-1.456022186E0,7.540993658E0
1.585160092E1,4.414919128E0,-6.204298096E0,-9.021739197E-1,7.668033878E0
1.586160892E1,4.870870972E0,-6.322552185E0,-4.602928162E-1,7.994493082E0
1.587161692E1,5.329816589E0,-6.326743469E0,5.792953491E-2,8.272725284E0
1.588162492E1,5.834117889E0,-6.325995026E0,3.341052246E-1,8.612013174E0
1.589163292E1,6.360273743E0,-6.443949738E0,4.303550720E-1,9.064368472E0
1.590164092E1,6.837780762E0,-6.606511688E0,4.227209473E-1,9.517349181E0
1.591164892E1,7.200476532E0,-6.649921417E0,3.595523071E-1,9.808037266E0
1.592165692E1,7.517966309E0,-6.603517914E0,2.806663513E-1,1.001024674E1
1.593166592E1,7.794740753E0,-6.472540283E0,2.833607483E-1,1.013568224E1
1.594167392E1,7.993377686E0,-6.243217163E0,3.608995056E-1,1.014899482E1
1.595168192E1,8.173752594E0,-6.030210114E0,4.357438660E-1,1.016678603E1
1.596168992E1,8.446934509E0,-5.867348785E0,4.249662781E-1,1.029354559E1
1.597169792E1,8.775501251E0,-5.821993103E0,3.802093506E-1,1.053800669E1
1.598170592E1,9.044491882E0,-5.797893219E0,3.273692322E-1,1.074828218E1
1.599171392E1,9.256002045E0,-5.808072052E0,1.122665405E-1,1.092794027E1
1.600172192E1,9.410630493E0,-5.638025665E0,-9.684860229E-2,1.097071918E1
1.601172992E1,9.610764313E0,-5.662125549E0,-2.426454163E-1,1.115729955E1
1.602173792E1,9.861043854E0,-5.715863800E0,-5.065466309E-1,1.140911365E1
1.603174592E1,1.038240967E1,-5.892945557E0,-8.382568359E-1,1.196761933E1
1.604175492E1,1.114911530E1,-6.234834595E0,-1.458566895E0,1.285703510E1
1.605176292E1,1.228944397E1,-6.669830017E0,-2.603685608E0,1.422308842E1
1.606177092E1,1.376672195E1,-7.228468323E0,-3.661685486E0,1.597439602E1
1.607177892E1,1.488923767E1,-7.965834961E0,-4.244723053E0,1.741153637E1
1.608178692E1,1.465153198E1,-8.677455139E0,-3.969146118E0,1.748484309E1
1.609179492E1,1.328173050E1,-8.921298065E0,-3.221750336E0,1.632095584E1
1.610180292E1,1.149324966E1,-8.305927734E0,-2.464475098E0,1.439294483E1
1.611181092E1,9.876910858E0,-7.456144867E0,-2.213297424E0,1.257164070E1
1.612181892E1,8.992849274E0,-6.959777069E0,-2.494712219E0,1.164188232E1
1.613182692E1,8.408015442E0,-6.782845001E0,-2.862497406E0,1.117567006E1
1.614183492E1,7.873926086E0,-6.536307678E0,-2.679577789E0,1.057838207E1
1.615184392E1,7.312144318E0,-6.184090118E0,-1.936672668E0,9.770420981E0
1.616185192E1,6.915469208E0,-5.802234192E0,-1.052461395E0,9.088306276E0
1.617185992E1,6.680008850E0,-5.575006714E0,-2.631527710E-1,8.704738220E0
1.618186792E1,6.441105652E0,-5.502257996E0,2.685415649E-1,8.475541259E0
1.619187592E1,6.218219147E0,-5.583239594E0,2.836601257E-1,8.361774739E0
1.620188392E1,6.286028137E0,-5.786067810E0,5.748046875E-2,8.543771676E0
1.621189192E1,6.372997284E0,-6.173761597E0,-1.338217163E-1,8.874025856E0
1.622189992E1,6.327791290E0,-6.677913208E0,-3.008743286E-2,9.199802861E0
1.623190792E1,6.122268677E0,-7.063062286E0,1.419049072E-1,9.348216922E0
1.624191592E1,5.832920380E0,-7.489076385E0,4.309538269E-1,9.502365309E0
1.625192392E1,5.490432587E0,-7.813751221E0,7.644602966E-1,9.580394442E0
1.626193192E1,5.212760010E0,-7.960745544E0,1.087488556E0,9.577524101E0
1.627194092E1,4.961582336E0,-8.040529633E0,1.406475220E0,9.552255681E0
1.628194892E1,4.827610931E0,-8.053702240E0,1.651815033E0,9.533962449E0
1.629195692E1,4.817581787E0,-8.207432556E0,1.590891724E0,9.648936725E0
1.630196492E1,4.775369568E0,-8.328680420E0,1.346749420E0,9.694576115E0
1.631197292E1,4.621788940E0,-8.472531281E0,1.160237274E0,9.720641432E0
1.632198092E1,4.515360260E0,-8.477920074E0,1.021475830E0,9.659555887E0
1.633198892E1,4.510420532E0,-8.413553925E0,9.395960999E-1,9.592425337E0
1.634199692E1,4.651726685E0,-8.203690338E0,8.336164856E-1,9.467524109E0
1.635200492E1,4.785099335E0,-8.094866638E0,6.571334839E-1,9.426338947E0
1.636201292E1,4.780309296E0,-8.095914459E0,5.078938293E-1,9.415579857E0
1.637202092E1,4.816384277E0,-8.043972473E0,4.900808716E-1,9.388462596E0
1.638202992E1,4.977000275E0,-7.934999084E0,6.038442993E-1,9.386126472E0
1.639203792E1,5.176086273E0,-7.812553711E0,6.966513062E-1,9.397509651E0
1.640204592E1,5.400469666E0,-7.634573822E0,6.685098267E-1,9.375430414E0
1.641205392E1,5.530998230E0,-7.462431793E0,6.071374512E-1,9.308514681E0
1.642206192E1,5.629194031E0,-7.338938599E0,6.322851562E-1,9.270794449E0
1.643206992E1,5.767955475E0,-7.216942291E0,7.113208008E-1,9.266042504E0
1.644207792E1,5.809269562E0,-7.048692169E0,7.803273010E-1,9.167365207E0
1.645208592E1,5.820496216E0,-6.863676910E0,7.438032532E-1,9.030032127E0
1.646209392E1,5.805677032E0,-6.668482819E0,6.111790466E-1,8.862735962E0
1.647210192E1,5.802084503E0,-6.442303162E0,4.568499756E-1,8.681944857E0
1.648210992E1,5.839955750E0,-6.228248291E0,2.088157654E-1,8.540477970E0
1.649211892E1,5.890400848E0,-6.042185211E0,-0.000000000E0,8.438295105E0
1.650212692E1,5.933660889E0,-5.968688049E0,-1.555265808E-1,8.417704978E0
1.651213492E1,6.003715210E0,-6.036946106E0,-2.377056885E-1,8.517383319E0
1.652214292E1,6.050867157E0,-6.070027313E0,-2.486329651E-1,8.574382968E0
1.653215092E1,6.110592957E0,-6.092480621E0,-2.056723022E-1,8.631336368E0
1.654215892E1,6.294111328E0,-6.248306580E0,-1.992356873E-1,8.871125486E0
1.655216692E1,6.515051880E0,-6.444997559E0,-2.113604736E-1,9.166709757E0
1.656217492E1,6.732699280E0,-6.529871063E0,-2.932402039E-1,9.383733026E0
1.657218292E1,6.973548431E0,-6.594686279E0,-3.867956543E-1,9.605720989E0
1.658219092E1,7.206164703E0,-6.767277374E0,-4.228706360E-1,9.894628460E0
1.659219892E1,7.450157318E0,-7.019652557E0,-3.710783386E-1,1.024295198E1
1.660220792E1,7.721992035E0,-7.241491241E0,-3.342549133E-1,1.059150994E1
