"Time (s)","Acceleration x (m/s^2)","Acceleration y (m/s^2)","Acceleration z (m/s^2)","Absolute acceleration (m/s^2)"
5.765250000E-3,8.456664276E0,-9.219328308E0,2.552192688E-1,1.251304607E1
1.577325000E-2,8.168663177E0,-9.188193054E0,2.350112915E-1,1.229655155E1
2.578125000E-2,7.974067841E0,-9.184450836E0,2.890489197E-1,1.216648858E1
3.578925000E-2,7.779771881E0,-9.154662781E0,2.727328491E-1,1.201694988E1
4.579725000E-2,7.554340668E0,-9.092841339E0,2.615061951E-1,1.182439056E1
5.580525000E-2,7.370522919E0,-8.963959351E0,2.116598511E-1,1.160697959E1
6.581325000E-2,7.242089996E0,-8.870703278E0,1.437011719E-1,1.145241870E1
7.582125000E-2,7.154222717E0,-8.782237244E0,6.197113037E-2,1.132759613E1
8.582925000E-2,7.112010498E0,-8.654852142E0,-8.158035278E-2,1.120240217E1
9.583725000E-2,7.089706879E0,-8.538394318E0,-2.127076721E-1,1.110015161E1
1.058452500E-1,7.099286957E0,-8.416248322E0,-2.526745605E-1,1.101348971E1
1.158532500E-1,7.081473999E0,-8.288264465E0,-2.854563904E-1,1.090523210E1
1.258612500E-1,7.106621704E0,-8.170309753E0,-3.532653809E-1,1.083433569E1
1.358702500E-1,7.165449371E0,-8.084837494E0,-4.337979126E-1,1.081186583E1
1.458782500E-1,7.215744781E0,-7.984396362E0,-4.361929321E-1,1.077069275E1
1.558862500E-1,7.306755524E0,-7.893684998E0,-3.938310242E-1,1.076355155E1
1.658942500E-1,7.340884552E0,-7.782316589E0,-2.911445618E-1,1.070223354E1
1.759022500E-1,7.322173462E0,-7.627837830E0,-2.417472839E-1,1.057622692E1
1.859102500E-1,7.299121399E0,-7.540120239E0,-1.778302002E-1,1.049581869E1
1.959182500E-1,7.220834198E0,-7.451205139E0,4.191284180E-3,1.037597813E1
2.059262500E-1,7.050338745E0,-7.344177704E0,1.673519897E-1,1.018195606E1
2.159342500E-1,6.907086639E0,-7.262297974E0,2.989283752E-1,1.002687269E1
2.259422500E-1,6.772815857E0,-7.203470306E0,3.797602844E-1,9.894707523E0
2.359502500E-1,6.686744843E0,-7.259304199E0,4.490661621E-1,9.879864091E0
2.459582500E-1,6.587950287E0,-7.351512451E0,5.060975647E-1,9.884430133E0
2.559662500E-1,6.495891724E0,-7.391329651E0,5.661227417E-1,9.856412037E0
2.659742500E-1,6.419999542E0,-7.510032806E0,5.986051941E-1,9.898248080E0
2.759822500E-1,6.313421173E0,-7.661966858E0,5.975573730E-1,9.945958871E0
2.859912500E-1,6.165079651E0,-7.743547211E0,5.462141418E-1,9.913076233E0
2.959992500E-1,5.977369995E0,-7.742349701E0,4.891827393E-1,9.793478989E0
3.060072500E-1,5.845793610E0,-7.741451569E0,3.683839417E-1,9.707681600E0
3.160152500E-1,5.719905396E0,-7.807613983E0,2.713856506E-1,9.682448245E0
3.260232500E-1,5.544021149E0,-7.802973633E0,2.116598511E-1,9.574307698E0
3.360312500E-1,5.337750092E0,-7.694000244E0,6.825805664E-2,9.364500785E0
3.460395000E-1,5.072801056E0,-7.531587982E0,-1.143621826E-1,9.081365910E0
3.560475000E-1,4.788242798E0,-7.324269104E0,-2.086660767E-1,8.753041102E0
3.660555000E-1,4.555027771E0,-7.149881744E0,-3.341052246E-1,8.484144816E0
3.760635000E-1,4.413721619E0,-7.114106140E0,-6.233038330E-1,8.395233908E0
3.860715000E-1,4.396806793E0,-7.122488708E0,-7.545808411E-1,8.404233911E0
3.960795000E-1,4.467160492E0,-7.225025482E0,-8.298742676E-1,8.534940385E0
4.060875000E-1,4.571792908E0,-7.463180237E0,-1.004261627E0,8.809590856E0
4.160955000E-1,4.606071625E0,-7.616162109E0,-1.171314240E0,8.977404866E0
4.261035000E-1,4.575086060E0,-7.639812927E0,-1.120869141E0,8.975215967E0
4.361115000E-1,4.565805359E0,-7.635921021E0,-1.080602875E0,8.962230246E0
4.461195000E-1,4.532873840E0,-7.576644287E0,-1.031205597E0,8.889087067E0
4.561285000E-1,4.602329407E0,-7.486531677E0,-8.764274597E-1,8.831631651E0
4.661365000E-1,4.829856262E0,-7.417076111E0,-8.084687805E-1,8.887865397E0
4.761445000E-1,5.136718140E0,-7.404352570E0,-7.634124756E-1,9.043954269E0
4.861525000E-1,5.433550873E0,-7.392078094E0,-7.090754700E-1,9.201580389E0
4.961605000E-1,5.684728546E0,-7.376660156E0,-6.985972595E-1,9.339126931E0
5.061685000E-1,6.046226807E0,-7.379803619E0,-7.646099854E-1,9.570945015E0
5.161765000E-1,6.395899658E0,-7.372019806E0,-9.024732971E-1,9.801462468E0
5.261845000E-1,6.803651733E0,-7.424261169E0,-1.014440460E0,1.012118670E1
5.361925000E-1,7.378007355E0,-7.607480164E0,-1.125210114E0,1.065714994E1
5.462005000E-1,8.090974731E0,-7.848479004E0,-1.329535217E0,1.135033738E1
5.562085000E-1,8.846004639E0,-8.041278076E0,-1.615590363E0,1.206333633E1
5.662165000E-1,9.570647736E0,-8.122708740E0,-1.820813599E0,1.268428388E1
5.762245000E-1,1.024289978E1,-8.132737885E0,-2.032174072E0,1.323586615E1
5.862325000E-1,1.077294754E1,-7.958500214E0,-2.297422485E0,1.358941774E1
5.962405000E-1,1.103759720E1,-7.486232300E0,-2.431094513E0,1.355663847E1
6.062495000E-1,1.125240051E1,-7.145091705E0,-2.570754089E0,1.357488966E1
6.162575000E-1,1.112696136E1,-6.878945160E0,-2.581232300E0,1.333386350E1
6.262655000E-1,1.101200043E1,-6.609954529E0,-2.443219299E0,1.307382778E1
6.362735000E-1,1.086889801E1,-6.380332031E0,-2.340832214E0,1.281877827E1
6.462815000E-1,1.068403244E1,-6.340215454E0,-2.150428162E0,1.260837906E1
6.562895000E-1,1.057206528E1,-6.380182343E0,-1.902094574E0,1.249372862E1
6.662975000E-1,1.035920792E1,-6.827601929E0,-1.489552460E0,1.249592347E1
6.763055000E-1,1.011551468E1,-6.807543640E0,-1.349144440E0,1.226729303E1
6.863135000E-1,9.844129028E0,-6.978787537E0,-1.119821320E0,1.211876032E1
6.963215000E-1,9.518256683E0,-7.169041901E0,-7.499404907E-1,1.193963076E1
7.063295000E-1,9.212891693E0,-7.265591125E0,-4.743635559E-1,1.174270874E1
7.163375000E-1,8.973240051E0,-7.341183929E0,-3.817062378E-1,1.159990164E1
7.263455000E-1,8.709787903E0,-7.445816345E0,-2.628533936E-1,1.146166123E1
7.363535000E-1,8.487649841E0,-7.397466888E0,-1.303788757E-1,1.125964985E1
7.463615000E-1,8.231831818E0,-7.303312683E0,7.229965210E-2,1.100484704E1
7.563695000E-1,8.024812317E0,-7.057224426E0,1.302291870E-1,1.068732843E1
7.663785000E-1,7.875422974E0,-6.784790955E0,2.348616028E-1,1.039763604E1
7.763865000E-1,7.735164642E0,-6.544989624E0,3.737727356E-1,1.013949542E1
7.863945000E-1,7.681127014E0,-6.303541718E0,4.397854614E-1,9.946243595E0
7.964025000E-1,7.671546936E0,-6.114035797E0,3.873944092E-1,9.817542490E0
8.064105000E-1,7.750732269E0,-5.977669373E0,4.067042542E-1,9.796519289E0
8.164185000E-1,7.917036438E0,-5.783822479E0,4.343966675E-1,9.814314489E0
8.264265000E-1,8.110284576E0,-5.594466248E0,3.400927734E-1,9.858520761E0
8.364345000E-1,8.256530457E0,-5.505700836E0,1.896556091E-1,9.925674089E0
8.464425000E-1,8.488098907E0,-5.437143402E0,1.282832336E-1,1.008101225E1
8.564505000E-1,8.738378448E0,-5.312303009E0,4.191284180E-2,1.022651348E1
8.664585000E-1,8.964857483E0,-5.156327362E0,-1.225950623E-1,1.034269844E1
8.764665000E-1,9.186995544E0,-5.025499420E0,-2.996768188E-1,1.047598863E1
8.864745000E-1,9.363927612E0,-4.962929535E0,-2.649490356E-1,1.060113239E1
8.964825000E-1,9.618997192E0,-4.991969147E0,-1.971400452E-1,1.083899106E1
9.064905000E-1,9.847422180E0,-5.080734558E0,-2.040257263E-1,1.108274396E1
9.164995000E-1,1.003109024E1,-5.196294250E0,-3.802093506E-2,1.129715411E1
9.265075000E-1,1.013647110E1,-5.260361023E0,2.136058044E-1,1.142213079E1
9.365155000E-1,1.011940659E1,-5.235812073E0,3.808081055E-1,1.140004967E1
9.465235000E-1,1.000893631E1,-5.248984680E0,5.637277222E-1,1.131584885E1
9.565315000E-1,9.892478485E0,-5.456752625E0,8.767268372E-1,1.133163403E1
9.665395000E-1,1.003123993E1,-5.931116180E0,1.099763031E0,1.170527199E1
9.765475000E-1,1.051563263E1,-6.786886597E0,1.120719452E0,1.256568229E1
9.865555000E-1,1.135867950E1,-8.167615356E0,9.990225220E-1,1.402596117E1
9.965635000E-1,1.252969437E1,-9.840835876E0,9.294172668E-1,1.595929535E1
1.006571500E0,1.373588608E1,-1.118144806E1,7.120692444E-1,1.772586781E1
1.016579500E0,1.440155182E1,-1.142723694E1,5.405259705E-1,1.839235187E1
1.026587500E0,1.462877930E1,-1.083192490E1,6.568341064E-1,1.821436828E1
1.036595500E0,1.435904022E1,-9.755962372E0,7.527845764E-1,1.737606177E1
1.046603500E0,1.365101257E1,-8.651858368E0,8.059240723E-1,1.618191309E1
1.056611500E0,1.315928513E1,-7.791746979E0,1.172811127E0,1.533797874E1
1.066619500E0,1.287682251E1,-7.336393890E0,1.292861481E0,1.487638142E1
1.076628500E0,1.296678543E1,-7.417974243E0,1.010249176E0,1.497279098E1
1.086636500E0,1.322275314E1,-7.779622192E0,8.240364075E-1,1.536368309E1
1.096644500E0,1.327319824E1,-8.097411346E0,6.905140686E-1,1.556350448E1
1.106652500E0,1.300780014E1,-8.513545990E0,3.198847961E-1,1.554945839E1
1.116660500E0,1.259885056E1,-8.905580750E0,-4.221221924E-2,1.542861581E1
1.126668500E0,1.200503540E1,-9.171427917E0,-3.915856934E-1,1.511255453E1
1.136676500E0,1.140388550E1,-9.320966949E0,-6.469546509E-1,1.474271276E1
1.146684500E0,1.078342575E1,-9.289682007E0,-9.913883972E-1,1.426756159E1
1.156692500E0,1.010443771E1,-9.231602783E0,-1.334924011E0,1.375151532E1
1.166700500E0,9.446705475E0,-9.221124573E0,-1.357077942E0,1.327068360E1
1.176708500E0,8.936266937E0,-9.154363403E0,-1.223405914E0,1.285130181E1
1.186716500E0,8.603359222E0,-9.054221649E0,-1.140927429E0,1.254186728E1
1.196724500E0,8.511150970E0,-9.031768341E0,-9.096583557E-1,1.244347253E1
1.206732500E0,8.505911865E0,-9.007967834E0,-6.924600220E-1,1.240860677E1
1.216740500E0,8.437953186E0,-8.906628571E0,-6.122268677E-1,1.228421378E1
1.226749500E0,8.314909058E0,-8.824449463E0,-5.354365540E-1,1.213652806E1
1.236757500E0,8.131390686E0,-8.691825256E0,-4.788542175E-1,1.191203770E1
1.246765500E0,7.935298462E0,-8.522078247E0,-5.343887329E-1,1.165677274E1
1.256773500E0,7.713609467E0,-8.406817932E0,-6.218069458E-1,1.142632936E1
1.266781500E0,7.511529694E0,-8.324339447E0,-6.839277649E-1,1.123323029E1
1.276789500E0,7.327562256E0,-8.255782013E0,-7.653584290E-1,1.106511992E1
1.286797500E0,7.210954742E0,-8.289461975E0,-8.583151245E-1,1.102042436E1
1.296805500E0,7.207212524E0,-8.439450073E0,-9.059161377E-1,1.113503094E1
1.306813500E0,7.118746490E0,-8.479866028E0,-7.940986633E-1,1.110023748E1
1.316821500E0,7.028783569E0,-8.409512329E0,-6.791377258E-1,1.098111671E1
1.326829500E0,6.945856018E0,-8.295898590E0,-6.259982300E-1,1.083783756E1
1.336837500E0,6.838080139E0,-8.192014618E0,-5.715115356E-1,1.068620929E1
1.346845125E0,6.671925659E0,-8.097860413E0,-4.483177185E-1,1.050194858E1
1.356853125E0,6.512656860E0,-7.956254883E0,-3.802093506E-1,1.028888965E1
1.366862125E0,6.302942963E0,-7.810009003E0,-3.833528137E-1,1.004342023E1
1.376870125E0,6.037395172E0,-7.715106354E0,-3.296145630E-1,9.802124886E0
1.386878125E0,5.758076019E0,-7.635172577E0,-2.366578674E-1,9.565945153E0
1.396886125E0,5.565726013E0,-7.562723236E0,-1.321751404E-1,9.390929617E0
1.406894125E0,5.403014374E0,-7.482939148E0,-6.945556641E-2,9.229938607E0
1.416902125E0,5.287005615E0,-7.401508484E0,1.481918335E-2,9.095876858E0
1.426910125E0,5.255570984E0,-7.318431244E0,8.457412720E-2,9.010417028E0
1.436918125E0,5.255121918E0,-7.257957001E0,6.421646118E-2,8.960935774E0
1.446926125E0,5.243296509E0,-7.216343536E0,2.993774414E-3,8.920077425E0
1.456934125E0,5.258265381E0,-7.175029449E0,-6.601272583E-2,8.895772035E0
1.466942125E0,5.232518921E0,-7.081174622E0,-2.008822632E-1,8.806965537E0
1.476950125E0,5.145400085E0,-6.913373566E0,-3.348536682E-1,8.624500164E0
1.486958125E0,5.053491211E0,-6.709198151E0,-3.480262756E-1,8.406678032E0
1.496966125E0,4.928052063E0,-6.405030670E0,-3.008743286E-1,8.087066241E0
1.506974125E0,4.803960114E0,-6.035748596E0,-2.653981018E-1,7.718725934E0
1.516983125E0,4.716990967E0,-5.695356445E0,-2.448907471E-1,7.399125644E0
1.526991125E0,4.703968048E0,-5.483247528E0,-3.086581421E-1,7.231084891E0
1.536999125E0,4.843627625E0,-5.483995972E0,-4.246669006E-1,7.329071043E0
1.547007125E0,5.106780396E0,-5.773344269E0,-7.038363647E-1,7.739902821E0
1.557015125E0,5.501509552E0,-6.455775146E0,-1.077010345E0,8.550063823E0
1.567023125E0,5.955515442E0,-7.198231201E0,-1.249002686E0,9.425640791E0
1.577031125E0,6.163433075E0,-7.541467438E0,-1.331930237E0,9.830344681E0
1.587039125E0,6.170318756E0,-7.539671173E0,-1.357227631E0,9.836744471E0
1.597047125E0,6.137836304E0,-7.456893311E0,-1.258433075E0,9.739709756E0
1.607055125E0,6.026168518E0,-7.283853149E0,-1.105451202E0,9.517943374E0
1.617063125E0,5.992039490E0,-7.059170380E0,-9.291178894E-1,9.305895107E0
1.627071125E0,6.163283386E0,-6.833140411E0,-6.857240295E-1,9.227572131E0
1.637079125E0,6.387367401E0,-6.684200134E0,-5.273533630E-1,9.260404706E0
1.647087125E0,6.597979431E0,-6.700665894E0,-4.701722717E-1,9.415589092E0
1.657096125E0,6.902146912E0,-6.893015900E0,-4.793032837E-1,9.766423697E0
1.667104125E0,7.256160736E0,-7.165599060E0,-6.186634827E-1,1.021667377E1
1.677112125E0,7.575297089E0,-7.424111481E0,-7.771838379E-1,1.063515736E1
1.687120125E0,7.959697723E0,-7.690258026E0,-8.711883545E-1,1.110206402E1
1.697128125E0,8.414302368E0,-7.995024261E0,-9.919871521E-1,1.164924615E1
1.707136125E0,8.878337402E0,-8.227341156E0,-1.089434509E0,1.215322530E1
1.717144125E0,9.316625977E0,-8.314160614E0,-1.143621826E0,1.253924468E1
1.727152125E0,9.695039063E0,-8.334667969E0,-1.201551361E0,1.284150296E1
1.737160125E0,9.966574402E0,-8.170758820E0,-1.168320465E0,1.294059032E1
1.747168125E0,1.018467087E1,-7.864046631E0,-1.156195679E0,1.291927005E1
1.757176125E0,1.027957352E1,-7.560028839E0,-1.146016846E0,1.281159718E1
1.767184125E0,1.020592667E1,-7.214098206E0,-1.033600616E0,1.254083260E1
1.777192125E0,1.002764740E1,-6.898704071E0,-9.316625977E-1,1.220712191E1
1.787200125E0,9.797126770E0,-6.650220795E0,-8.842112732E-1,1.187396139E1
1.797209125E0,9.535620575E0,-6.590494995E0,-6.668632507E-1,1.161065849E1
1.807217125E0,9.270072784E0,-6.674620056E0,-5.086422729E-1,1.143431324E1
1.817225125E0,9.018446045E0,-6.792125702E0,-4.661306763E-1,1.129967338E1
1.827233125E0,8.749156036E0,-6.964866486E0,-3.354524231E-1,1.118792317E1
1.837241125E0,8.465795288E0,-7.138954468E0,-1.438508606E-1,1.107497421E1
1.847249125E0,8.259224854E0,-7.245083771E0,-5.358856201E-2,1.098676048E1
1.857257125E0,8.149053955E0,-7.384743347E0,-5.313949585E-2,1.099746964E1
1.867265125E0,8.034991150E0,-7.510481873E0,-1.347198486E-1,1.099938954E1
1.877273125E0,7.956703949E0,-7.547005920E0,-1.648072815E-1,1.096784380E1
1.887281125E0,8.014184418E0,-7.524552612E0,-1.305285645E-1,1.099377467E1
1.897289125E0,8.066725159E0,-7.448660431E0,-1.622625732E-1,1.098093467E1
1.907297125E0,8.114924927E0,-7.308402100E0,-1.657054138E-1,1.092209715E1
1.917305125E0,8.225395203E0,-7.167395325E0,-1.896556091E-1,1.091167500E1
1.927313125E0,8.351582794E0,-7.070696411E0,-2.716850281E-1,1.094611784E1
1.937322125E0,8.535550232E0,-6.953939209E0,-2.978805542E-1,1.101370152E1
1.947330125E0,8.724307709E0,-6.781348114E0,-3.923341370E-1,1.105686001E1
1.957338125E0,8.964109039E0,-6.676416321E0,-5.580395508E-1,1.119112121E1
1.967346125E0,9.182953949E0,-6.589746552E0,-6.300398254E-1,1.132026294E1
1.977354125E0,9.409283295E0,-6.471642151E0,-7.521858215E-1,1.144476071E1
1.987362125E0,9.627379761E0,-6.317762146E0,-8.846603394E-1,1.154916376E1
1.997370125E0,9.793534241E0,-6.148464203E0,-8.704399109E-1,1.159631798E1
2.007378125E0,9.966574402E0,-6.011648712E0,-8.201445007E-1,1.166812592E1
2.017386125E0,1.016925293E1,-5.912255402E0,-8.758287048E-1,1.179557311E1
2.027394125E0,1.039558228E1,-5.823340302E0,-9.201365662E-1,1.195098634E1
2.037402125E0,1.061008621E1,-5.666167145E0,-8.271798706E-1,1.205668305E1
2.047410125E0,1.078447357E1,-5.444178772E0,-6.298901367E-1,1.209713662E1
2.057418125E0,1.096544724E1,-5.317691803E0,-4.716691589E-1,1.219595634E1
2.067427125E0,1.117126923E1,-5.276677094E0,-4.031117249E-1,1.236135415E1
2.077435125E0,1.135793106E1,-5.190007324E0,-2.628533936E-1,1.249031088E1
2.087443125E0,1.147798141E1,-5.039270782E0,-6.346801758E-2,1.253564261E1
2.097451125E0,1.155028107E1,-4.929548950E0,9.071136475E-2,1.255856975E1
2.107459125E0,1.154743698E1,-4.860093384E0,2.320175171E-1,1.253066801E1
2.117467125E0,1.152468430E1,-4.890929260E0,3.914360046E-1,1.252568398E1
2.127475125E0,1.167407364E1,-5.186863861E0,5.260061646E-1,1.278531324E1
2.137483125E0,1.192420349E1,-5.770350494E0,5.300477600E-1,1.325762137E1
2.147491125E0,1.243628860E1,-6.719077606E0,4.772076416E-1,1.414337319E1
2.157499125E0,1.305106018E1,-7.867339783E0,2.615061951E-1,1.524118081E1
2.167507125E0,1.364727036E1,-8.767567749E0,4.131408691E-2,1.622097220E1
2.177515125E0,1.412432831E1,-9.441166992E0,7.394622803E-2,1.698934232E1
2.187523125E0,1.427177170E1,-9.682914276E0,1.748364258E-1,1.724740166E1
2.197532125E0,1.415845734E1,-9.362580414E0,1.848655701E-1,1.697509945E1
2.207540125E0,1.383692596E1,-9.079519043E0,2.435435486E-1,1.655166154E1
2.217548125E0,1.355596024E1,-8.996591492E0,3.763174438E-1,1.627403856E1
2.227556125E0,1.336031708E1,-9.019793243E0,4.454736328E-1,1.612616474E1
2.237564125E0,1.310090652E1,-8.954528961E0,4.158352661E-1,1.587420107E1
2.247572125E0,1.277443542E1,-8.906029816E0,3.453318787E-1,1.557635457E1
2.257580125E0,1.249436783E1,-9.160201263E0,2.835104370E-1,1.549512481E1
2.267588125E0,1.223241257E1,-9.552535400E0,2.231858826E-1,1.552200572E1
2.277596125E0,1.197315170E1,-9.934541016E0,7.080276489E-2,1.555816441E1
2.287604125E0,1.172451874E1,-1.038240967E1,-9.310638428E-2,1.566101654E1
2.297612125E0,1.140418488E1,-1.088671097E1,-2.903961182E-1,1.576896440E1
2.307620125E0,1.100331848E1,-1.141840530E1,-4.893324280E-1,1.586481779E1
2.317628125E0,1.049048492E1,-1.192210785E1,-7.110214233E-1,1.589630400E1
2.327637125E0,9.919123077E0,-1.230905319E1,-8.617579651E-1,1.583175353E1
2.337645125E0,9.302854614E0,-1.248119522E1,-8.419990540E-1,1.558949327E1
2.347653375E0,8.681047668E0,-1.253583160E1,-7.470964050E-1,1.526649323E1
2.357661375E0,8.129744110E0,-1.241114090E1,-5.635780334E-1,1.484745022E1
2.367669375E0,7.702532501E0,-1.213047455E1,-3.312611389E-1,1.437314001E1
2.377677375E0,7.437882843E0,-1.180654816E1,5.104385376E-2,1.395418525E1
2.387685375E0,7.374863892E0,-1.158216476E1,5.378315735E-1,1.374133985E1
2.397693375E0,7.532186737E0,-1.150417694E1,9.756710815E-1,1.378520432E1
2.407701375E0,7.787555695E0,-1.136331985E1,1.309027863E0,1.383779664E1
2.417709375E0,7.944878540E0,-1.119521942E1,1.520837402E0,1.381184200E1
2.427717375E0,8.021369476E0,-1.107681564E1,1.566941528E0,1.376566449E1
2.437725375E0,8.007897491E0,-1.089868607E1,1.432221680E0,1.359996467E1
2.447734375E0,7.963739319E0,-1.076965439E1,1.190624084E0,1.344708836E1
2.457742375E0,7.941585388E0,-1.071935898E1,9.434880066E-1,1.337398987E1
2.467750375E0,7.906857605E0,-1.057880127E1,6.451583862E-1,1.322292187E1
2.477758375E0,7.805518341E0,-1.033211426E1,3.620970154E-1,1.295414281E1
2.487766375E0,7.750133514E0,-1.017015106E1,1.639091492E-1,1.278762716E1
2.497774375E0,7.725584564E0,-9.975705414E0,-5.239105225E-2,1.261753146E1
2.507782375E0,7.719447327E0,-9.737999725E0,-2.430944824E-1,1.242890183E1
2.517790375E0,7.725734253E0,-9.519304504E0,-3.835025024E-1,1.226585513E1
2.527798375E0,7.701484680E0,-9.323511658E0,-4.712200928E-1,1.210218097E1
2.537806375E0,7.602540436E0,-9.091643829E0,-5.221142578E-1,1.186293437E1
2.547814375E0,7.431446228E0,-8.798703003E0,-5.909710693E-1,1.153225105E1
2.557822375E0,7.190896454E0,-8.576415253E0,-7.098239136E-1,1.121462172E1
2.567831375E0,6.852749634E0,-8.343649292E0,-8.101153564E-1,1.082741649E1
2.577839375E0,6.464606781E0,-8.016130371E0,-8.388555908E-1,1.033214236E1
2.587847375E0,6.034102020E0,-7.676935730E0,-8.280780029E-1,9.799563387E0
2.597855375E0,5.528453522E0,-7.319928131E0,-9.015751648E-1,9.217265536E0
2.607863375E0,5.057682495E0,-6.993906097E0,-9.415420532E-1,8.682244880E0
2.617871375E0,4.555177460E0,-6.711293793E0,-9.497749329E-1,8.166589159E0
2.627879375E0,4.015399933E0,-6.437363434E0,-9.255253601E-1,7.643276901E0
2.637887375E0,3.458557892E0,-6.135590973E0,-8.469387817E-1,7.093969592E0
2.647895375E0,2.945724335E0,-5.799539795E0,-7.607180786E-1,6.549095028E0
2.657903375E0,2.465971985E0,-5.509892120E0,-7.515870667E-1,6.083158072E0
2.667911375E0,2.020797729E0,-5.253774719E0,-7.530839539E-1,5.679164349E0
2.677919375E0,1.643582153E0,-4.996459808E0,-7.713459778E-1,5.316102663E0
2.687927375E0,1.284478912E0,-4.841681671E0,-7.891589355E-1,5.070950533E0
2.697936375E0,1.034349060E0,-4.638554077E0,-7.638615417E-1,4.813475497E0
2.707944375E0,1.005459137E0,-4.461921387E0,-7.126679993E-1,4.628994082E0
2.717952375E0,1.173409882E0,-4.348307648E0,-6.947053528E-1,4.557113744E0
2.727960375E0,1.404678955E0,-4.322261810E0,-8.313711548E-1,4.620200009E0
2.737968375E0,1.729054413E0,-4.349355469E0,-7.848179626E-1,4.745783538E0
2.747976375E0,2.101629639E0,-4.314927063E0,-5.406756592E-1,4.829883318E0
2.757984375E0,2.550546112E0,-4.314627686E0,-4.508624268E-1,5.032352776E0
2.767992375E0,3.072061615E0,-4.470004578E0,-4.409829712E-1,5.441779991E0
2.778000375E0,3.717669067E0,-4.740492096E0,-3.752696228E-1,6.036071230E0
2.788008375E0,4.448000336E0,-5.094505920E0,-3.559597778E-1,6.772400234E0
2.798016375E0,5.275180206E0,-5.514233093E0,-3.773652649E-1,7.640464473E0
2.808024375E0,6.088738403E0,-5.944887543E0,-4.300556946E-1,8.520526459E0
2.818033375E0,6.818919983E0,-6.424939270E0,-5.390290833E-1,9.384458786E0
2.828041375E0,7.500153351E0,-6.969955902E0,-6.071374512E-1,1.025676369E1
2.838049375E0,8.131989441E0,-7.450307007E0,-5.780978394E-1,1.104402662E1
2.848057375E0,8.655450897E0,-7.973768463E0,-5.953120422E-1,1.178355677E1
2.858065375E0,9.077423401E0,-8.509953461E0,-5.795947266E-1,1.245611711E1
2.868073375E0,9.440418549E0,-9.076824646E0,-4.626878357E-1,1.310436294E1
2.878081375E0,9.810149689E0,-9.702523499E0,-3.038681030E-1,1.380109905E1
2.888089375E0,1.018257523E1,-1.018961060E1,7.005432129E-2,1.440548194E1
2.898097375E0,1.059496765E1,-1.144310394E1,2.893482971E-1,1.559748986E1
2.908105375E0,1.104912323E1,-1.285377045E1,2.288740540E-1,1.695154631E1
2.918113375E0,1.120360199E1,-1.354114105E1,6.863227844E-1,1.758846888E1
2.928122375E0,1.137080429E1,-1.437041656E1,1.158890076E0,1.836156553E1
2.938130375E0,1.138966507E1,-1.512784149E1,1.491348724E0,1.899474084E1
2.948138375E0,1.134026779E1,-1.553753952E1,1.830842743E0,1.932275325E1
2.958146375E0,1.136077515E1,-1.582733688E1,2.126477966E0,1.959830894E1
2.968154375E0,1.135613480E1,-1.601025650E1,2.435585175E0,1.977933735E1
2.978162375E0,1.113594269E1,-1.580323700E1,2.817141724E0,1.953683205E1
2.988170375E0,1.080078964E1,-1.535955963E1,3.324885864E0,1.906903236E1
2.998178375E0,1.038570282E1,-1.456561066E1,4.012855225E0,1.833365332E1
3.008186375E0,1.008692413E1,-1.363679214E1,4.449497223E0,1.753585367E1
3.018194375E0,9.777517548E0,-1.274509644E1,4.708608398E0,1.673942429E1
3.028202375E0,9.538015594E0,-1.190504333E1,4.896318054E0,1.602116503E1
3.038210375E0,9.437125397E0,-1.109358078E1,4.927004242E0,1.537537775E1
3.048219375E0,9.352700958E0,-1.035007690E1,4.702321472E0,1.472103714E1
3.058227375E0,9.370064850E0,-9.779912567E0,4.395010529E0,1.423941441E1
3.068235375E0,9.394464111E0,-9.260642395E0,4.026327209E0,1.379227191E1
3.078243375E0,9.386680298E0,-8.763526154E0,3.626059570E0,1.334381751E1
3.088251375E0,9.319170685E0,-8.305179291E0,3.175945587E0,1.288058910E1
3.098259375E0,9.200018463E0,-7.945477295E0,2.683020630E0,1.244867659E1
3.108267375E0,9.103469238E0,-7.669002228E0,2.320175171E0,1.212724042E1
3.118275375E0,9.046587524E0,-7.515870667E0,2.071991272E0,1.194245392E1
3.128283375E0,9.001231842E0,-7.401209106E0,1.803599396E0,1.179207538E1
3.138291375E0,8.944499817E0,-7.438930664E0,1.547182617E0,1.173607858E1
3.148299375E0,8.825048218E0,-7.495662689E0,1.421893158E0,1.166568538E1
3.158308375E0,8.711135101E0,-7.530240784E0,1.356628876E0,1.159434530E1
3.168316375E0,8.618627472E0,-7.584428101E0,1.332978058E0,1.155772986E1
3.178324375E0,8.452323303E0,-7.534581757E0,1.462309113E0,1.141709418E1
3.188332375E0,8.241711273E0,-7.445067902E0,1.618883514E0,1.122388634E1
3.198340375E0,8.004005585E0,-7.424710236E0,1.744771729E0,1.105597829E1
3.208348375E0,7.729027405E0,-7.407795410E0,1.863175507E0,1.086667937E1
3.218356375E0,7.436385956E0,-7.356302490E0,2.067650299E0,1.066256068E1
3.228364375E0,7.211553497E0,-7.323071594E0,2.364632721E0,1.054634388E1
3.238372375E0,7.042105865E0,-7.262447662E0,2.684218140E0,1.046610855E1
3.248380375E0,6.886579285E0,-7.158863068E0,2.906206512E0,1.034989521E1
3.258388375E0,6.702911224E0,-7.043303375E0,3.071462860E0,1.019661833E1
3.268397375E0,6.575975189E0,-6.939718781E0,3.213816833E0,1.008621659E1
3.278405375E0,6.581363983E0,-6.871610413E0,3.238066406E0,1.005079378E1
3.288413375E0,6.673721924E0,-6.779851227E0,3.149300995E0,1.002112986E1
3.298421375E0,6.850354614E0,-6.700665894E0,2.980601807E0,1.003545061E1
3.308429375E0,7.193291473E0,-6.836583252E0,2.697989502E0,1.028403910E1
3.318437375E0,7.614814911E0,-6.725214844E0,2.474504242E0,1.045643783E1
3.328445375E0,7.806117096E0,-6.388115845E0,2.151475983E0,1.031369658E1
3.338453375E0,7.881111145E0,-6.198909302E0,1.815125427E0,1.018985131E1
3.348460750E0,7.845335541E0,-6.127657471E0,1.469194794E0,1.006260449E1
3.358468750E0,7.714058533E0,-6.064488831E0,1.317709808E0,9.900559730E0
3.368476750E0,7.613318024E0,-6.076463928E0,1.174607391E0,9.811509961E0
3.378485750E0,7.624245300E0,-6.142925720E0,8.786727905E-1,9.830397687E0
3.388493750E0,7.532336426E0,-6.121969299E0,5.595364380E-1,9.722534709E0
3.398501750E0,7.365583191E0,-6.099665680E0,2.627037048E-1,9.566961398E0
3.408509750E0,7.175777893E0,-6.150859222E0,5.493576050E-2,9.451342523E0
3.418517750E0,6.979685669E0,-6.137985992E0,-9.879455566E-2,9.295194696E0
3.428525750E0,6.929689636E0,-6.079607391E0,-2.097138977E-1,9.220965481E0
3.438533750E0,6.815177765E0,-5.964347076E0,-4.812492371E-1,9.069271462E0
3.448541750E0,6.694229279E0,-5.888604584E0,-7.131170654E-1,8.944098922E0
3.458549750E0,6.555467834E0,-5.810317383E0,-8.646020508E-1,8.802356691E0
3.468557750E0,6.498286743E0,-5.751789093E0,-8.915460205E-1,8.723855952E0
3.478565750E0,6.535259857E0,-5.671256561E0,-8.458909607E-1,8.694153432E0
3.488574750E0,6.585106201E0,-5.580545197E0,-7.656578064E-1,8.665583665E0
3.498582750E0,6.638245697E0,-5.505551147E0,-7.399113464E-1,8.655915213E0
3.508590750E0,6.756050720E0,-5.420228577E0,-6.420149231E-1,8.685348716E0
3.518598750E0,6.998396759E0,-5.362897797E0,-5.143304443E-1,8.831917446E0
3.528606750E0,7.256460114E0,-5.328768768E0,-5.897735596E-1,9.022185036E0
3.538614750E0,7.488627319E0,-5.301226044E0,-7.029382324E-1,9.201992113E0
3.548622750E0,7.801177368E0,-5.351371765E0,-7.815248108E-1,9.492435363E0
3.558630750E0,8.078550568E0,-5.437742157E0,-8.544232178E-1,9.775584795E0
3.568638750E0,8.291856995E0,-5.556445312E0,-9.156459045E-1,1.002334198E1
3.578646750E0,8.559650116E0,-5.728587341E0,-9.666897583E-1,1.034498971E1
3.588654750E0,8.788524170E0,-5.873785400E0,-9.328601074E-1,1.061177365E1
3.598663750E0,9.073381805E0,-6.046975250E0,-9.241781616E-1,1.094286399E1
3.608671750E0,9.459279327E0,-6.408024445E0,-9.162446594E-1,1.146212227E1
3.618679750E0,9.990524597E0,-6.843618622E0,-8.839118958E-1,1.214195198E1
3.628687750E0,1.069810318E1,-7.296277313E0,-8.952882385E-1,1.298023942E1
3.638695750E0,1.125988495E1,-7.557933197E0,-9.620494080E-1,1.359532649E1
3.648703750E0,1.162407761E1,-7.653434601E0,-1.039139099E0,1.395614744E1
3.658711750E0,1.191836563E1,-7.494465179E0,-1.072369995E0,1.411964677E1
3.668719750E0,1.214080307E1,-7.260352020E0,-1.105151825E0,1.418919206E1
3.678727750E0,1.224289078E1,-7.068750458E0,-1.140328674E0,1.418294600E1
3.688735750E0,1.226339813E1,-6.891219635E0,-1.103804626E0,1.411021709E1
3.698744750E0,1.225336899E1,-6.723568268E0,-1.117276611E0,1.402140253E1
3.708752750E0,1.222148529E1,-6.663243713E0,-1.137933655E0,1.396633139E1
3.718760750E0,1.213541428E1,-6.689888306E0,-1.087787933E0,1.389986215E1
3.728768750E0,1.199859879E1,-6.773713989E0,-1.130149841E0,1.382486212E1
3.738776750E0,1.180789536E1,-6.917864227E0,-1.235081635E0,1.374076653E1
3.748784750E0,1.150657196E1,-7.069199524E0,-1.398242340E0,1.357681339E1
3.758792750E0,1.116183884E1,-7.183711395E0,-1.471140747E0,1.335502193E1
3.768800750E0,1.074061478E1,-7.201224976E0,-1.457818451E0,1.301321181E1
3.778808750E0,1.029798523E1,-7.162605286E0,-1.390907593E0,1.262085727E1
3.788816750E0,9.969119110E0,-7.074738007E0,-1.216220856E0,1.228472413E1
3.798824750E0,9.720935211E0,-6.960675201E0,-1.068029022E0,1.200367721E1
3.808833750E0,9.438023529E0,-6.809190216E0,-9.488768005E-1,1.167654601E1
3.818841750E0,9.181906128E0,-6.627168732E0,-7.749385071E-1,1.135021124E1
3.828849750E0,9.020691376E0,-6.464457092E0,-6.459068298E-1,1.111662152E1
3.838857750E0,8.897048492E0,-6.386169891E0,-5.941145325E-1,1.096784436E1
3.848865750E0,8.829089813E0,-6.358477478E0,-5.035528564E-1,1.089204426E1
3.858873750E0,8.778944092E0,-6.272556152E0,-4.523593140E-1,1.079904852E1
3.868881750E0,8.785081329E0,-6.255940704E0,-4.643344116E-1,1.079490873E1
3.878889750E0,8.844956818E0,-6.344107361E0,-4.989125061E-1,1.089632383E1
3.888897750E0,8.841364288E0,-6.351142731E0,-5.505551147E-1,1.089999300E1
3.898905750E0,8.863368530E0,-6.341412964E0,-5.388793945E-1,1.091160901E1
3.908914750E0,8.901838531E0,-6.333329773E0,-4.950205994E-1,1.093612549E1
3.918922750E0,8.947343903E0,-6.414461060E0,-4.653822327E-1,1.101893163E1
3.928930750E0,8.981772308E0,-6.540798340E0,-3.757186890E-1,1.111734866E1
3.938938750E0,9.005722504E0,-6.550378418E0,-2.766247559E-1,1.113943520E1
3.948946750E0,9.007818146E0,-6.541696472E0,-2.589614868E-1,1.113560243E1
3.958954750E0,8.951834564E0,-6.539301453E0,-3.333567810E-1,1.109093920E1
3.968962750E0,8.872499542E0,-6.499484253E0,-3.186872864E-1,1.100300437E1
3.978970750E0,8.786129150E0,-6.488257599E0,-1.475930786E-1,1.092315595E1
3.988978750E0,8.714428253E0,-6.434818726E0,-7.708969116E-2,1.083300949E1
3.998986750E0,8.668324127E0,-6.376140747E0,-1.142124939E-1,1.076141526E1
4.008995750E0,8.614885254E0,-6.335874481E0,-1.167572021E-1,1.069453999E1
4.019003750E0,8.504115601E0,-6.275549927E0,-7.783813477E-2,1.056922740E1
4.029011750E0,8.402926025E0,-6.246210938E0,1.736389160E-2,1.047017757E1
4.039019750E0,8.302335205E0,-6.188281403E0,9.340576172E-2,1.035530401E1
4.049027750E0,8.216713257E0,-6.127058716E0,5.029541016E-2,1.024976853E1
4.059035750E0,8.103698273E0,-6.102360077E0,2.963836670E-2,1.014443703E1
4.069043750E0,8.084687805E0,-6.169869690E0,1.115180969E-1,1.017063937E1
4.079051750E0,8.126450958E0,-6.235732727E0,1.631607056E-1,1.024451996E1
4.089059750E0,7.857909393E0,-6.209686890E0,2.231858826E-1,1.001782228E1
4.099067750E0,7.591762848E0,-6.217620392E0,3.990701294E-1,9.821044926E0
4.109076750E0,7.403155060E0,-6.137686615E0,5.192701721E-1,9.630552598E0
4.119084750E0,7.280110931E0,-6.058351593E0,5.348377991E-1,9.486289616E0
4.129092750E0,7.172784119E0,-6.044729919E0,5.405259705E-1,9.395730953E0
4.139100750E0,7.051386566E0,-5.996829529E0,5.992039490E-1,9.275939967E0
4.149108750E0,6.935677185E0,-5.920338593E0,6.499484253E-1,9.142016190E0
4.159116750E0,6.848109283E0,-5.879024506E0,6.560856628E-1,9.049308167E0
4.169124750E0,6.796167297E0,-5.875731354E0,5.957611084E-1,9.003723684E0
4.179132750E0,6.790479126E0,-5.915997620E0,5.731581116E-1,9.024308551E0
4.189140750E0,6.762786713E0,-5.969436493E0,5.815406799E-1,9.039228160E0
4.199148750E0,6.646628265E0,-6.008355560E0,5.602848816E-1,8.977300429E0
4.209157750E0,6.483467560E0,-5.957461395E0,5.739065552E-1,8.823608480E0
4.219165750E0,6.333030396E0,-5.864804077E0,6.015989685E-1,8.652463359E0
4.229173750E0,6.195915527E0,-5.790857849E0,5.310955811E-1,8.497379971E0
4.239181750E0,6.071524200E0,-5.743256836E0,4.808001709E-1,8.371354371E0
4.249189750E0,5.988297272E0,-5.716163177E0,4.315525818E-1,8.289780656E0
4.259197750E0,5.911057892E0,-5.726791077E0,2.670446777E-1,8.234564609E0
4.269205750E0,5.858966217E0,-5.814059601E0,1.202000427E-1,8.255011946E0
4.279213750E0,5.840105438E0,-5.902675323E0,5.089416504E-2,8.303673748E0
4.289221750E0,5.785019989E0,-5.970783691E0,-7.095245361E-2,8.313949026E0
4.299229750E0,5.689368896E0,-6.035299530E0,-1.832189941E-1,8.296223723E0
4.309238750E0,5.570366364E0,-6.048771515E0,-2.546205139E-1,8.226873639E0
4.319246750E0,5.464536438E0,-6.061345367E0,-2.917433167E-1,8.166160683E0
4.329254750E0,5.393134918E0,-6.080206146E0,-3.436853027E-1,8.134674586E0
4.339262750E0,5.408253479E0,-6.126310272E0,-4.222718811E-1,8.182859939E0
4.349270917E0,5.581742706E0,-6.281537476E0,-5.146298218E-1,8.418931556E0
4.359278917E0,5.895340576E0,-6.636000366E0,-5.748046875E-1,8.895051534E0
4.369286917E0,6.334527283E0,-7.193740540E0,-6.255491638E-1,9.605594755E0
4.379294917E0,6.828500061E0,-7.831115112E0,-7.470964050E-1,1.041695397E1
4.389302917E0,7.321724396E0,-8.325986023E0,-8.469387817E-1,1.111966711E1
4.399311917E0,7.588619385E0,-7.692952423E0,-5.920188904E-1,1.082216002E1
4.409319917E0,7.814799042E0,-8.863069153E0,-6.861730957E-1,1.183621191E1
4.419327917E0,8.045918427E0,-9.963430939E0,-1.182540894E0,1.286099383E1
4.429335917E0,8.288414154E0,-9.078620911E0,-7.688012695E-1,1.231707036E1
4.439343917E0,8.344697113E0,-8.468789062E0,-1.760339355E-1,1.189055701E1
4.449351917E0,8.451724548E0,-8.583300934E0,-1.327738953E-1,1.204667305E1
4.459359917E0,8.740773468E0,-8.299940186E0,-9.595046997E-2,1.205401736E1
4.469367917E0,9.157506866E0,-7.923323364E0,4.340972900E-3,1.210945928E1
4.479375917E0,9.549691315E0,-7.717651062E0,-5.089416504E-2,1.227849064E1
4.489383917E0,9.853559418E0,-7.475604401E0,-8.442443848E-2,1.236868715E1
4.499392917E0,1.010982651E1,-7.250322876E0,-2.177970886E-1,1.244279749E1
4.509400917E0,1.036938675E1,-7.085515594E0,-4.417314148E-1,1.256677522E1
4.519408917E0,1.061173279E1,-6.881489868E0,-6.382727051E-1,1.266377383E1
4.529416917E0,1.074121353E1,-6.592740326E0,-7.500901794E-1,1.262539221E1
4.539424917E0,1.068897217E1,-6.298601990E0,-8.671467590E-1,1.243697940E1
4.549432917E0,1.057296341E1,-6.071823578E0,-9.195378113E-1,1.222702526E1
4.559440917E0,1.040022263E1,-5.896089020E0,-9.448352051E-1,1.199254810E1
4.569448917E0,1.023272095E1,-5.762866058E0,-9.653425598E-1,1.178350922E1
4.579456917E0,1.005399261E1,-5.680088196E0,-1.025367737E0,1.159299566E1
4.589465917E0,9.830207977E0,-5.579048309E0,-1.152303772E0,1.136162721E1
4.599473917E0,9.589658203E0,-5.497767334E0,-1.258882141E0,1.112527637E1
4.609481917E0,9.325607300E0,-5.414241028E0,-1.324595490E0,1.086441488E1
4.619489917E0,9.004524994E0,-5.365891571E0,-1.394051056E0,1.057438608E1
4.629497917E0,8.717571716E0,-5.410498810E0,-1.322350159E0,1.034495838E1
4.639505917E0,8.449329529E0,-5.438939667E0,-1.240021362E0,1.012476603E1
4.649513917E0,8.174650726E0,-5.533393250E0,-1.245559845E0,9.949611785E0
4.659521917E0,7.930807800E0,-5.726042633E0,-1.045126648E0,9.837558961E0
4.669529917E0,7.671696625E0,-5.834417267E0,-6.399192810E-1,9.659443598E0
4.679537917E0,7.452252960E0,-5.904172211E0,-3.689826965E-1,9.514802778E0
4.689546917E0,7.260352020E0,-6.013295288E0,-2.523751831E-1,9.430595152E0
4.699554917E0,7.123686218E0,-6.129753113E0,-1.845661926E-1,9.399725700E0
4.709562917E0,6.997798004E0,-6.222260742E0,8.726852417E-2,9.364471232E0
4.719570917E0,6.895560608E0,-6.263125763E0,4.174818420E-1,9.324687207E0
4.729578917E0,6.859635315E0,-6.269113312E0,5.718109131E-1,9.310389148E0
4.739586917E0,6.883286133E0,-6.250252533E0,6.030958557E-1,9.317135253E0
4.749594917E0,6.983427887E0,-6.180347900E0,6.195616150E-1,9.346059160E0
4.759602917E0,7.090305634E0,-6.064039764E0,6.161187744E-1,9.350113079E0
4.769610917E0,7.175478516E0,-5.886209564E0,5.818400574E-1,9.299112475E0
4.779619917E0,7.334597626E0,-5.711223450E0,5.972579956E-1,9.315101327E0
4.789627917E0,7.552694092E0,-5.570066986E0,4.727169800E-1,9.396398013E0
4.799635917E0,7.805218964E0,-5.436394958E0,2.137554932E-1,9.514280037E0
4.809643917E0,8.018824768E0,-5.332211609E0,-4.655319214E-2,9.629963577E0
4.819651917E0,8.181985474E0,-5.236261139E0,-1.681004333E-1,9.715532655E0
4.829659917E0,8.371341705E0,-5.142406311E0,-2.155517578E-1,9.827012118E0
4.839667917E0,8.605005798E0,-5.120851135E0,-3.522175598E-1,1.001964562E1
4.849675917E0,8.809630280E0,-5.160368958E0,-4.992118835E-1,1.022194727E1
4.859683917E0,8.917256470E0,-5.081782379E0,-5.641767883E-1,1.027911818E1
4.869692917E0,9.044491882E0,-5.194497986E0,-5.715115356E-1,1.044568180E1
4.879700917E0,9.209448853E0,-5.402864685E0,-5.131329346E-1,1.068963051E1
4.889708917E0,9.390572205E0,-5.562432861E0,-5.667214966E-1,1.092907493E1
4.899716917E0,9.552984467E0,-5.735922089E0,-7.102729797E-1,1.116533932E1
4.909724917E0,9.661957855E0,-5.948330383E0,-5.845344543E-1,1.136123869E1
4.919732917E0,9.742789764E0,-6.085145874E0,-3.429368591E-1,1.149210853E1
4.929740917E0,9.836943970E0,-6.143225098E0,-2.689906311E-1,1.160073434E1
4.939748917E0,9.822424164E0,-6.091881866E0,-2.134561157E-1,1.156012996E1
4.949756917E0,9.726174316E0,-5.945336609E0,-4.400848389E-2,1.139944871E1
4.959765917E0,9.672885132E0,-5.908513184E0,1.597178650E-1,1.133581689E1
4.969773917E0,9.756261749E0,-6.228697357E0,3.022215271E-1,1.157897456E1
4.979781917E0,1.002076172E1,-6.850953369E0,3.513194275E-1,1.214391423E1
4.989789917E0,1.044258453E1,-7.645201721E0,2.507286072E-1,1.294447936E1
4.999797917E0,1.090287735E1,-8.463999023E0,5.568420410E-2,1.380272128E1
5.009805917E0,1.122860001E1,-9.070088654E0,-4.161346436E-2,1.443432361E1
5.019813917E0,1.146091690E1,-9.373807068E0,3.218307495E-2,1.480614436E1
5.029821917E0,1.167003204E1,-9.396709442E0,8.861572266E-2,1.498317887E1
5.039829917E0,1.176658127E1,-9.167835388E0,2.333647156E-1,1.491831423E1
5.049838917E0,1.166973267E1,-8.799451447E0,4.893324280E-1,1.462369490E1
5.059846917E0,1.142349472E1,-8.298143921E0,7.509883118E-1,1.413928597E1
5.069854917E0,1.113534393E1,-7.829019470E0,7.825726318E-1,1.363458288E1
5.079862917E0,1.097757202E1,-7.597151642E0,8.280780029E-1,1.337570610E1
5.089870917E0,1.079869400E1,-7.540868683E0,9.147477722E-1,1.320277456E1
5.099878917E0,1.056577835E1,-7.580386505E0,8.741821289E-1,1.303311652E1
5.109886917E0,1.028077103E1,-7.728428650E0,8.023315430E-1,1.288668298E1
5.119894917E0,1.000175125E1,-7.939340057E0,7.424560547E-1,1.279137950E1
5.129902917E0,9.742640076E0,-8.191864929E0,7.366181946E-1,1.275022718E1
5.139911917E0,9.473050690E0,-8.458759918E0,7.463479614E-1,1.272188445E1
5.149919917E0,9.222771149E0,-8.649912415E0,7.370672607E-1,1.266585017E1
5.159927917E0,9.016799469E0,-8.783285065E0,7.505392456E-1,1.260999914E1
5.169935917E0,8.814570007E0,-8.840166779E0,8.632548523E-1,1.251360867E1
5.179943917E0,8.581953735E0,-8.772507477E0,9.518705750E-1,1.230905662E1
5.189951917E0,8.327033844E0,-8.611143036E0,9.613009644E-1,1.201729489E1
5.199959917E0,8.051606598E0,-8.410859528E0,9.020242310E-1,1.167838065E1
5.209967917E0,7.879763947E0,-8.223898315E0,9.201365662E-1,1.142671583E1
5.219975917E0,7.715854797E0,-8.040080566E0,9.788145447E-1,1.118639301E1
5.229983917E0,7.595205688E0,-7.934400330E0,9.912387085E-1,1.102834585E1
5.239992917E0,7.456743622E0,-7.840246124E0,9.048683167E-1,1.085777470E1
5.250000917E0,7.295079803E0,-7.766599274E0,8.393046570E-1,1.068843702E1
5.260008917E0,7.103328552E0,-7.675438843E0,8.146060181E-1,1.048967211E1
5.270016917E0,6.924749908E0,-7.562124481E0,7.340734863E-1,1.027991984E1
5.280024917E0,6.782695313E0,-7.417076111E0,6.535409546E-1,1.007199531E1
5.290032917E0,6.703659668E0,-7.337741089E0,5.090913391E-1,9.951917967E0
5.300040917E0,6.715485077E0,-7.313491516E0,4.023632813E-1,9.937142154E0
5.310048917E0,6.727160797E0,-7.199129333E0,2.811154175E-1,9.857037153E0
5.320057917E0,6.711293793E0,-7.103178864E0,8.068222046E-2,9.772569977E0
5.330065917E0,6.719826050E0,-6.998396759E0,-1.422042847E-2,9.702258580E0
5.340073917E0,6.751709747E0,-6.880591736E0,-9.340576172E-2,9.640376123E0
5.350082125E0,6.794670410E0,-6.751859436E0,-1.612147522E-1,9.580247493E0
5.360090125E0,6.836433563E0,-6.618786163E0,-3.222798157E-1,9.520977808E0
5.370098125E0,6.817572784E0,-6.449488220E0,-4.113446045E-1,9.393849124E0
5.380106125E0,6.771169281E0,-6.270909576E0,-3.782633972E-1,9.236672753E0
5.390114125E0,6.728358307E0,-6.154451752E0,-3.802093506E-1,9.126480210E0
5.400122125E0,6.649921417E0,-6.055507507E0,-4.164340210E-1,9.003557259E0
5.410131125E0,6.576424255E0,-5.944139099E0,-3.643423462E-1,8.872141284E0
5.420139125E0,6.508016510E0,-5.870791626E0,-3.347039795E-1,8.771117373E0
5.430147125E0,6.443350983E0,-5.855523376E0,-3.653901672E-1,8.714208849E0
5.440155125E0,6.381379852E0,-5.853128357E0,-3.782633972E-1,8.667421968E0
5.450163125E0,6.290369110E0,-5.841901703E0,-3.481759644E-1,8.591727739E0
5.460171125E0,6.204747162E0,-5.865253143E0,-3.969744873E-1,8.547377991E0
5.470179125E0,6.200256500E0,-5.963149567E0,-4.342469788E-1,8.613414181E0
5.480187125E0,6.181695099E0,-6.084996185E0,-4.864883423E-1,8.687761724E0
5.490196125E0,6.147865448E0,-6.224955139E0,-5.281018066E-1,8.764999006E0
5.500204125E0,6.145769806E0,-6.384822693E0,-5.188211060E-1,8.877253104E0
5.510212125E0,6.143823853E0,-6.546037445E0,-5.236111450E-1,8.992849737E0
5.520220125E0,6.102509766E0,-6.711144104E0,-5.891748047E-1,9.089950912E0
5.530228125E0,6.067482605E0,-6.858886871E0,-5.390290833E-1,9.173288757E0
5.540236125E0,6.007756805E0,-7.088659058E0,-5.798941040E-1,9.310129228E0
5.550244125E0,6.118077393E0,-7.411088562E0,-6.408174133E-1,9.631497890E0
5.560252125E0,6.383774872E0,-7.855364685E0,-8.005352783E-1,1.015382650E1
5.570260125E0,6.641089783E0,-8.460256805E0,-1.037043457E0,1.080534487E1
5.580269125E0,6.738537140E0,-8.950038300E0,-1.232536926E0,1.127076819E1
5.590277125E0,6.683900757E0,-9.118887177E0,-1.212328949E0,1.137094429E1
5.600285125E0,6.415209503E0,-8.910670166E0,-1.063688049E0,1.103115534E1
5.610293125E0,6.135141907E0,-8.458610229E0,-8.000862122E-1,1.047989462E1
5.620301125E0,5.780828705E0,-7.938591614E0,-6.012995911E-1,9.838738665E0
5.630309125E0,5.611231384E0,-7.551047516E0,-2.751278687E-1,9.411691218E0
5.640317125E0,5.554948425E0,-7.028035126E0,1.062789917E-1,8.958907576E0
5.650325125E0,5.577401733E0,-6.536906433E0,2.266287231E-1,8.595924406E0
5.660333125E0,5.744154968E0,-6.283782806E0,2.709365845E-1,8.517901695E0
5.670342125E0,5.963598633E0,-6.181096344E0,3.300636292E-1,8.595312831E0
5.680350125E0,6.324797516E0,-6.196963348E0,1.609153748E-1,8.856145443E0
5.690358125E0,6.865922241E0,-6.449338531E0,-1.288819885E-1,9.420799663E0
5.700366125E0,7.442373505E0,-6.775210876E0,-3.992198181E-1,1.007232755E1
5.710374125E0,8.026458893E0,-7.113806763E0,-6.806346130E-1,1.074679266E1
5.720382125E0,8.632249146E0,-7.473508759E0,-9.981243896E-1,1.146147071E1
5.730390125E0,9.297615509E0,-7.695197754E0,-1.260079651E0,1.213464146E1
5.740398125E0,9.826615448E0,-7.721992035E0,-1.478026428E0,1.258475642E1
5.750407125E0,1.019499939E1,-7.602989502E0,-1.711840210E0,1.283253127E1
5.760415125E0,1.032672546E1,-7.369924164E0,-1.837878113E0,1.281931500E1
5.770423125E0,1.023242157E1,-6.998396759E0,-1.821711731E0,1.252990990E1
5.780431125E0,1.012329849E1,-6.641838226E0,-1.776805115E0,1.223732911E1
5.790439125E0,1.001806732E1,-6.330635376E0,-1.720073090E0,1.197485986E1
5.800447125E0,9.928104401E0,-6.079757080E0,-1.507066040E0,1.173890758E1
5.810455125E0,9.838291168E0,-5.941444702E0,-1.286574554E0,1.156494757E1
5.820463125E0,9.705666962E0,-5.924829254E0,-1.184037781E0,1.143265141E1
5.830472125E0,9.551038513E0,-5.958808594E0,-9.366023254E-1,1.129632509E1
5.840480125E0,9.317823486E0,-5.971532135E0,-5.975573730E-1,1.108323533E1
5.850488125E0,9.032367096E0,-6.033054199E0,-3.100053406E-1,1.086634721E1
5.860496125E0,8.749156036E0,-6.073170776E0,-9.355545044E-2,1.065081627E1
5.870504125E0,8.537496185E0,-6.065386963E0,2.424957275E-2,1.047274311E1
5.880512125E0,8.324638824E0,-6.104755096E0,1.285826111E-1,1.032396144E1
5.890520125E0,8.080197144E0,-6.155349884E0,2.914439392E-1,1.016183338E1
5.900528125E0,7.874225464E0,-6.224506073E0,3.140469360E-1,1.004223720E1
5.910536125E0,7.740254059E0,-6.241869965E0,2.510279846E-1,9.946632023E0
5.920545125E0,7.632627869E0,-6.192921753E0,2.621049500E-1,9.832496480E0
5.930553125E0,7.494914246E0,-6.034700775E0,2.344125366E-1,9.625294917E0
5.940561125E0,7.378905487E0,-5.914500732E0,2.122586060E-1,9.459102432E0
5.950569125E0,7.302115173E0,-5.775739288E0,2.128573608E-1,9.312645091E0
5.960577125E0,7.247029724E0,-5.646408234E0,2.275268555E-1,9.189838640E0
5.970585125E0,7.238946533E0,-5.603597260E0,2.305206299E-1,9.157280651E0
5.980593125E0,7.281308441E0,-5.604046326E0,1.586700439E-1,9.189557335E0
5.990601125E0,7.417974243E0,-5.614973602E0,9.190887451E-2,9.303908731E0
6.000610125E0,7.520660706E0,-5.626349945E0,6.002517700E-2,9.392537153E0
6.010618125E0,7.650889893E0,-5.713917847E0,-3.772155762E-2,9.549156833E0
6.020626125E0,7.785160675E0,-5.784421234E0,-1.508862305E-1,9.700052701E0
6.030634125E0,7.891739044E0,-5.745053101E0,-1.818717957E-1,9.763106966E0
6.040642125E0,8.026907959E0,-5.713618469E0,-2.212399292E-1,9.855233863E0
6.050650125E0,8.222401428E0,-5.721701660E0,-2.850073242E-1,1.002132647E1
6.060658125E0,8.441246338E0,-5.735473022E0,-3.171903992E-1,1.021033302E1
6.070666125E0,8.726702728E0,-5.796695709E0,-3.291654968E-1,1.048166836E1
6.080675125E0,9.073830872E0,-5.908064117E0,-3.242257690E-1,1.083257821E1
6.090683125E0,9.413025513E0,-6.035449219E0,-3.772155762E-1,1.118811817E1
6.100691125E0,9.739047546E0,-6.150260468E0,-3.526666260E-1,1.152385025E1
6.110699125E0,1.009635452E1,-6.235583038E0,-2.401007080E-1,1.186914145E1
6.120707125E0,1.055320450E1,-6.475084991E0,-1.913021851E-1,1.238278835E1
6.130715125E0,1.114881592E1,-6.969057770E0,-1.528321838E-1,1.314865850E1
6.140723125E0,1.184516785E1,-7.651788025E0,-1.184037781E-1,1.410219418E1
6.150731125E0,1.267863464E1,-8.472231903E0,-7.574249268E-2,1.524900740E1
6.160739125E0,1.353066284E1,-9.309141541E0,-8.547225952E-2,1.642395381E1
6.170748125E0,1.407552979E1,-9.682614899E0,2.095642090E-3,1.708430784E1
6.180756125E0,1.432880310E1,-9.294921112E0,2.728825378E-1,1.708170430E1
6.190764125E0,1.438478668E1,-8.630303192E0,4.686753845E-1,1.678165301E1
6.200772125E0,1.426039536E1,-8.228688354E0,6.466552734E-1,1.647690356E1
6.210780125E0,1.397748367E1,-7.805218964E0,9.000782776E-1,1.603438910E1
6.220788125E0,1.372480911E1,-7.473508759E0,1.015188904E0,1.566059791E1
6.230796125E0,1.346090790E1,-7.336393890E0,1.074315948E0,1.536791695E1
6.240805125E0,1.308578796E1,-7.387587433E0,1.073268127E0,1.506539741E1
6.250813125E0,1.261381943E1,-7.551496582E0,1.070723419E0,1.474042027E1
6.260821125E0,1.201850739E1,-7.817343750E0,9.946815491E-1,1.437166568E1
6.270829125E0,1.140568176E1,-8.115224304E0,8.220904541E-1,1.402220648E1
6.280837125E0,1.088716003E1,-8.361462250E0,7.132667542E-1,1.374601957E1
6.290845125E0,1.038121216E1,-8.618178406E0,5.634283447E-1,1.350407407E1
6.300853125E0,9.864935760E0,-8.738977203E0,3.963757324E-1,1.318498365E1
6.310861125E0,9.344168701E0,-8.873397675E0,2.435435486E-1,1.288836640E1
6.320870125E0,8.820856934E0,-9.017098846E0,2.701881409E-1,1.261699609E1
6.330878125E0,8.378526764E0,-8.995094604E0,3.879931641E-1,1.229886078E1
6.340886125E0,7.933502197E0,-8.928034058E0,4.990621948E-1,1.195405004E1
6.350898250E0,7.588320007E0,-8.782087555E0,6.617738342E-1,1.162521428E1
6.360906250E0,7.258705444E0,-8.587791595E0,7.774832153E-1,1.127135526E1
6.370914250E0,6.952442322E0,-8.445437622E0,9.306147766E-1,1.097852061E1
6.380922250E0,6.717880096E0,-8.329129486E0,1.067729645E0,1.075380666E1
6.390930250E0,6.490203552E0,-8.173303528E0,1.087488556E0,1.049324850E1
6.400939250E0,6.231541443E0,-7.961643677E0,1.033301239E0,1.016305024E1
6.410947250E0,6.068530426E0,-7.782915344E0,9.473799133E-1,9.914553015E0
6.420955250E0,5.995033264E0,-7.641010437E0,7.855664063E-1,9.743848260E0
6.430963250E0,5.977220306E0,-7.455546112E0,5.827381897E-1,9.573500625E0
6.440971250E0,6.027964783E0,-7.270231476E0,3.607498169E-1,9.451072191E0
6.450979250E0,6.153852997E0,-7.138804779E0,1.701960754E-1,9.426632860E0
6.460987250E0,6.323600006E0,-7.072342987E0,1.182540894E-2,9.487154062E0
6.470995250E0,6.505172424E0,-7.058571625E0,-1.613644409E-1,9.600351042E0
6.481003250E0,6.674320679E0,-7.059170380E0,-2.959346008E-1,9.719363161E0
6.491012250E0,6.878196716E0,-7.072941742E0,-3.327580261E-1,9.871515733E0
6.501020250E0,7.056475983E0,-7.069947968E0,-3.692820740E-1,9.995718424E0
6.511028250E0,7.174131317E0,-6.998995514E0,-3.553610229E-1,1.002897701E1
6.521036250E0,7.248376923E0,-6.890171814E0,-2.737806702E-1,1.000441860E1
6.531044250E0,7.275171204E0,-6.771318970E0,-1.772314453E-1,9.940336394E0
6.541052250E0,7.299869843E0,-6.690187683E0,-9.265731812E-2,9.902287429E0
6.551060250E0,7.317533112E0,-6.666536865E0,-7.035369873E-3,9.898942070E0
6.561069250E0,7.316485291E0,-6.654412079E0,3.637435913E-2,9.890069778E0
6.571077250E0,7.266339569E0,-6.664740601E0,7.080276489E-2,9.860196298E0
6.581085250E0,7.155869293E0,-6.702013092E0,8.652008057E-2,9.804638216E0
6.591093250E0,7.081024933E0,-6.768774261E0,1.836680603E-1,9.797497285E0
6.601101250E0,7.019053802E0,-6.904541931E0,3.076103210E-1,9.850606056E0
6.611109250E0,6.996600494E0,-7.118896179E0,3.876937866E-1,9.989064409E0
6.621117250E0,7.001689911E0,-7.324119415E0,4.800517273E-1,1.014380779E1
6.631125250E0,6.909032593E0,-7.481891327E0,5.397775269E-1,1.019827382E1
6.641134250E0,6.757697296E0,-7.574099579E0,6.403683472E-1,1.017071919E1
6.651142250E0,6.586752777E0,-7.638016663E0,7.523355103E-1,1.011388251E1
6.661150250E0,6.383026428E0,-7.689509583E0,7.605683899E-1,1.002247715E1
6.671158250E0,6.178102570E0,-7.722291412E0,7.568261719E-1,9.918443521E0
6.681166250E0,6.015390930E0,-7.708070984E0,8.422984314E-1,9.813702308E0
6.691174250E0,5.813311157E0,-7.642657013E0,8.301736450E-1,9.638152370E0
6.701182250E0,5.573210449E0,-7.560777283E0,7.496411133E-1,9.422737905E0
6.711190250E0,5.324727173E0,-7.432494049E0,7.018904114E-1,9.169914798E0
6.721199250E0,5.065017242E0,-7.276518402E0,6.307882690E-1,8.888195180E0
6.731207250E0,4.861889648E0,-7.189100189E0,4.671784973E-1,8.691339841E0
6.741215250E0,4.736001434E0,-7.227270813E0,2.511776733E-1,8.644434233E0
6.751223250E0,4.706063690E0,-7.431296539E0,-2.649490356E-2,8.796130154E0
6.761231250E0,4.708458710E0,-7.632328491E0,-2.586621094E-1,8.971562166E0
6.771239250E0,4.621938629E0,-7.694149933E0,-4.005670166E-1,8.984582006E0
6.781247250E0,4.506977692E0,-7.650889893E0,-5.192701721E-1,8.894864000E0
6.791255250E0,4.381538544E0,-7.577991486E0,-5.863307190E-1,8.773119096E0
6.801264250E0,4.330794067E0,-7.565717010E0,-6.776408386E-1,8.743857744E0
6.811272250E0,4.392914886E0,-7.539222107E0,-6.707551575E-1,8.751427521E0
6.821280250E0,4.646188202E0,-7.505392456E0,-4.427792358E-1,8.838214423E0
6.831288250E0,4.856650543E0,-7.386240234E0,-3.204835510E-1,8.845694377E0
6.841296250E0,5.076992340E0,-7.271279297E0,-2.477348328E-1,8.871793865E0
6.851304250E0,5.359155579E0,-7.237599335E0,-2.303709412E-1,9.008688218E0
6.861312250E0,5.732030182E0,-7.356003113E0,-2.737806702E-1,9.329625269E0
6.871320250E0,6.329886932E0,-7.526049500E0,-3.056643677E-1,9.838817020E0
6.881329250E0,6.985822906E0,-7.680528259E0,-5.393284607E-1,1.039630277E1
6.891337250E0,7.694000244E0,-7.899672546E0,-9.627978516E-1,1.106930196E1
6.901345250E0,8.377029877E0,-8.088130646E0,-1.483265533E0,1.173850772E1
6.911353250E0,9.037157135E0,-8.244854736E0,-1.999242554E0,1.239535435E1
6.921361250E0,9.891730042E0,-8.435707855E0,-2.422711945E0,1.322410766E1
6.931369250E0,1.048300049E1,-8.418493652E0,-2.752476196E0,1.372371888E1
6.941377250E0,1.082788330E1,-8.149652710E0,-3.073558502E0,1.389628216E1
6.951386250E0,1.106184677E1,-7.801925812E0,-3.404220886E0,1.395790888E1
6.961394250E0,1.115091156E1,-7.397766266E0,-3.542982330E0,1.384277783E1
6.971402250E0,1.117561020E1,-6.979835358E0,-3.457210693E0,1.362221240E1
6.981410250E0,1.110825027E1,-6.639892273E0,-3.200195160E0,1.333126560E1
6.991418250E0,1.107636658E1,-6.433471527E0,-2.901266785E0,1.313365149E1
7.001426250E0,1.095990875E1,-6.456822968E0,-2.590962067E0,1.298165040E1
7.011434250E0,1.082518890E1,-6.599027252E0,-2.224823456E0,1.287174094E1
7.021443250E0,1.054152878E1,-6.706803131E0,-1.890718231E0,1.263644937E1
7.031451250E0,1.005623795E1,-6.802603912E0,-1.485660553E0,1.223153829E1
7.041459250E0,9.488768005E0,-6.867868195E0,-1.072369995E0,1.176241086E1
7.051467250E0,8.940308533E0,-6.963369598E0,-7.294331360E-1,1.135560238E1
7.061475250E0,8.480614471E0,-7.089257813E0,-5.873785400E-1,1.106902939E1
7.071483250E0,8.000263367E0,-7.228019257E0,-4.293072510E-1,1.079040226E1
7.081491250E0,7.485184479E0,-7.246730347E0,-1.164578247E-1,1.041905225E1
7.091499250E0,7.183561707E0,-7.180567932E0,3.772155762E-2,1.015704374E1
7.101508250E0,6.902745667E0,-7.204069061E0,-1.945953369E-2,9.977318650E0
7.111516250E0,6.589596863E0,-7.112609253E0,1.225950623E-1,9.696753413E0
7.121524250E0,6.424041138E0,-6.919660492E0,2.993774414E-1,9.446673103E0
7.131532250E0,6.306685181E0,-6.797813873E0,3.415896606E-1,9.279075111E0
7.141540250E0,6.163133698E0,-6.653513947E0,4.342469788E-1,9.079759647E0
7.151548250E0,6.043382721E0,-6.402186584E0,5.272036743E-1,8.819773891E0
7.161556250E0,5.971232758E0,-6.219716034E0,4.793032837E-1,8.635405018E0
7.171564250E0,5.922583923E0,-6.109994202E0,3.996688843E-1,8.518730228E0
7.181573250E0,5.956712952E0,-6.020630035E0,3.576063538E-1,8.476927363E0
7.191581250E0,6.044580231E0,-5.965394897E0,2.404000854E-1,8.495921295E0
7.201589250E0,6.143973541E0,-5.945186920E0,1.709445190E-1,8.551191754E0
7.211597250E0,6.323300629E0,-5.896089020E0,1.097218323E-1,8.646388578E0
7.221605250E0,6.582860870E0,-5.922284546E0,-2.380050659E-2,8.854833592E0
7.231613250E0,6.831942902E0,-5.970783691E0,-1.694476318E-1,9.074933289E0
7.241621250E0,7.173083496E0,-6.001320190E0,-2.695893860E-1,9.356369451E0
7.251630250E0,7.562872925E0,-6.095923462E0,-3.975732422E-1,9.721902808E0
7.261638250E0,8.025560760E0,-6.260880432E0,-4.984634399E-1,1.019101149E1
7.271646250E0,8.538544006E0,-6.455475769E0,-6.131250000E-1,1.072174535E1
7.281654250E0,9.045988770E0,-6.631509705E0,-7.665559387E-1,1.124252826E1
7.291662250E0,9.545350342E0,-6.771019592E0,-9.172924805E-1,1.173890306E1
7.301670250E0,9.988279266E0,-6.799460449E0,-9.618997192E-1,1.212120605E1
7.311678250E0,1.029274612E1,-6.675817566E0,-9.098080444E-1,1.230182562E1
7.321686250E0,1.062984512E1,-6.652615814E0,-8.734336853E-1,1.257035365E1
7.331695250E0,1.106963058E1,-6.941215668E0,-7.542814636E-1,1.308763297E1
7.341703250E0,1.164443527E1,-7.520361328E0,-5.843847656E-1,1.387408422E1
7.351707500E0,1.237731125E1,-8.331674194E0,-5.098397827E-1,1.492898407E1
7.361715500E0,1.313802933E1,-9.205257568E0,-4.064048767E-1,1.604711022E1
7.371723500E0,1.368993164E1,-9.799521790E0,-1.742376709E-1,1.683672220E1
7.381731500E0,1.399140472E1,-1.002704865E1,6.451583862E-2,1.721352006E1
7.391739500E0,1.406684784E1,-9.970316620E0,2.404000854E-1,1.724358472E1
7.401748500E0,1.388856857E1,-9.749376068E0,3.921844482E-1,1.697340506E1
7.411756500E0,1.349294128E1,-9.404792633E0,5.432203674E-1,1.645614406E1
7.421764500E0,1.300585419E1,-9.106762390E0,6.721023560E-1,1.589141548E1
7.431772500E0,1.253343658E1,-8.909173279E0,8.225395203E-1,1.539925233E1
7.441780500E0,1.195054871E1,-8.757987671E0,9.271719360E-1,1.484512075E1
7.451788500E0,1.128742767E1,-8.605454865E0,9.892927551E-1,1.422809112E1
7.461796500E0,1.065229843E1,-8.578061829E0,9.156459045E-1,1.370740727E1
7.471804500E0,1.008033783E1,-8.706045685E0,8.039781189E-1,1.334371849E1
7.481813500E0,9.572743378E0,-8.830736389E0,6.927593994E-1,1.304220980E1
7.491821500E0,9.164542236E0,-8.878786469E0,6.550378418E-1,1.277696201E1
7.501829500E0,8.797505493E0,-8.917406158E0,5.677693176E-1,1.253948155E1
7.511837500E0,8.357869720E0,-8.919801178E0,4.454736328E-1,1.223173275E1
7.521845500E0,7.904312897E0,-8.885223083E0,4.634362793E-1,1.190126568E1
7.531853500E0,7.455396423E0,-8.770860901E0,5.065466309E-1,1.152247917E1
7.541861500E0,7.052584076E0,-8.605005798E0,5.417234802E-1,1.113905433E1
7.551870500E0,6.707252197E0,-8.409212952E0,6.839277649E-1,1.077821190E1
7.561878500E0,6.410269775E0,-8.193062439E0,7.864645386E-1,1.043246650E1
7.571886500E0,6.164780273E0,-8.006250916E0,8.039781189E-1,1.013661434E1
7.581894500E0,5.953270111E0,-7.799081726E0,8.093669128E-1,9.844906073E0
7.591902500E0,5.793402557E0,-7.609575806E0,7.843688965E-1,9.596061260E0
7.601910500E0,5.607339478E0,-7.537725220E0,6.252497864E-1,9.415439172E0
7.611918500E0,5.562432861E0,-7.423213348E0,4.577481079E-1,9.287318724E0
7.621927500E0,5.549709320E0,-7.345824280E0,2.897973633E-1,9.211101476E0
7.631935500E0,5.595065002E0,-7.337441711E0,1.185534668E-1,9.228047365E0
7.641943500E0,5.693560181E0,-7.311844940E0,-5.403762817E-2,9.267287846E0
7.651951500E0,5.804629211E0,-7.349267120E0,-2.430944824E-1,9.368273182E0
7.661959500E0,5.931265869E0,-7.400161285E0,-3.329077148E-1,9.489632733E0
7.671967500E0,6.168372803E0,-7.433691559E0,-4.264631653E-1,9.669046698E0
7.681975500E0,6.493646393E0,-7.541317749E0,-4.450245667E-1,9.961775130E0
7.691984500E0,6.815926208E0,-7.614515533E0,-3.677851868E-1,1.022609226E1
7.701992500E0,7.157665558E0,-7.617060242E0,-2.662962341E-1,1.045574945E1
7.712000500E0,7.416926422E0,-7.540569305E0,-1.448986816E-1,1.057790048E1
7.722008500E0,7.630232849E0,-7.434290314E0,-4.595443726E-2,1.065322663E1
7.732016500E0,7.793094177E0,-7.333998871E0,4.146377563E-2,1.070147539E1
7.742024500E0,7.861352234E0,-7.164401550E0,1.469943237E-1,1.063725133E1
7.752032500E0,7.871381378E0,-6.943910065E0,2.198927307E-1,1.049880396E1
7.762041500E0,7.802973633E0,-6.757098541E0,2.908451843E-1,1.032614977E1
7.772049500E0,7.689659271E0,-6.605912933E0,4.230203247E-1,1.014632404E1
7.782057500E0,7.567812653E0,-6.512656860E0,5.577401733E-1,9.999878091E0
7.792065500E0,7.397616577E0,-6.500681763E0,6.592291260E-1,9.870064713E0
7.802073500E0,7.170838165E0,-6.575975189E0,7.550299072E-1,9.758813444E0
7.812081500E0,6.898255005E0,-6.688990173E0,8.690927124E-1,9.647996362E0
7.822089500E0,6.597230988E0,-6.784790955E0,1.038390656E0,9.520246854E0
7.832097500E0,6.299051056E0,-6.844516754E0,1.158890076E0,9.373818859E0
7.842106500E0,5.957611084E0,-6.867119751E0,1.247206421E0,9.176382041E0
7.852114500E0,5.661826172E0,-6.944209442E0,1.225800934E0,9.043279732E0
7.862122500E0,5.420078888E0,-6.988816681E0,1.283281403E0,8.936868854E0
7.872130500E0,5.250331879E0,-7.015161896E0,1.419049072E0,8.876496016E0
7.882138500E0,5.084626465E0,-7.033124542E0,1.418150940E0,8.793714756E0
7.892146500E0,4.949607239E0,-7.064858551E0,1.299148407E0,8.723452570E0
7.902154500E0,4.886438599E0,-7.054829407E0,1.130748596E0,8.656009041E0
7.912163500E0,4.782854004E0,-7.064708862E0,9.099577332E-1,8.579850046E0
7.922171500E0,4.637057190E0,-6.924600220E0,6.436614990E-1,8.358629535E0
7.932179500E0,4.540657654E0,-6.847211151E0,1.977388000E-1,8.218331528E0
7.942187500E0,4.508025513E0,-6.847959595E0,-1.748364258E-1,8.200451964E0
7.952195500E0,4.522844696E0,-6.834637299E0,-5.014572144E-1,8.210959170E0
7.962203500E0,4.656367035E0,-7.083120575E0,-9.114546204E-1,8.525438438E0
7.972211500E0,4.943919067E0,-7.579039307E0,-1.348246307E0,9.148876470E0
7.982220500E0,5.297334137E0,-8.052804108E0,-1.717977448E0,9.790855400E0
7.992228500E0,5.600902863E0,-8.411308594E0,-2.014959869E0,1.030438200E1
8.002236500E0,5.763015747E0,-8.588240662E0,-2.089205475E0,1.055154054E1
8.012244500E0,5.758674774E0,-8.419840851E0,-2.093995514E0,1.041349472E1
8.022252500E0,5.771548004E0,-8.132438507E0,-2.118394775E0,1.019484766E1
8.032260500E0,5.854625244E0,-7.820187836E0,-1.968855743E0,9.965358372E0
8.042268500E0,5.956712952E0,-7.531138916E0,-1.743873596E0,9.759179150E0
8.052277500E0,6.108347626E0,-7.331753540E0,-1.599423981E0,9.675984589E0
8.062285500E0,6.343358917E0,-7.150779877E0,-1.441203003E0,9.666898225E0
8.072293500E0,6.522985382E0,-6.965914307E0,-1.298699341E0,9.631195170E0
8.082301500E0,6.704408112E0,-6.871909790E0,-1.254241791E0,9.682218483E0
8.092309500E0,6.904541931E0,-6.865024109E0,-1.214574280E0,9.812056154E0
8.102317500E0,7.120542755E0,-6.904392242E0,-1.225651245E0,9.993747162E0
8.112325500E0,7.382498016E0,-6.979086914E0,-1.337319031E0,1.024682162E1
8.122334500E0,7.771688690E0,-7.126979370E0,-1.463656311E0,1.064590390E1
8.132342500E0,8.287965088E0,-7.333998871E0,-1.597927094E0,1.118173849E1
8.142350500E0,8.851094055E0,-7.561974792E0,-1.659449158E0,1.175921342E1
8.152358500E0,9.521250458E0,-7.762258301E0,-1.642384644E0,1.239371984E1
8.162366500E0,1.008557693E1,-7.905360718E0,-1.653910675E0,1.292087500E1
8.172374500E0,1.055979080E1,-8.046217804E0,-1.669328613E0,1.338048806E1
8.182382500E0,1.064301773E1,-8.056696014E0,-1.439556427E0,1.342596364E1
8.192391500E0,1.075408676E1,-8.030201111E0,-1.075214081E0,1.346441968E1
8.202399500E0,1.084434906E1,-7.998167725E0,-8.744815063E-1,1.350315931E1
8.212407500E0,1.067744614E1,-7.817643127E0,-7.499404907E-1,1.325465242E1
8.222415500E0,1.057954971E1,-7.749534760E0,-6.376739502E-1,1.312969113E1
8.232423500E0,1.040471329E1,-7.696095886E0,-5.173242188E-1,1.295204906E1
8.242431500E0,1.006506958E1,-7.576644287E0,-4.147874451E-1,1.260488845E1
8.252439500E0,9.635912018E0,-7.487579498E0,-1.872605896E-1,1.220449563E1
8.262448500E0,9.153914337E0,-7.354655914E0,2.380050659E-2,1.174247324E1
8.272456500E0,8.693471832E0,-7.186705170E0,9.699829102E-2,1.127983122E1
8.282464500E0,8.260272675E0,-7.130871277E0,1.610650635E-1,1.091363238E1
8.292472500E0,7.829318848E0,-7.058421936E0,2.209405518E-1,1.054364114E1
8.302480500E0,7.459737396E0,-7.021448822E0,2.086660767E-1,1.024655879E1
8.312488500E0,7.126979370E0,-7.003635864E0,2.585124207E-1,9.995577969E0
8.322496500E0,6.759792938E0,-6.853198700E0,3.124003601E-1,9.631133213E0
8.332505500E0,6.489604797E0,-6.709946594E0,3.664379883E-1,9.341982152E0
8.342513500E0,6.195765839E0,-6.560257874E0,5.114863586E-1,9.038037176E0
8.352520750E0,5.931415558E0,-6.354884949E0,6.453080750E-1,8.716804216E0
8.362528750E0,5.758974152E0,-6.194418640E0,7.005432129E-1,8.486893799E0
8.372536750E0,5.670807495E0,-6.074517975E0,7.408094788E-1,8.343058489E0
8.382544750E0,5.692512360E0,-6.002817078E0,7.691006470E-1,8.308430997E0
8.392552750E0,5.768703918E0,-5.960455170E0,7.629634094E-1,8.329890989E0
8.402561750E0,5.886508942E0,-5.940696259E0,7.729925537E-1,8.398831886E0
8.412569750E0,5.990243225E0,-5.886658630E0,7.476951599E-1,8.431773940E0
8.422577750E0,6.187682648E0,-5.809119873E0,6.529421997E-1,8.512321879E0
8.432585750E0,6.483467560E0,-5.796096954E0,4.942721558E-1,8.710591052E0
8.442593750E0,6.825057220E0,-5.784421234E0,3.113525391E-1,8.951976066E0
8.452601750E0,7.143594818E0,-5.709576874E0,1.369651794E-1,9.145981329E0
8.462609750E0,7.549101563E0,-5.700296173E0,3.487747192E-2,9.459573315E0
8.472618750E0,7.951165466E0,-5.718558197E0,-3.427871704E-2,9.794085723E0
8.482626750E0,8.393495636E0,-5.768853607E0,-1.398092651E-1,1.018577378E1
8.492634750E0,8.857380981E0,-5.856271820E0,-2.383044434E-1,1.062101250E1
8.502642750E0,9.317374420E0,-5.961952057E0,-2.002835083E-1,1.106338338E1
8.512650750E0,9.756112061E0,-6.078858948E0,-1.273851013E-1,1.149567204E1
8.522658750E0,1.014006363E1,-6.159690857E0,-6.825805664E-2,1.186454133E1
8.532666750E0,1.043794418E1,-6.225254517E0,6.137237549E-3,1.215337444E1
8.542675750E0,1.066756668E1,-6.318660278E0,1.573228455E-1,1.239948374E1
8.552683750E0,1.088251968E1,-6.465055847E0,3.897894287E-1,1.266404823E1
8.562691750E0,1.118189713E1,-6.812633057E0,4.977149963E-1,1.310322528E1
8.572699750E0,1.162737076E1,-7.485184479E0,5.777984619E-1,1.384043310E1
8.582707750E0,1.229408432E1,-8.509504395E0,6.950047302E-1,1.496793927E1
8.592715750E0,1.286769150E1,-9.530231781E0,6.673123169E-1,1.602648146E1
8.602723750E0,1.311752197E1,-9.994566193E0,5.987548828E-1,1.650209815E1
8.612732750E0,1.301917648E1,-9.902357941E0,5.502557373E-1,1.636638110E1
8.622740750E0,1.268686752E1,-9.575437775E0,6.048921204E-1,1.590633555E1
8.632748750E0,1.225636276E1,-9.088650055E0,6.417155457E-1,1.527199354E1
8.642756750E0,1.178334641E1,-8.506809998E0,6.735992432E-1,1.454877331E1
8.652764750E0,1.132799332E1,-8.001909943E0,6.918612671E-1,1.388642025E1
8.662772750E0,1.089988358E1,-7.645052032E0,7.098239136E-1,1.333259662E1
8.672781750E0,1.048749115E1,-7.444768524E0,6.578819275E-1,1.287807663E1
8.682789750E0,1.005533981E1,-7.392527161E0,4.719685364E-1,1.248927824E1
8.692797750E0,9.674232330E0,-7.531438293E0,2.704875183E-1,1.226321726E1
8.702805750E0,9.412277069E0,-7.884254608E0,1.196012878E-1,1.227871063E1
8.712813750E0,9.285939789E0,-8.358468475E0,-1.302291870E-2,1.249371212E1
8.722821750E0,9.138795776E0,-8.875792694E0,-1.164578247E-1,1.274012742E1
8.732829750E0,9.034313049E0,-9.417516174E0,-1.299298096E-1,1.305087372E1
8.742838750E0,8.974587250E0,-1.001492386E1,-6.900650024E-2,1.344792468E1
8.752846750E0,8.898695068E0,-1.057550812E1,3.847000122E-2,1.382134674E1
8.762854750E0,8.791667633E0,-1.102607117E1,2.151026917E-1,1.410368513E1
8.772862750E0,8.687035217E0,-1.132664612E1,4.046086121E-1,1.428009808E1
8.782870750E0,8.564290466E0,-1.144804367E1,6.167175293E-1,1.431031501E1
8.792878750E0,8.384664001E0,-1.140208923E1,7.542814636E-1,1.417318489E1
8.802886750E0,8.238118744E0,-1.128338608E1,8.581654358E-1,1.399706575E1
8.812895750E0,8.080945587E0,-1.104987167E1,9.687854004E-1,1.372369814E1
8.822903750E0,7.856562195E0,-1.068702621E1,9.800120544E-1,1.330032039E1
8.832911750E0,7.637717285E0,-1.028735733E1,9.538165283E-1,1.284812096E1
8.842919750E0,7.463479614E0,-9.948013000E0,8.610095215E-1,1.246626761E1
8.852927750E0,7.356302490E0,-9.681118011E0,7.087760925E-1,1.217955647E1
8.862935750E0,7.334447937E0,-9.486971741E0,6.095324707E-1,1.200701000E1
8.872943750E0,7.309300232E0,-9.309740295E0,5.328918457E-1,1.184825337E1
8.882952750E0,7.219487000E0,-9.148525543E0,4.718188477E-1,1.166358115E1
8.892960750E0,7.194488983E0,-9.067693634E0,3.806584167E-1,1.158139199E1
8.902968750E0,7.220834198E0,-8.995843048E0,2.947370911E-1,1.153917279E1
8.912976750E0,7.264243927E0,-8.934171295E0,2.164498901E-1,1.151674898E1
8.922984750E0,7.320077820E0,-8.891360321E0,1.618135071E-1,1.151807324E1
8.932992750E0,7.357500000E0,-8.811875610E0,1.329235840E-1,1.148040185E1
8.943001750E0,7.364535370E0,-8.711434479E0,9.580078125E-2,1.140765750E1
8.953009750E0,7.410340118E0,-8.595725098E0,6.107299805E-2,1.134915682E1
8.963017750E0,7.443421326E0,-8.393345947E0,4.026626587E-2,1.121848468E1
8.973025750E0,7.478448486E0,-8.134534149E0,3.038681030E-2,1.104983081E1
8.983033750E0,7.562274170E0,-7.915988617E0,3.098556519E-2,1.094768590E1
8.993041750E0,7.664661255E0,-7.755522308E0,8.981323242E-3,1.090390935E1
9.003049750E0,7.671996002E0,-7.532785492E0,1.751358032E-2,1.075186898E1
9.013058750E0,7.589966583E0,-7.242239685E0,-2.260299683E-2,1.049085980E1
9.023066750E0,7.428452454E0,-7.029082947E0,-1.405577087E-1,1.022788685E1
9.033074750E0,7.219037933E0,-6.870562592E0,-1.438508606E-1,9.966936946E0
9.043082750E0,6.959028625E0,-6.708898773E0,-9.295669556E-2,9.666749356E0
9.053090750E0,6.674170990E0,-6.608008575E0,-1.619631958E-1,9.393432164E0
9.063098750E0,6.342610474E0,-6.544241180E0,-1.742376709E-1,9.115160943E0
9.073106750E0,5.998925171E0,-6.458918610E0,-9.774673462E-2,8.815570727E0
9.083115750E0,5.648204498E0,-6.370602264E0,-9.490264893E-2,8.514446182E0
9.093123750E0,5.347479858E0,-6.303541718E0,-3.562591553E-2,8.266283822E0
9.103131750E0,5.023703156E0,-6.215075684E0,7.424560547E-2,7.991887859E0
9.113139750E0,4.803810425E0,-6.173761597E0,1.369651794E-1,7.823725859E0
9.123147750E0,4.631518707E0,-6.143524475E0,1.350192261E-1,7.694939162E0
9.133155750E0,4.513863373E0,-6.110892334E0,7.903564453E-2,7.597645313E0
9.143164750E0,4.413422241E0,-6.069129181E0,2.799179077E-2,7.504226038E0
9.153172750E0,4.340523834E0,-6.023773499E0,-4.520599365E-2,7.424825782E0
9.163180750E0,4.315825195E0,-5.943690033E0,-1.646575928E-1,7.347170234E0
9.173188750E0,4.305197296E0,-5.800288239E0,-2.173480225E-1,7.226707935E0
9.183196750E0,4.284689941E0,-5.639223175E0,-2.647993469E-1,7.087279069E0
9.193204750E0,4.352798309E0,-5.535039825E0,-3.522175598E-1,7.050360005E0
9.203212750E0,4.453688507E0,-5.395230560E0,-5.155279541E-1,7.014957105E0
9.213221750E0,4.582570496E0,-5.217999115E0,-6.087840271E-1,6.971232682E0
9.223229750E0,4.784201202E0,-5.147645416E0,-5.763015747E-1,7.051167136E0
9.233237750E0,4.996609497E0,-5.077740784E0,-5.897735596E-1,7.148243895E0
9.243245750E0,5.239554291E0,-4.904101868E0,-5.929170227E-1,7.201020406E0
9.253253750E0,5.519023132E0,-4.790787506E0,-5.240602112E-1,7.327066287E0
9.263261750E0,5.675896912E0,-4.796625366E0,-4.191284180E-1,7.443056448E0
9.273270750E0,5.769003296E0,-4.799768829E0,-2.269281006E-1,7.508040770E0
9.283278750E0,5.875881042E0,-4.787943420E0,-2.125579834E-2,7.579632711E0
9.293286750E0,6.052663422E0,-4.921914825E0,9.610015869E-2,7.801872550E0
9.303294750E0,6.208938446E0,-5.135520630E0,1.428030396E-1,8.058838718E0
9.313302750E0,6.295608215E0,-5.315446472E0,1.848655701E-1,8.241530761E0
9.323310750E0,6.375841370E0,-5.577551422E0,2.275268555E-1,8.474208017E0
9.333318750E0,6.432573395E0,-6.040838013E0,1.615141296E-1,8.825860365E0
9.343327750E0,6.549929352E0,-6.665938110E0,1.972897339E-1,9.347471778E0
9.353336375E0,6.793323212E0,-7.328460388E0,3.897894287E-1,1.000037538E1
9.363344375E0,7.032226410E0,-8.033943329E0,5.700146484E-1,1.069211721E1
9.373352375E0,7.210355988E0,-8.835676117E0,7.135661316E-1,1.142661728E1
9.383360375E0,7.325765991E0,-9.504485321E0,1.048868866E0,1.204583806E1
9.393368375E0,7.469467163E0,-1.009979736E1,1.403930511E0,1.264001058E1
9.403377375E0,7.496560822E0,-1.060918808E1,1.631607056E0,1.309257184E1
9.413385375E0,7.681127014E0,-1.092817474E1,1.878593445E0,1.348902623E1
9.423393375E0,7.756869507E0,-1.109822113E1,2.174677734E0,1.371381639E1
9.433401375E0,7.835306396E0,-1.118429214E1,2.511327667E0,1.388478245E1
9.443409375E0,8.014932861E0,-1.116737732E1,2.691552887E0,1.400692407E1
9.453417375E0,8.361462250E0,-1.118294495E1,2.746937714E0,1.423088105E1
9.463425375E0,8.779393158E0,-1.116243759E1,2.736758881E0,1.446262792E1
9.473434375E0,9.200317841E0,-1.104508163E1,2.578088837E0,1.460432192E1
9.483442375E0,9.524244232E0,-1.079375427E1,2.285597076E0,1.457533236E1
9.493450375E0,9.766739960E0,-1.049931656E1,1.891915741E0,1.446389307E1
9.503458375E0,9.962682495E0,-1.021236328E1,1.498084717E0,1.434544053E1
9.513466375E0,1.014305740E1,-9.989776154E0,1.155297546E0,1.428327531E1
9.523474375E0,1.020143600E1,-9.670639801E0,9.250762939E-1,1.408709824E1
9.533483375E0,1.020053787E1,-9.399254150E0,7.596702576E-1,1.389151001E1
9.543491375E0,1.021131546E1,-9.273815002E0,7.286846924E-1,1.381323965E1
9.553499375E0,1.014979340E1,-9.232351227E0,8.134085083E-1,1.374468074E1
9.563507375E0,1.005504044E1,-9.252110138E0,9.303153992E-1,1.369565139E1
9.573515375E0,1.001267853E1,-9.283544769E0,1.157542877E0,1.370320548E1
9.583523375E0,9.924212494E0,-9.381590881E0,1.376537476E0,1.372585504E1
9.593531375E0,9.773925018E0,-9.474248199E0,1.677561493E0,1.371514498E1
9.603540375E0,9.608518982E0,-9.463620300E0,2.036365356E0,1.363930094E1
9.613548375E0,9.364975433E0,-9.360185394E0,2.323168945E0,1.344295166E1
9.623556375E0,9.169481964E0,-9.276659088E0,2.641257477E0,1.330834492E1
9.633564375E0,9.045689392E0,-9.142238617E0,2.909349976E0,1.318595240E1
9.643572375E0,8.859326935E0,-8.885672150E0,2.975512390E0,1.289560069E1
9.653580375E0,8.665330353E0,-8.624615021E0,2.956651611E0,1.257830367E1
9.663589375E0,8.481662292E0,-8.367449799E0,2.891686707E0,1.226028806E1
9.673597375E0,8.223898315E0,-8.083789673E0,2.864892426E0,1.188224590E1
9.683605375E0,7.903414764E0,-7.788304138E0,2.928959198E0,1.147608157E1
9.693613375E0,7.516020355E0,-7.447462921E0,2.999462585E0,1.099781986E1
9.703621375E0,7.153623962E0,-7.138355713E0,3.042872314E0,1.055412384E1
9.713629375E0,6.869065704E0,-6.872807922E0,3.106639709E0,1.020150786E1
9.723638375E0,6.616540833E0,-6.647077332E0,3.104993134E0,9.879434802E0
9.733646375E0,6.397396545E0,-6.510561218E0,3.063828735E0,9.628142939E0
9.743654375E0,6.245761871E0,-6.450685730E0,3.002007294E0,9.467467218E0
9.753662375E0,6.193520508E0,-6.479725342E0,2.962489471E0,9.440491547E0
9.763670375E0,6.191873932E0,-6.609056396E0,2.921474762E0,9.515983608E0
9.773678375E0,6.247857513E0,-6.823710022E0,2.833607483E0,9.676160051E0
9.783686375E0,6.329886932E0,-7.073241119E0,2.748883667E0,9.882032682E0
9.793695375E0,6.312672729E0,-7.258555756E0,2.695893860E0,9.990210826E0
9.803703375E0,6.262227631E0,-7.309749298E0,2.761307831E0,1.001362825E1
9.813711375E0,6.264472961E0,-7.308252411E0,2.810854797E0,1.002771557E1
9.823719375E0,6.303841095E0,-7.311246185E0,2.836900635E0,1.006184568E1
9.833727375E0,6.309229889E0,-7.235354004E0,2.893782349E0,1.002650017E1
9.843735375E0,6.377937012E0,-7.124434662E0,2.979853363E0,1.001574639E1
9.853744375E0,6.532415771E0,-7.005581818E0,3.035238190E0,1.004804973E1
9.863752375E0,6.676116943E0,-6.864275665E0,2.990630951E0,1.003158469E1
9.873760375E0,6.799909515E0,-6.770570526E0,2.899919586E0,1.002441661E1
9.883768375E0,6.951843567E0,-6.716083832E0,2.842439117E0,1.007538442E1
9.893776375E0,7.057972870E0,-6.612199860E0,2.716101837E0,1.004556505E1
9.903784375E0,7.100334778E0,-6.545887756E0,2.605930939E0,1.000271346E1
9.913792375E0,7.231312408E0,-6.587201843E0,2.529140625E0,1.010344791E1
9.923801375E0,7.407645721E0,-6.736142120E0,2.362537079E0,1.028739069E1
9.933809375E0,7.653584290E0,-6.931186523E0,2.237247620E0,1.056522484E1
9.943817375E0,7.941435699E0,-7.156168671E0,2.070793762E0,1.088877118E1
9.953825375E0,8.194559326E0,-7.460785217E0,1.740879822E0,1.121805603E1
9.963833375E0,8.587342529E0,-7.641609192E0,1.490151215E0,1.159125504E1
9.973841375E0,9.006470947E0,-7.675887909E0,1.127156067E0,1.188723075E1
9.983850375E0,9.206455078E0,-7.786807251E0,6.328839111E-1,1.207450721E1
9.993858375E0,9.388177185E0,-7.781418457E0,4.535568237E-2,1.219386736E1
1.000386638E1,9.596394196E0,-7.561525726E0,-4.427792358E-1,1.222552683E1
1.001387437E1,9.730814667E0,-7.268135834E0,-9.967771912E-1,1.218639066E1
1.002388238E1,9.647587738E0,-6.989714813E0,-1.573677521E0,1.201700975E1
1.003389037E1,9.406888275E0,-6.683302002E0,-1.966610413E0,1.170570926E1
1.004389937E1,9.261839905E0,-6.318510590E0,-2.480491791E0,1.148294797E1
1.005390738E1,9.189091187E0,-6.022426300E0,-2.910697174E0,1.136578961E1
1.006391537E1,9.298663330E0,-5.939049683E0,-3.061134338E0,1.145023992E1
1.007392338E1,9.646539917E0,-5.957461395E0,-3.085383911E0,1.175017755E1
1.008393138E1,1.003153931E1,-5.995332642E0,-3.017574921E0,1.206986134E1
1.009393937E1,1.039034317E1,-6.201154633E0,-2.949167175E0,1.245436217E1
1.010394838E1,1.084285217E1,-6.539301453E0,-2.862647095E0,1.298170463E1
1.011395638E1,1.132634674E1,-6.912176056E0,-2.572400665E0,1.351597401E1
1.012396437E1,1.172317154E1,-7.273674316E0,-2.367027740E0,1.399792518E1
1.013397238E1,1.211101501E1,-7.672894135E0,-2.128423920E0,1.449414287E1
1.014398037E1,1.244392273E1,-7.892487488E0,-1.743723907E0,1.483856950E1
1.015398838E1,1.274524612E1,-7.951614532E0,-1.329834595E0,1.508104547E1
1.016399738E1,1.294328430E1,-7.855214996E0,-9.812095642E-1,1.517220430E1
1.017400537E1,1.293699738E1,-7.577243042E0,-7.006929016E-1,1.500904673E1
1.018401338E1,1.274599457E1,-7.184908905E0,-3.385958862E-1,1.463550275E1
1.019402138E1,1.241518250E1,-6.726711731E0,1.363664246E-1,1.412104822E1
1.020402937E1,1.205922272E1,-6.424041138E0,4.263134766E-1,1.367021947E1
1.021403738E1,1.170775360E1,-6.324647827E0,5.858816528E-1,1.331975682E1
1.022404638E1,1.135808075E1,-6.364015961E0,6.569837952E-1,1.303603947E1
1.023405437E1,1.094898148E1,-6.457870789E0,6.598278809E-1,1.272869449E1
1.024406238E1,1.058029816E1,-6.541097717E0,6.521937561E-1,1.245608386E1
1.025407038E1,1.027837601E1,-6.599027252E0,5.114863586E-1,1.222512954E1
1.026407838E1,9.984686737E0,-6.774911499E0,3.487747192E-1,1.207124844E1
1.027408638E1,9.699529724E0,-6.844965820E0,1.734892273E-1,1.187284854E1
1.028409437E1,9.504335632E0,-6.823560333E0,5.418731689E-2,1.170026956E1
1.029410338E1,9.309740295E0,-6.760242004E0,-9.071136475E-2,1.150566664E1
1.030411138E1,9.170529785E0,-6.661447449E0,-2.266287231E-1,1.133688049E1
1.031411937E1,9.113498383E0,-6.509214020E0,-2.722837830E-1,1.120267193E1
1.032412738E1,9.112899628E0,-6.382277985E0,-4.041595459E-1,1.113291322E1
1.033413538E1,9.125473480E0,-6.378835144E0,-6.273454285E-1,1.115156340E1
1.034414337E1,9.233698425E0,-6.447392578E0,-5.984555054E-1,1.127777490E1
1.035415238E1,9.260941772E0,-6.458020477E0,-4.351451111E-1,1.129869117E1
1.036416038E1,9.260343018E0,-6.522087250E0,-4.593946838E-1,1.133589954E1
1.037416837E1,9.176367645E0,-6.633755035E0,-4.974156189E-1,1.133401303E1
1.038417638E1,9.032965851E0,-6.659950562E0,-3.770658875E-1,1.122905126E1
1.039418437E1,8.911717987E0,-6.666087799E0,-3.095562744E-1,1.113334043E1
1.040419238E1,8.826245728E0,-6.690487061E0,-3.260220337E-1,1.108023109E1
1.041420138E1,8.736731873E0,-6.728957062E0,-4.197271729E-1,1.103564760E1
1.042420937E1,8.663085022E0,-6.757248230E0,-3.387455750E-1,1.099200593E1
1.043421738E1,8.562194824E0,-6.727160797E0,-1.098715210E-1,1.088935004E1
1.044422538E1,8.467741241E0,-6.675518188E0,5.777984619E-2,1.078278829E1
1.045423337E1,8.433612213E0,-6.608757019E0,1.886077881E-1,1.071620535E1
1.046424138E1,8.371341705E0,-6.551126862E0,3.064128113E-1,1.063440238E1
1.047425038E1,8.307873688E0,-6.478078766E0,4.466711426E-1,1.054446702E1
1.048425837E1,8.214168549E0,-6.343807983E0,5.301974487E-1,1.039218812E1
1.049426638E1,8.139773254E0,-6.221661987E0,5.459147644E-1,1.025977629E1
1.050427438E1,8.025860138E0,-6.088289337E0,5.719606018E-1,1.009003652E1
1.051428238E1,7.904312897E0,-5.911357269E0,6.001020813E-1,9.888499868E0
1.052429038E1,7.790848846E0,-5.695655823E0,5.830375671E-1,9.668389411E0
1.053429938E1,7.729027405E0,-5.533093872E0,5.445675659E-1,9.521005528E0
1.054430738E1,7.679779816E0,-5.340594177E0,6.014492798E-1,9.373510837E0
1.055431538E1,7.731123047E0,-5.096002808E0,5.763015747E-1,9.277479813E0
1.056432337E1,7.787705383E0,-4.799469452E0,3.641926575E-1,9.155102318E0
1.057433138E1,7.729326782E0,-4.433330841E0,2.492317200E-1,8.913979544E0
1.058433938E1,7.717501373E0,-4.145778809E0,1.188528442E-1,8.761360361E0
1.059434837E1,7.726333008E0,-3.831282806E0,1.930984497E-2,8.624112856E0
1.060435638E1,7.591762848E0,-3.637286224E0,-1.607656860E-1,8.419653189E0
1.061436438E1,7.363038483E0,-3.526666260E0,-2.689906311E-1,8.168480065E0
1.062437237E1,7.133266296E0,-3.330274658E0,-2.365081787E-1,7.875922389E0
1.063438038E1,6.964716797E0,-3.231779480E0,-1.704954529E-1,7.679892406E0
1.064438837E1,6.818770294E0,-3.210823059E0,-1.038839722E-1,7.537625947E0
1.065439638E1,6.676715698E0,-3.172502747E0,-6.870712280E-2,7.392430376E0
1.066440538E1,6.582561493E0,-3.178190918E0,9.160949707E-2,7.310226099E0
1.067441337E1,6.490802307E0,-3.215912476E0,1.978884888E-1,7.246500362E0
1.068442138E1,6.386918335E0,-3.257076874E0,3.032693481E-1,7.175879589E0
1.069442938E1,6.271807709E0,-3.339555359E0,4.282594299E-1,7.118399263E0
1.070443737E1,6.160289612E0,-3.452121277E0,4.725672913E-1,7.077402720E0
1.071444638E1,6.059848480E0,-3.575165405E0,4.891827393E-1,7.052862612E0
1.072445438E1,5.940097504E0,-3.670217743E0,5.739065552E-1,7.006042062E0
1.073446237E1,5.831872559E0,-3.726351013E0,6.878196716E-1,6.954820293E0
1.074447038E1,5.757776642E0,-3.799249420E0,7.834707642E-1,6.942630226E0
1.075447837E1,5.710325317E0,-3.890110474E0,8.396040344E-1,6.960295228E0
1.076448638E1,5.748645630E0,-4.009412384E0,8.692424011E-1,7.062428520E0
1.077449438E1,5.882018280E0,-4.230802002E0,9.490264893E-1,7.307426079E0
1.078450337E1,5.989045715E0,-4.544699249E0,9.472302246E-1,7.577612087E0
1.079451138E1,6.097270660E0,-4.926854553E0,9.177415466E-1,7.892582267E0
1.080451938E1,6.161936188E0,-5.258864136E0,9.136999512E-1,8.152297663E0
1.081452737E1,6.171965332E0,-5.506299591E0,8.635542297E-1,8.316141963E0
1.082453538E1,6.086642761E0,-5.685177612E0,7.444020081E-1,8.361973388E0
1.083454338E1,6.024072876E0,-5.837560730E0,7.090754700E-1,8.418393987E0
1.084455237E1,5.943690033E0,-5.883664856E0,7.298822021E-1,8.395099247E0
1.085456038E1,5.908064117E0,-5.922434235E0,7.461982727E-1,8.398646364E0
1.086456838E1,5.968837738E0,-6.011648712E0,6.984475708E-1,8.500280771E0
1.087457638E1,6.145320740E0,-6.115832062E0,7.420069885E-1,8.701663242E0
1.088458438E1,6.412964172E0,-6.246061249E0,7.500901794E-1,8.983430630E0
1.089459237E1,6.767127686E0,-6.425088959E0,6.973997498E-1,9.357465023E0
1.090460138E1,7.241940308E0,-6.681505737E0,6.264472961E-1,9.873229186E0
1.091460938E1,7.797884216E0,-6.996600494E0,5.248086548E-1,1.048974932E1
1.092461737E1,8.412057037E0,-7.299271088E0,4.308041382E-1,1.114574601E1
1.093462538E1,9.040001221E0,-7.587122498E0,1.859133911E-1,1.180341534E1
1.094463338E1,9.681118011E0,-7.814349976E0,-1.252894592E-1,1.244201788E1
1.095464137E1,1.024230103E1,-7.985294495E0,-4.183799744E-1,1.299402556E1
1.096465038E1,1.078507233E1,-8.095315704E0,-5.737568665E-1,1.349744859E1
1.097465838E1,1.131407227E1,-7.990683289E0,-6.697073364E-1,1.386750729E1
1.098466637E1,1.166000290E1,-7.808661804E0,-9.440867615E-1,1.406492683E1
1.099467438E1,1.185669388E1,-7.467072144E0,-1.203048248E0,1.406362973E1
1.100468237E1,1.190055267E1,-6.968009949E0,-1.285227356E0,1.385020310E1
1.101469038E1,1.175999496E1,-6.489006042E0,-1.348695374E0,1.349902442E1
1.102469938E1,1.154504196E1,-6.084098053E0,-1.463506622E0,1.313187323E1
1.103470737E1,1.135927826E1,-5.762716370E0,-1.491797791E0,1.282449076E1
1.104471538E1,1.117590958E1,-5.572611694E0,-1.502276001E0,1.257822679E1
1.105472338E1,1.100556381E1,-5.534441071E0,-1.475182343E0,1.240679796E1
1.106473137E1,1.072190369E1,-5.535189514E0,-1.447789307E0,1.215292703E1
1.107474038E1,1.024754013E1,-5.577701111E0,-1.484762421E0,1.176126472E1
1.108474838E1,9.731862488E0,-5.657335510E0,-1.336869965E0,1.133586405E1
1.109475637E1,9.251810760E0,-5.686075745E0,-1.233884125E0,1.092931515E1
1.110476438E1,8.800349579E0,-5.783972168E0,-1.156045990E0,1.059419318E1
1.111477238E1,8.384065247E0,-5.848488007E0,-1.027014313E0,1.027385616E1
1.112478038E1,8.016280060E0,-5.861810303E0,-8.866062927E-1,9.970337845E0
1.113478938E1,7.652386780E0,-5.893993378E0,-7.484436035E-1,9.688051878E0
1.114479738E1,7.357799377E0,-5.954617310E0,-5.803431702E-1,9.483220823E0
1.115480538E1,7.110214233E0,-5.991889801E0,-4.031117249E-1,9.307007516E0
1.116481338E1,6.931635590E0,-6.024072876E0,-2.998265076E-1,9.188412371E0
1.117482137E1,6.778354340E0,-6.143674164E0,-2.625540161E-1,9.152035533E0
1.118482938E1,6.750661926E0,-6.161936188E0,-2.806663513E-1,9.144379018E0
1.119483738E1,6.749314728E0,-6.168522491E0,-4.358935547E-1,9.153902021E0
1.120484637E1,6.603218536E0,-6.224356384E0,-2.878514099E-1,9.078984848E0
1.121485438E1,6.604565735E0,-6.055357819E0,-2.519261169E-1,8.963878269E0
1.122486238E1,6.664141846E0,-6.036646729E0,-4.670288086E-1,9.003888392E0
1.123487037E1,6.744225311E0,-5.979765015E0,-4.812492371E-1,9.026281932E0
1.124487838E1,6.935228119E0,-5.863756256E0,-4.978646851E-1,9.095542630E0
1.125488738E1,7.097191315E0,-5.871390381E0,-6.213578796E-1,9.231978942E0
1.126489537E1,7.243287506E0,-5.849685516E0,-6.601272583E-1,9.333798934E0
1.127490338E1,7.378007355E0,-5.836213531E0,-6.818321228E-1,9.431928539E0
1.128491137E1,7.528294830E0,-5.836812286E0,-6.300398254E-1,9.546756041E0
1.129491938E1,7.679630127E0,-5.831872559E0,-5.959107971E-1,9.661395660E0
1.130492738E1,7.862849121E0,-5.879174194E0,-5.390290833E-1,9.832580427E0
1.131493637E1,8.053552551E0,-5.905070343E0,-4.583468628E-1,9.996981859E0
1.132494438E1,8.250542908E0,-5.912854156E0,-4.267625427E-1,1.015949944E1
1.133495238E1,8.472830658E0,-5.908812561E0,-3.493734741E-1,1.033561740E1
1.134496037E1,8.677904205E0,-5.894292755E0,-2.414479065E-1,1.049318853E1
1.135496804E1,8.926836548E0,-5.927972717E0,-2.083666992E-1,1.071786770E1
1.136497604E1,9.204359436E0,-6.022725677E0,-1.832189941E-1,1.100122840E1
1.137498504E1,9.518556061E0,-6.129453735E0,-1.763333130E-1,1.132272962E1
1.138499304E1,9.876162415E0,-6.272705841E0,-9.445358276E-2,1.170018564E1
1.139500104E1,1.018751495E1,-6.348897400E0,-1.841171265E-2,1.200392845E1
1.140500904E1,1.040291702E1,-6.409221954E0,1.661544800E-2,1.221880046E1
1.141501704E1,1.060424835E1,-6.330635376E0,1.052311707E-1,1.235063160E1
1.142502504E1,1.076591217E1,-6.423442383E0,1.960922241E-1,1.253809910E1
1.143503404E1,1.105511078E1,-6.748865662E0,3.291654968E-1,1.295650462E1
1.144504204E1,1.141122025E1,-7.304659882E0,3.635939026E-1,1.355382618E1
1.145505004E1,1.189785828E1,-8.023016052E0,3.821553040E-1,1.435527293E1
1.146505804E1,1.238060440E1,-8.742120667E0,4.188290405E-1,1.516177618E1
1.147506604E1,1.259301270E1,-9.113947449E0,4.168830872E-1,1.555062051E1
1.148507504E1,1.271575745E1,-9.255702667E0,4.014651489E-1,1.573275861E1
1.149508304E1,1.268117935E1,-9.276060333E0,5.373825073E-1,1.572089008E1
1.150509104E1,1.240724899E1,-8.978778534E0,7.110214233E-1,1.533179190E1
1.151509904E1,1.199410812E1,-8.697064362E0,8.442443848E-1,1.483948472E1
1.152510704E1,1.157303375E1,-8.534502411E0,1.054257660E0,1.441819340E1
1.153511504E1,1.123339005E1,-8.346493378E0,1.268162842E0,1.405209026E1
1.154512404E1,1.094254486E1,-8.178392944E0,1.339264984E0,1.372658114E1
1.155513204E1,1.063658112E1,-8.068970490E0,1.420396271E0,1.342619336E1
1.156514004E1,1.028885422E1,-7.989485779E0,1.499431915E0,1.311261607E1
1.157514804E1,9.908794556E0,-8.012537842E0,1.472338257E0,1.282781167E1
1.158515604E1,9.586065674E0,-8.064180450E0,1.398691406E0,1.260476097E1
1.159516404E1,9.226812744E0,-8.059091034E0,1.260977783E0,1.231556278E1
1.160517304E1,8.929830322E0,-8.076305237E0,1.140029297E0,1.209414084E1
1.161518104E1,8.650810547E0,-8.130043488E0,1.071022797E0,1.191978272E1
1.162518904E1,8.352480927E0,-8.106692047E0,1.002315674E0,1.168276638E1
1.163519704E1,8.033494263E0,-8.173453217E0,9.660910034E-1,1.150111731E1
1.164520504E1,7.695497131E0,-8.120613098E0,1.013542328E0,1.123353467E1
1.165521304E1,7.397167511E0,-8.053552551E0,1.020428009E0,1.098267131E1
1.166522204E1,7.123985596E0,-7.981701965E0,1.049916687E0,1.074993312E1
1.167523004E1,6.861730957E0,-7.824379120E0,1.123563538E0,1.046740920E1
1.168523804E1,6.588399353E0,-7.665559387E0,1.158590698E0,1.017399328E1
1.169524604E1,6.343059540E0,-7.520361328E0,1.171463928E0,9.907702386E0
1.170525404E1,6.140231323E0,-7.396568756E0,1.083596649E0,9.673978073E0
1.171526304E1,6.065836029E0,-7.294481049E0,1.041085052E0,9.543986514E0
1.172527104E1,5.989195404E0,-7.172035675E0,9.220825195E-1,9.389291426E0
1.173527904E1,5.925877075E0,-7.079528046E0,7.650590515E-1,9.263965232E0
1.174528704E1,5.849984894E0,-6.992858276E0,6.204597473E-1,9.138236177E0
1.175529504E1,5.822142792E0,-6.952741699E0,4.587959290E-1,9.080113299E0
1.176530304E1,5.803880768E0,-6.874005432E0,3.129991150E-1,9.001941518E0
1.177531204E1,5.792354736E0,-6.810238037E0,2.321672058E-1,8.943411940E0
1.178532004E1,5.881569214E0,-6.750961304E0,2.137554932E-1,8.956228355E0
1.179532804E1,6.007906494E0,-6.695576477E0,1.320254517E-1,8.996839196E0
1.180533604E1,6.106551361E0,-6.660549316E0,9.430389404E-3,9.036203608E0
1.181534404E1,6.207142181E0,-6.593039703E0,5.119354248E-2,9.055352416E0
1.182535204E1,6.312972107E0,-6.495292969E0,1.225950623E-1,9.058558225E0
1.183536104E1,6.422693939E0,-6.410269775E0,1.231938171E-1,9.075116129E0
1.184536904E1,6.487060089E0,-6.290219421E0,1.725910950E-1,9.037621183E0
1.185537704E1,6.558311920E0,-6.121071167E0,2.324665833E-1,8.974018508E0
1.186538504E1,6.574927368E0,-5.971681824E0,3.029699707E-1,8.887206789E0
1.187539304E1,6.570586395E0,-5.867049408E0,3.864962769E-1,8.817270196E0
1.188540104E1,6.593339081E0,-5.804030457E0,3.745211792E-1,8.791993852E0
1.189541004E1,6.588698730E0,-5.791755981E0,3.150947571E-1,8.778079119E0
1.190541804E1,6.532864838E0,-5.754333801E0,3.649411011E-1,8.713430007E0
1.191542604E1,6.476282501E0,-5.762117615E0,4.300556946E-1,8.679238581E0
1.192543404E1,6.474935303E0,-5.843997345E0,4.119433594E-1,8.731940762E0
1.193544204E1,6.424340515E0,-5.951024780E0,3.996688843E-1,8.766218239E0
1.194545104E1,6.349196777E0,-6.129154358E0,4.465214539E-1,8.836187768E0
1.195545904E1,6.321504364E0,-6.384673004E0,4.143383789E-1,8.994283912E0
1.196546704E1,6.344706116E0,-6.734196167E0,3.225791931E-1,9.257902087E0
1.197547504E1,6.456972656E0,-7.071594543E0,3.306623840E-1,9.581716072E0
1.198548304E1,6.531068573E0,-7.290738831E0,3.113525391E-1,9.793195076E0
1.199549104E1,6.552923126E0,-7.435487823E0,2.125579834E-1,9.913246772E0
1.200550004E1,6.538852386E0,-7.503596191E0,1.827699280E-1,9.954594476E0
1.201550804E1,6.497538300E0,-7.438182220E0,1.924996948E-1,9.878340692E0
1.202551604E1,6.510860596E0,-7.360044708E0,1.037342834E-1,9.827121888E0
1.203552404E1,6.596482544E0,-7.398365021E0,8.083190918E-3,9.912086171E0
1.204553204E1,6.752158813E0,-7.583080902E0,-1.691482544E-1,1.015496803E1
1.205554004E1,7.002737732E0,-7.981252899E0,-3.797602844E-1,1.062463889E1
1.206554904E1,7.226372681E0,-8.471034393E0,-6.004014587E-1,1.115075637E1
1.207555704E1,7.333250427E0,-8.892857208E0,-7.809260559E-1,1.155289213E1
1.208556504E1,7.267537079E0,-8.994046783E0,-8.240364075E-1,1.159262734E1
1.209557304E1,7.054230652E0,-8.897796936E0,-8.291258240E-1,1.138509596E1
1.210558104E1,6.825057220E0,-8.751551056E0,-7.333250427E-1,1.112244656E1
1.211559004E1,6.663842468E0,-8.622070312E0,-5.926176453E-1,1.091320707E1
1.212559804E1,6.588249664E0,-8.383017426E0,-4.312532043E-1,1.067080101E1
1.213560604E1,6.496490479E0,-8.059240723E0,-2.817141724E-1,1.035543879E1
1.214561404E1,6.523434448E0,-7.830216980E0,-9.220825195E-2,1.019195748E1
1.215562204E1,6.582112427E0,-7.646997986E0,2.784210205E-2,1.008967578E1
1.216563004E1,6.649622040E0,-7.444469147E0,5.014572144E-2,9.981989218E0
1.217563904E1,6.821764069E0,-7.248077545E0,-5.807922363E-2,9.953615740E0
1.218564704E1,6.975943451E0,-7.265740814E0,-2.613565063E-1,1.007586641E1
1.219565504E1,7.265142059E0,-7.256160736E0,-4.177812195E-1,1.027660931E1
1.220566304E1,7.673941956E0,-7.306007080E0,-6.616241455E-1,1.061625504E1
1.221567104E1,8.225544891E0,-7.425758057E0,-8.511300659E-1,1.111422034E1
1.222567904E1,8.681496735E0,-7.450905762E0,-1.121018829E0,1.149526274E1
1.223568804E1,8.965755615E0,-7.345824280E0,-1.422042847E0,1.167767588E1
1.224569604E1,9.137448578E0,-7.118447113E0,-1.645677795E0,1.169929533E1
1.225570404E1,9.172625427E0,-6.797514496E0,-1.799557800E0,1.155775362E1
1.226571204E1,9.111851807E0,-6.490203552E0,-1.928589478E0,1.135200612E1
1.227572004E1,9.021739197E0,-6.184688873E0,-2.044298859E0,1.112750252E1
1.228572904E1,8.876092072E0,-5.893244934E0,-2.115251312E0,1.086230337E1
1.229573704E1,8.736133118E0,-5.631738739E0,-2.182910614E0,1.062080985E1
1.230574504E1,8.605005798E0,-5.480553131E0,-2.157912598E0,1.042780774E1
1.231575304E1,8.540489960E0,-5.445076904E0,-2.051184540E0,1.033422417E1
1.232576104E1,8.479117584E0,-5.447172546E0,-1.913021851E0,1.025801035E1
1.233576904E1,8.357869720E0,-5.486390991E0,-1.715133362E0,1.014377419E1
1.234577804E1,8.139623566E0,-5.641618195E0,-1.495240631E0,1.001584106E1
1.235579042E1,7.914940796E0,-5.748945007E0,-1.237027588E0,9.860369859E0
1.236579842E1,7.706873474E0,-5.796845398E0,-9.830058289E-1,9.693586322E0
1.237580642E1,7.469018097E0,-5.937403107E0,-7.634124756E-1,9.571926953E0
1.238581442E1,7.286996613E0,-6.100414124E0,-4.914280701E-1,9.516137539E0
1.239582342E1,7.114704895E0,-6.175557861E0,-2.856060791E-1,9.425397152E0
1.240583142E1,7.049440613E0,-6.250701599E0,-8.681945801E-2,9.421964819E0
1.241583942E1,6.990014191E0,-6.323150940E0,8.741821289E-2,9.426037245E0
1.242584742E1,6.920259247E0,-6.396797791E0,2.505789185E-1,9.427184087E0
1.243585542E1,6.855144653E0,-6.392007751E0,3.589535522E-1,9.379745144E0
1.244586342E1,6.867269440E0,-6.391109619E0,5.291496277E-1,9.396045501E0
1.245587242E1,6.890471191E0,-6.386319580E0,6.740483093E-1,9.419023948E0
1.246588042E1,6.980583801E0,-6.395001526E0,7.445516968E-1,9.496259893E0
1.247588842E1,7.087611237E0,-6.424340515E0,7.499404907E-1,9.595248555E0
1.248589642E1,7.224426727E0,-6.445746002E0,7.265890503E-1,9.709166530E0
1.249590442E1,7.346872101E0,-6.436465302E0,7.158114624E-1,9.793722545E0
1.250591342E1,7.498656464E0,-6.443201294E0,7.071295166E-1,9.911847650E0
1.251592142E1,7.721692657E0,-6.428082733E0,6.671626282E-1,1.006925474E1
1.252592942E1,7.954458618E0,-6.343209229E0,5.677693176E-1,1.018980261E1
1.253593742E1,8.222850494E0,-6.258036346E0,5.155279541E-1,1.034620985E1
1.254594542E1,8.487649841E0,-6.216422882E0,4.733157349E-1,1.053129342E1
1.255595342E1,8.820707245E0,-6.214776306E0,4.267625427E-1,1.079863172E1
1.256596242E1,9.141190796E0,-6.201004944E0,3.210823059E-1,1.105065271E1
1.257597042E1,9.498048706E0,-6.203998718E0,2.603086853E-1,1.134769976E1
1.258597842E1,9.809550934E0,-6.154900818E0,2.610571289E-1,1.158353333E1
1.259598642E1,1.005563919E1,-6.074967041E0,2.383044434E-1,1.175065501E1
1.260599442E1,1.026894562E1,-6.001918945E0,1.652563477E-1,1.189544387E1
1.261600342E1,1.054676788E1,-6.070925446E0,1.116677856E-1,1.216975424E1
1.262601142E1,1.093236603E1,-6.417754211E0,1.562750244E-1,1.267787908E1
1.263601942E1,1.144939087E1,-7.053332520E0,1.775308228E-1,1.344877571E1
1.264602742E1,1.213601303E1,-8.070018311E0,1.538800049E-1,1.457503643E1
1.265603542E1,1.293849426E1,-9.433383179E0,5.882766724E-2,1.601239559E1
1.266604342E1,1.346135696E1,-1.024963577E1,9.056167603E-2,1.691955573E1
1.267605242E1,1.359278366E1,-1.028376480E1,1.516346741E-1,1.704530960E1
1.268606042E1,1.346839233E1,-9.797126770E0,4.144880676E-1,1.665992453E1
1.269606842E1,1.300899765E1,-9.281299438E0,6.005511475E-1,1.599178542E1
1.270607642E1,1.228405518E1,-8.654702454E0,8.656498718E-1,1.505161904E1
1.271608442E1,1.175430679E1,-7.948171692E0,1.193617859E0,1.423944820E1
1.272609342E1,1.143726608E1,-7.466024323E0,1.380130005E0,1.372797631E1
1.273610142E1,1.107980942E1,-7.213499451E0,1.340761871E0,1.328888233E1
1.274610942E1,1.074779984E1,-7.140151978E0,1.232836304E0,1.296213165E1
1.275611742E1,1.037013519E1,-7.249873810E0,1.118474121E0,1.270241546E1
1.276612542E1,9.956096191E0,-7.455097046E0,9.626481628E-1,1.247513586E1
1.277613342E1,9.663903809E0,-7.624245300E0,7.367678833E-1,1.233138192E1
1.278614242E1,9.446705475E0,-7.966583405E0,5.313949585E-1,1.236887530E1
1.279615042E1,9.158105621E0,-8.244854736E0,4.321513367E-1,1.233025884E1
1.280615842E1,8.880732422E0,-8.363108826E0,3.424877930E-1,1.220353619E1
1.281616642E1,8.605454865E0,-8.522078247E0,3.791615295E-1,1.211707203E1
1.282617442E1,8.366701355E0,-8.663234711E0,4.924758911E-1,1.205387322E1
1.283618342E1,8.181386719E0,-8.686286774E0,5.888754272E-1,1.194711015E1
1.284619142E1,8.028255157E0,-8.731043701E0,6.289920044E-1,1.187769489E1
1.285619942E1,7.891289978E0,-8.742719421E0,7.725434875E-1,1.180272951E1
1.286620742E1,7.821085968E0,-8.716523895E0,8.204438782E-1,1.173968921E1
1.287621542E1,7.775580597E0,-8.703351288E0,7.280859375E-1,1.169350616E1
1.288622342E1,7.675438843E0,-8.603808289E0,6.315367126E-1,1.154715190E1
1.289623242E1,7.545509033E0,-8.488098907E0,5.150788879E-1,1.136872182E1
1.290624042E1,7.410190430E0,-8.386011200E0,3.677851868E-1,1.119693583E1
1.291624842E1,7.268884277E0,-8.260871429E0,2.119592285E-1,1.100561684E1
1.292625642E1,7.145391083E0,-8.132737885E0,8.068222046E-2,1.082610497E1
1.293626442E1,7.037764893E0,-8.001610565E0,-1.197509766E-3,1.065626143E1
1.294627342E1,6.988666992E0,-7.957751770E0,-1.550775146E-1,1.059204081E1
1.295628142E1,6.968459015E0,-7.942034454E0,-2.031275940E-1,1.056771466E1
1.296628942E1,6.947352905E0,-7.917485504E0,-1.534309387E-1,1.053450664E1
1.297629742E1,7.017856293E0,-7.974666595E0,-1.616638184E-1,1.062411170E1
1.298630542E1,7.140750732E0,-8.045469360E0,-2.327659607E-1,1.075983635E1
1.299631442E1,7.195686493E0,-8.001011810E0,-2.383044434E-1,1.076340481E1
1.300632242E1,7.171436920E0,-7.862998810E0,-1.857637024E-1,1.064381351E1
1.301633042E1,7.137906647E0,-7.674989777E0,-1.957928467E-1,1.048301074E1
1.302633842E1,7.040758667E0,-7.407346344E0,-2.372566223E-1,1.022239469E1
1.303634642E1,6.905440063E0,-7.134014740E0,-2.170486450E-1,9.931081456E0
1.304635442E1,6.773115234E0,-6.903643799E0,-1.898052979E-1,9.673231814E0
1.305636342E1,6.692582703E0,-6.741231537E0,-1.335223389E-1,9.500141793E0
1.306637142E1,6.643634491E0,-6.658004608E0,-9.475296021E-2,9.406161956E0
1.307637942E1,6.505621490E0,-6.611900482E0,-8.412506104E-2,9.276174642E0
1.308638742E1,6.362968140E0,-6.631509705E0,-4.670288086E-2,9.190563947E0
1.309639542E1,6.226751404E0,-6.690037994E0,1.826202393E-2,9.139440624E0
1.310640442E1,6.151158600E0,-6.773564301E0,6.870712280E-2,9.150007985E0
1.311641242E1,6.047124939E0,-6.909032593E0,1.164578247E-1,9.182375173E0
1.312642042E1,5.908812561E0,-7.067253571E0,1.811233521E-1,9.213736733E0
1.313642842E1,5.774242401E0,-7.213798828E0,1.800755310E-1,9.241925992E0
1.314643642E1,5.623056793E0,-7.323969727E0,9.041198730E-2,9.234038910E0
1.315644442E1,5.472320251E0,-7.388186188E0,1.031355286E-1,9.194684389E0
1.316645342E1,5.347030792E0,-7.366631012E0,1.507365417E-1,9.103884460E0
1.317646142E1,5.226082306E0,-7.309300232E0,9.265731812E-2,8.985899595E0
1.318646942E1,5.153483276E0,-7.271279297E0,1.362167358E-2,8.912355359E0
1.319647742E1,5.154830475E0,-7.315138092E0,-5.748046875E-2,8.949124345E0
1.320648542E1,5.261857910E0,-7.563621368E0,-1.850152588E-1,9.215733694E0
1.321649442E1,5.429658966E0,-8.019722900E0,-4.278103638E-1,9.694337192E0
1.322650242E1,5.638175354E0,-8.503816223E0,-6.529421997E-1,1.022400338E1
1.323651042E1,5.660778351E0,-8.742270355E0,-7.607180786E-1,1.044271969E1
1.324651842E1,5.589526520E0,-8.731642456E0,-7.716453552E-1,1.039614463E1
1.325652642E1,5.433850250E0,-8.587342529E0,-6.741979980E-1,1.018448443E1
1.326653542E1,5.273683319E0,-8.358019409E0,-5.278024292E-1,9.896807546E0
1.327654342E1,5.186115417E0,-8.101303253E0,-3.713777161E-1,9.626257265E0
1.328655142E1,5.244194641E0,-7.816744995E0,-1.236428833E-1,9.413732911E0
1.329655942E1,5.333858185E0,-7.452702026E0,8.786727905E-2,9.165180374E0
1.330656742E1,5.419929199E0,-7.079677734E0,1.062789917E-1,8.916768729E0
1.331657542E1,5.584287415E0,-6.874304810E0,1.234931946E-1,8.857515629E0
1.332658442E1,5.773493958E0,-6.783892822E0,8.921447754E-2,8.908557320E0
1.333659242E1,6.008205872E0,-6.765481110E0,-7.110214233E-2,9.048498657E0
1.334660042E1,6.312373352E0,-6.793622589E0,-2.954855347E-1,9.278290625E0
1.335660450E1,6.679260406E0,-6.928641815E0,-5.041516113E-1,9.637051719E0
1.336661250E1,7.191644897E0,-7.176376648E0,-7.309300232E-1,1.018599022E1
1.337662150E1,7.731871490E0,-7.471263428E0,-1.033600616E0,1.080138622E1
1.338662950E1,8.293353882E0,-7.740104370E0,-1.358125763E0,1.142512319E1
1.339663750E1,8.762478333E0,-7.935897217E0,-1.664089508E0,1.193853781E1
1.340664550E1,9.140891418E0,-8.033793640E0,-1.929337921E0,1.232152917E1
1.341665350E1,9.380992126E0,-7.961643677E0,-2.126028900E0,1.248642392E1
1.342666150E1,9.469607849E0,-7.774383087E0,-2.319875793E0,1.246981671E1
1.343667050E1,9.504185944E0,-7.530390472E0,-2.453547821E0,1.237158955E1
1.344667850E1,9.466763763E0,-7.216642914E0,-2.531086578E0,1.216987881E1
1.345668650E1,9.358239441E0,-6.921307068E0,-2.536026306E0,1.191270609E1
1.346669450E1,9.255253601E0,-6.771917725E0,-2.361638947E0,1.170879701E1
1.347670250E1,9.216035156E0,-6.744524689E0,-2.117646332E0,1.161500509E1
1.348671150E1,9.159901886E0,-6.794670410E0,-1.830992432E0,1.155092558E1
1.349671950E1,9.038654022E0,-6.962621155E0,-1.533560944E0,1.151204452E1
1.350672750E1,8.837771759E0,-7.263794861E0,-1.206491089E0,1.150324068E1
1.351673550E1,8.605903931E0,-7.513176270E0,-8.394543457E-1,1.145487162E1
1.352674350E1,8.436156921E0,-7.677833862E0,-5.432203674E-1,1.141984960E1
1.353675250E1,8.164471893E0,-7.891888733E0,-3.785627747E-1,1.136150601E1
1.354676050E1,7.924221497E0,-8.045918427E0,-1.574725342E-1,1.129401998E1
1.355676850E1,7.705675964E0,-8.008795624E0,1.387614441E-1,1.111474265E1
1.356677650E1,7.581434326E0,-8.018375702E0,3.135978699E-1,1.103951262E1
1.357678450E1,7.489824829E0,-8.046666870E0,4.092489624E-1,1.100062764E1
1.358679350E1,7.440726929E0,-7.847281494E0,6.134243774E-1,1.083146036E1
1.359680150E1,7.411986694E0,-7.682474213E0,7.511380005E-1,1.070150294E1
1.360680950E1,7.358547821E0,-7.351362762E0,8.979826355E-1,1.044016922E1
1.361681750E1,7.402556305E0,-7.070247345E0,9.559121704E-1,1.028105079E1
1.362682550E1,7.558531952E0,-6.883136444E0,9.532177734E-1,1.026730718E1
1.363683350E1,7.795040131E0,-6.708898773E0,8.628057861E-1,1.032067862E1
1.364684250E1,8.037535858E0,-6.530469818E0,8.005352783E-1,1.038700512E1
1.365685050E1,8.259673920E0,-6.389013977E0,6.475534058E-1,1.046236294E1
1.366685850E1,8.494834900E0,-6.249354401E0,4.808001709E-1,1.055688492E1
1.367686650E1,8.776100006E0,-6.119574280E0,3.150947571E-1,1.070366318E1
1.368687450E1,9.059460754E0,-6.011798401E0,1.597178650E-1,1.087387047E1
1.369688350E1,9.318721619E0,-5.917644196E0,9.370513916E-2,1.103928739E1
1.370689150E1,9.574240265E0,-5.836512909E0,1.002914429E-1,1.121343025E1
1.371689950E1,9.837542725E0,-5.783523102E0,6.960525513E-2,1.141188991E1
1.372690750E1,1.012000534E1,-5.747298431E0,8.337661743E-2,1.163842339E1
1.373691550E1,1.037836807E1,-5.752238159E0,1.877096558E-1,1.186735028E1
1.374692450E1,1.058044785E1,-5.778882751E0,2.197430420E-1,1.205776304E1
1.375693250E1,1.072489746E1,-5.806275787E0,2.842588806E-1,1.219906009E1
1.376694050E1,1.079510147E1,-5.821993103E0,4.379891968E-1,1.227280139E1
1.377694850E1,1.079749649E1,-5.831722870E0,5.825885010E-1,1.228553342E1
1.378695650E1,1.072654404E1,-5.837411041E0,7.134164429E-1,1.223286874E1
1.379696450E1,1.066068100E1,-5.839656372E0,9.063652039E-1,1.218906083E1
1.380697350E1,1.063209045E1,-5.858966217E0,1.096020813E0,1.218893327E1
1.381698150E1,1.061772034E1,-6.023025055E0,1.181193695E0,1.226409534E1
1.382698950E1,1.067385361E1,-6.494095459E0,1.208736420E0,1.255250853E1
1.383699750E1,1.091859467E1,-7.235653381E0,1.274150391E0,1.316031339E1
1.384700550E1,1.140493332E1,-8.189619598E0,1.215921478E0,1.409329054E1
1.385701450E1,1.195818283E1,-9.292526093E0,1.025966492E0,1.517899157E1
1.386702250E1,1.234857101E1,-1.004590942E1,9.217831421E-1,1.594544406E1
1.387703050E1,1.254421417E1,-1.017808456E1,9.621990967E-1,1.618259997E1
1.388703850E1,1.252400620E1,-9.976902924E0,1.108444977E0,1.605048203E1
1.389704650E1,1.228630051E1,-9.526040497E0,1.228794708E0,1.559514553E1
1.390705550E1,1.189740921E1,-8.811725922E0,1.421444092E0,1.487331042E1
1.391706350E1,1.149100433E1,-8.087831268E0,1.526226196E0,1.413455205E1
1.392707150E1,1.124970612E1,-7.612868958E0,1.411414948E0,1.365663771E1
1.393707950E1,1.102652023E1,-7.458988953E0,1.283730469E0,1.337417768E1
1.394708750E1,1.079120956E1,-7.471862183E0,1.135838013E0,1.317456095E1
1.395709650E1,1.049407745E1,-7.601342926E0,9.605525208E-1,1.299341129E1
1.396710450E1,1.010473709E1,-7.824678497E0,6.619235229E-1,1.279724377E1
1.397711250E1,9.792935486E0,-8.210126953E0,4.041595459E-1,1.278558231E1
1.398712050E1,9.505682831E0,-8.616382141E0,3.379971313E-1,1.283410649E1
1.399712850E1,9.243278503E0,-8.953032074E0,2.450404358E-1,1.287070416E1
1.400713750E1,9.088650055E0,-9.373956757E0,1.681004333E-1,1.305767525E1
1.401714550E1,8.879534912E0,-9.684411163E0,1.338217163E-1,1.313970578E1
1.402715350E1,8.645272064E0,-9.836045837E0,2.071691895E-1,1.309700141E1
1.403716150E1,8.380323029E0,-9.875264282E0,4.047583008E-1,1.295818228E1
1.404716950E1,8.150550842E0,-9.841584320E0,6.062393188E-1,1.279280216E1
1.405717750E1,8.024363251E0,-9.780511322E0,6.993457031E-1,1.267035484E1
1.406718650E1,7.980205078E0,-9.695937195E0,6.768923950E-1,1.257589180E1
1.407719450E1,7.909402313E0,-9.552984467E0,6.710545349E-1,1.242048596E1
1.408720250E1,7.779771881E0,-9.389374695E0,6.520440674E-1,1.221107568E1
1.409721050E1,7.654482422E0,-9.203910370E0,5.203179932E-1,1.198222843E1
1.410721850E1,7.539521484E0,-9.007818146E0,3.297642517E-1,1.175133679E1
1.411722750E1,7.420968018E0,-8.849447479E0,1.213975525E-1,1.154981491E1
1.412723550E1,7.281009064E0,-8.676257629E0,-1.181044006E-1,1.132715711E1
1.413724350E1,7.142097931E0,-8.469088440E0,-3.679348755E-1,1.108469205E1
1.414725150E1,7.099586334E0,-8.311166840E0,-4.562512207E-1,1.094019129E1
1.415725950E1,7.030879211E0,-8.114625549E0,-5.478607178E-1,1.075084004E1
1.416726850E1,6.918462982E0,-7.869884491E0,-6.722520447E-1,1.050010165E1
1.417727650E1,6.791826324E0,-7.637268219E0,-6.881190491E-1,1.024354814E1
1.418728450E1,6.688391418E0,-7.412435760E0,-6.189628601E-1,1.000309446E1
1.419729250E1,6.590045929E0,-7.213349762E0,-6.261479187E-1,9.790463796E0
1.420730050E1,6.495143280E0,-7.039112091E0,-6.259982300E-1,9.598325846E0
1.421730950E1,6.377487946E0,-6.830895081E0,-4.846920776E-1,9.357799234E0
1.422731750E1,6.226152649E0,-6.595734100E0,-3.610491943E-1,9.077391787E0
1.423732550E1,6.102360077E0,-6.433172150E0,-2.914439392E-1,8.871834195E0
1.424733350E1,5.968089294E0,-6.297853546E0,-1.800755310E-1,8.678333729E0
1.425734150E1,5.842350769E0,-6.164331207E0,-5.613327026E-2,8.493243944E0
1.426735050E1,5.726641388E0,-6.071374512E0,-5.373825073E-2,8.346190619E0
1.427735850E1,5.649701385E0,-6.028413849E0,5.538482666E-2,8.262201084E0
1.428736650E1,5.573210449E0,-6.027515717E0,1.872605896E-1,8.211375460E0
1.429737450E1,5.500162354E0,-6.097719727E0,1.652563477E-1,8.213481688E0
1.430738250E1,5.431455231E0,-6.186784515E0,1.398092651E-1,8.233866358E0
1.431739050E1,5.378315735E0,-6.264622650E0,1.817221069E-1,8.258619740E0
1.432739950E1,5.310057678E0,-6.376440125E0,1.758842468E-1,8.299797376E0
1.433740750E1,5.229974213E0,-6.529571686E0,1.179547119E-1,8.366710822E0
1.434741550E1,5.174739075E0,-6.652915192E0,1.639091492E-1,8.430069469E0
1.435742300E1,5.117108917E0,-6.748715973E0,1.109193420E-1,8.470081113E0
1.436743100E1,5.077591095E0,-6.859785004E0,1.031355286E-1,8.535175368E0
1.437744000E1,4.967719574E0,-6.856641541E0,2.011816406E-1,8.469489066E0
1.438744800E1,4.867128754E0,-6.805597687E0,2.252815247E-1,8.369937511E0
1.439745600E1,4.861141205E0,-6.781797180E0,1.673519897E-1,8.345745832E0
1.440746400E1,4.872816925E0,-6.709647217E0,1.055305481E-1,8.293060186E0
1.441747200E1,4.816533966E0,-6.630910950E0,4.266128540E-2,8.195718361E0
1.442748100E1,4.859644318E0,-6.797065430E0,-1.407073975E-1,8.356796032E0
1.443748900E1,5.065466309E0,-7.189698944E0,-4.129911804E-1,8.804617058E0
1.444749700E1,5.362149353E0,-7.742200012E0,-7.485932922E-1,9.447470488E0
1.445750500E1,5.658982086E0,-8.271349640E0,-9.295669556E-1,1.006495891E1
1.446751300E1,5.816753998E0,-8.551117859E0,-8.955876160E-1,1.038067054E1
1.447752200E1,5.814808044E0,-8.555009766E0,-9.491761780E-1,1.038754639E1
1.448753000E1,5.828878784E0,-8.465645599E0,-8.758287048E-1,1.031552515E1
1.449753800E1,5.873785400E0,-8.293054504E0,-6.556365967E-1,1.018361268E1
1.450754600E1,6.019731903E0,-8.084538116E0,-4.797523499E-1,1.009094104E1
1.451755400E1,6.216123505E0,-7.892637177E0,-3.561094666E-1,1.005289645E1
1.452756300E1,6.504124603E0,-7.812853088E0,-2.863545227E-1,1.016987262E1
1.453757100E1,6.787635040E0,-7.829318848E0,-3.350033569E-1,1.036737432E1
1.454757900E1,7.121291199E0,-7.916587372E0,-4.149371338E-1,1.065632755E1
1.455758700E1,7.481142883E0,-8.022716675E0,-5.875282288E-1,1.098529340E1
1.456759500E1,7.948321381E0,-8.269852753E0,-8.116122437E-1,1.149891263E1
1.457760400E1,8.510851593E0,-8.586294708E0,-1.040785675E0,1.213434327E1
1.458761200E1,9.109307098E0,-8.859326935E0,-1.224154358E0,1.276580211E1
1.459762000E1,9.711504822E0,-9.055269470E0,-1.449286194E0,1.335708282E1
1.460762800E1,1.021865021E1,-9.108408966E0,-1.686692505E0,1.379234779E1
1.461763600E1,1.068927155E1,-9.040001221E0,-1.869761810E0,1.412367365E1
1.462764400E1,1.095916031E1,-8.764424286E0,-1.982477417E0,1.417210445E1
1.463765300E1,1.120794296E1,-8.309220886E0,-2.019450531E0,1.409749331E1
1.464766100E1,1.119731506E1,-7.834108887E0,-2.023192749E0,1.381471808E1
1.465766900E1,1.106364304E1,-7.368427277E0,-2.018253021E0,1.344512042E1
1.466767700E1,1.087024521E1,-6.907535706E0,-1.924996948E0,1.302236129E1
1.467768500E1,1.068418213E1,-6.474486237E0,-1.740580444E0,1.261349833E1
1.468769400E1,1.045470932E1,-6.124663696E0,-1.591191101E0,1.222065225E1
1.469770200E1,1.016551071E1,-5.945336609E0,-1.459015961E0,1.186648065E1
1.470771000E1,9.771829376E0,-5.901926880E0,-1.211730194E0,1.147996865E1
1.471771800E1,9.268725586E0,-5.901178436E0,-9.268725586E-1,1.102688867E1
1.472772600E1,8.829089813E0,-5.888305206E0,-6.822811890E-1,1.063440044E1
1.473773500E1,8.408464508E0,-6.018983459E0,-4.956193542E-1,1.035258788E1
1.474774300E1,7.962541809E0,-6.200106812E0,-3.234773254E-1,1.009693192E1
1.475775100E1,7.567363586E0,-6.271807709E0,-1.624122620E-1,9.829900372E0
1.476775900E1,7.201823730E0,-6.358178101E0,-6.092330933E-2,9.607101824E0
1.477776700E1,6.819369049E0,-6.487808533E0,1.582209778E-1,9.413845530E0
1.478777600E1,6.544091492E0,-6.474486237E0,4.046086121E-1,9.214543592E0
1.479778400E1,6.288423157E0,-6.446344757E0,5.989045715E-1,9.025425930E0
1.480779200E1,6.143524475E0,-6.489455109E0,7.466473389E-1,8.967352052E0
1.481780000E1,6.053112488E0,-6.593488770E0,9.216334534E-1,8.997981616E0
1.482780800E1,5.950575714E0,-6.593788147E0,1.074615326E0,8.946630179E0
1.483781700E1,5.915398865E0,-6.552024994E0,1.199306030E0,8.908384264E0
1.484782500E1,5.946833496E0,-6.554120636E0,1.290167084E0,8.943481260E0
1.485783300E1,6.019582214E0,-6.527775421E0,1.394799500E0,8.988475267E0
1.486784100E1,6.114035797E0,-6.466253357E0,1.502126312E0,9.024979206E0
1.487784900E1,6.202801208E0,-6.441255341E0,1.529968414E0,9.072227761E0
1.488785800E1,6.365512848E0,-6.389013977E0,1.564097443E0,9.153450400E0
1.489786600E1,6.666836243E0,-6.315367126E0,1.531614990E0,9.310016751E0
1.490787400E1,7.074738007E0,-6.331533508E0,1.364412689E0,9.591759818E0
1.491788200E1,7.468119965E0,-6.341862030E0,1.211879883E0,9.872217718E0
1.492789000E1,7.883805542E0,-6.346352692E0,1.039737854E0,1.017406689E1
1.493789900E1,8.406368866E0,-6.386169891E0,8.137078857E-1,1.058831072E1
1.494790700E1,8.852890320E0,-6.347101135E0,6.765930176E-1,1.091407980E1
1.495791500E1,9.269773407E0,-6.306834869E0,5.424719238E-1,1.122493389E1
1.496792300E1,9.724677429E0,-6.301895142E0,3.882925415E-1,1.159456789E1
1.497793100E1,1.019499939E1,-6.285130005E0,2.906954956E-1,1.198020766E1
1.498794000E1,1.064391586E1,-6.204447784E0,1.770817566E-1,1.232150458E1
1.499794800E1,1.098565521E1,-6.034251709E0,8.891510010E-2,1.253414217E1
1.500795600E1,1.122815094E1,-5.791456604E0,8.337661743E-2,1.263405298E1
1.501796400E1,1.137424713E1,-5.555098114E0,5.463638306E-2,1.265842004E1
1.502797200E1,1.147319138E1,-5.367987213E0,4.655319214E-2,1.266694810E1
1.503798100E1,1.160012741E1,-5.385949860E0,1.522334290E-1,1.279040996E1
1.504798900E1,1.182600769E1,-5.708079987E0,2.561174011E-1,1.313401047E1
1.505799700E1,1.216101105E1,-6.347101135E0,2.386038208E-1,1.371979644E1
1.506800500E1,1.263043488E1,-7.308402100E0,1.880090332E-1,1.459369637E1
1.507801300E1,1.302486465E1,-8.318501587E0,6.795867920E-2,1.545474640E1
1.508802200E1,1.321092773E1,-9.013955383E0,4.490661621E-4,1.599312363E1
1.509803000E1,1.321496933E1,-9.327553253E0,-6.256988525E-2,1.617536952E1
1.510803800E1,1.307575882E1,-9.398056641E0,-7.125183105E-2,1.610291943E1
1.511804600E1,1.271171585E1,-9.153914337E0,8.831634521E-2,1.566491836E1
1.512805400E1,1.227013412E1,-8.739276581E0,1.817221069E-1,1.506533005E1
1.513806300E1,1.188797882E1,-8.291856995E0,1.606159973E-1,1.449498984E1
1.514807100E1,1.162437698E1,-7.993677063E0,2.079176331E-1,1.410915458E1
1.515807900E1,1.152737869E1,-8.017926636E0,2.023791504E-1,1.404309668E1
1.516808700E1,1.145058838E1,-8.244854736E0,4.954696655E-2,1.411014028E1
1.517809500E1,1.136346954E1,-8.548872528E0,-1.401086426E-1,1.422080490E1
1.518810400E1,1.127081223E1,-9.001531219E0,-3.258723450E-1,1.442792311E1
1.519811200E1,1.120315292E1,-9.538913727E0,-4.318519592E-1,1.472032631E1
1.520812000E1,1.108804230E1,-1.008198441E1,-5.646258545E-1,1.499699616E1
1.521812800E1,1.090961334E1,-1.064900528E1,-6.406677246E-1,1.525881489E1
1.522813600E1,1.072863968E1,-1.113205078E1,-5.295986938E-1,1.546954229E1
1.523814500E1,1.051159103E1,-1.154743698E1,-3.776646423E-1,1.561984243E1
1.524815300E1,1.022568558E1,-1.191582092E1,-3.176394653E-1,1.570516885E1
1.525816100E1,9.934391327E0,-1.224708206E1,-1.844165039E-1,1.577076915E1
1.526816900E1,9.696386261E0,-1.251113297E1,1.736389160E-2,1.582872882E1
1.527817700E1,9.390871582E0,-1.262564484E1,1.532812500E-1,1.573591026E1
1.528818600E1,9.030570831E0,-1.256472153E1,3.291654968E-1,1.547681448E1
1.529819400E1,8.688981171E0,-1.245769409E1,4.754113770E-1,1.519600447E1
1.530820200E1,8.354875946E0,-1.222612564E1,5.921685791E-1,1.482001228E1
1.531821000E1,8.020621033E0,-1.186088516E1,6.038442993E-1,1.433093111E1
1.532821800E1,7.727680206E0,-1.153097122E1,5.542973328E-1,1.389199713E1
1.533822700E1,7.413483582E0,-1.111842911E1,5.161267090E-1,1.337331640E1
1.534823500E1,7.105573883E0,-1.059347076E1,4.620890808E-1,1.276418150E1
1.535824312E1,6.822512512E0,-1.004695724E1,3.707789612E-1,1.215012362E1
1.536825113E1,6.571185150E0,-9.534273376E0,2.667453003E-1,1.158248661E1
1.537825913E1,6.356381836E0,-9.037456512E0,2.191442871E-1,1.105111915E1
1.538826812E1,6.116730194E0,-8.542884979E0,1.360670471E-1,1.050779645E1
1.539827613E1,5.883814545E0,-8.070018311E0,4.415817261E-2,9.987312906E0
1.540828413E1,5.699398041E0,-7.680228882E0,2.170486450E-2,9.563970138E0
1.541829212E1,5.565726013E0,-7.373816071E0,2.529739380E-2,9.238566418E0
1.542830013E1,5.429658966E0,-7.126829681E0,-3.308120728E-2,8.959575445E0
1.543830913E1,5.288801880E0,-6.903793488E0,-1.366658020E-1,8.697842686E0
1.544831712E1,5.150489502E0,-6.715934143E0,-1.633103943E-1,8.465103886E0
1.545832513E1,5.044809265E0,-6.564598846E0,-1.202000427E-1,8.280006436E0
1.546833312E1,4.925357666E0,-6.433022461E0,-1.258882141E-1,8.103010179E0
1.547834113E1,4.840184784E0,-6.300248566E0,-1.402583313E-1,7.946080363E0
1.548835013E1,4.757855988E0,-6.197562103E0,-1.498384094E-1,7.814692647E0
1.549835812E1,4.691843262E0,-6.111042023E0,-8.158035278E-2,7.704861008E0
1.550836613E1,4.646637268E0,-6.027665405E0,8.083190918E-3,7.610785339E0
1.551837413E1,4.631668396E0,-5.967789917E0,2.574645996E-2,7.554305494E0
1.552838212E1,4.621339874E0,-5.936804352E0,4.580474854E-2,7.523597957E0
1.553839113E1,4.644391937E0,-5.965694275E0,7.933502197E-2,7.560831878E0
1.554839913E1,4.699178009E0,-6.018684082E0,7.289840698E-2,7.636239010E0
1.555840712E1,4.841531982E0,-6.155349884E0,5.179229736E-2,7.831439623E0
1.556841513E1,5.050647125E0,-6.353837128E0,8.367599487E-2,8.117098269E0
1.557842312E1,5.203329620E0,-6.547384644E0,1.230441284E-1,8.364091383E0
1.558843212E1,5.331313477E0,-6.773264923E0,1.386117554E-1,8.620860417E0
1.559844013E1,5.469176788E0,-6.934479675E0,1.034349060E-1,8.832304450E0
1.560844812E1,5.524711304E0,-6.970854034E0,2.335144043E-2,8.894705518E0
1.561845613E1,5.575605469E0,-7.035669250E0,5.987548828E-3,8.977084939E0
1.562846413E1,5.650449829E0,-7.055428162E0,2.185455322E-2,9.039199491E0
1.563847313E1,5.668113098E0,-7.002737732E0,-1.995350647E-1,9.011418095E0
1.564848113E1,5.697003021E0,-7.005282440E0,-4.040098572E-1,9.038420739E0
1.565848913E1,5.700296173E0,-6.951843567E0,-5.514532471E-1,9.006975415E0
1.566849712E1,5.601501617E0,-6.860383759E0,-8.186476135E-1,8.894485348E0
1.567850513E1,5.467230835E0,-6.786138153E0,-1.095721436E0,8.783102499E0
1.568851413E1,5.331313477E0,-6.746021576E0,-1.314566345E0,8.698263917E0
1.569852212E1,5.244344330E0,-6.674919434E0,-1.420545959E0,8.606721078E0
1.570853013E1,5.258115692E0,-6.611002350E0,-1.479972382E0,8.575747836E0
1.571853813E1,5.308860168E0,-6.719676361E0,-1.584305420E0,8.709079765E0
1.572854613E1,5.288352814E0,-6.847510529E0,-1.633103943E0,8.804663787E0
1.573855513E1,5.416935425E0,-7.031178589E0,-1.515598297E0,9.004315629E0
1.574856313E1,5.587879944E0,-7.229067078E0,-1.213975525E0,9.217241977E0
1.575857112E1,5.891448669E0,-7.506889343E0,-7.583230591E-1,9.572753465E0
1.576857913E1,6.434669037E0,-7.828271027E0,-2.817141724E-1,1.013736434E1
1.577858712E1,7.086563416E0,-8.265661469E0,1.124162292E-1,1.088821280E1
1.578859612E1,7.777526550E0,-8.871002655E0,5.539979553E-1,1.181065286E1
1.579860413E1,8.568781128E0,-9.526788940E0,1.043779449E0,1.285586221E1
1.580861212E1,9.382339325E0,-1.026131149E1,1.337019653E0,1.396819338E1
1.581862013E1,1.017613861E1,-1.117201767E1,1.676962738E0,1.520460390E1
1.582862813E1,1.094838272E1,-1.220337296E1,2.192640381E0,1.654076986E1
1.583863712E1,1.183468964E1,-1.317769684E1,2.900518341E0,1.794782938E1
1.584864513E1,1.251068390E1,-1.419857391E1,3.725303192E0,1.928716145E1
1.585865313E1,1.265049316E1,-1.485645584E1,4.529281311E0,2.003156626E1
1.586866112E1,1.283850220E1,-1.527857803E1,5.172793121E0,2.061601014E1
1.587866913E1,1.264285904E1,-1.530177979E1,5.984854431E0,2.073173490E1
1.588867813E1,1.216669922E1,-1.501138367E1,6.711293793E0,2.045511364E1
1.589868612E1,1.159623550E1,-1.453252945E1,7.169341278E0,1.992652866E1
1.590869413E1,1.094089828E1,-1.395682663E1,7.514822845E0,1.926055106E1
1.591870212E1,1.040486298E1,-1.335208420E1,7.961493988E0,1.870627468E1
1.592871013E1,9.870923309E0,-1.262250137E1,8.194559326E0,1.799759624E1
1.593871913E1,9.286837921E0,-1.193348419E1,8.243507538E0,1.722233492E1
1.594872713E1,8.725355530E0,-1.144025986E1,8.223898315E0,1.657238300E1
1.595873513E1,8.158184967E0,-1.105526047E1,8.169561310E0,1.598488342E1
1.596874313E1,7.779472504E0,-1.056907150E1,7.920778656E0,1.532854198E1
1.597875112E1,7.568261719E0,-1.011880783E1,7.649542694E0,1.477106498E1
1.598876013E1,7.310497742E0,-9.790241089E0,7.254963226E0,1.421009111E1
1.599876813E1,7.184609528E0,-9.404942322E0,6.815327454E0,1.365724139E1
1.600877612E1,7.177274780E0,-8.969647522E0,6.365512848E0,1.313345361E1
1.601878413E1,7.252119141E0,-8.578810272E0,5.920338593E0,1.269801665E1
1.602879213E1,7.254065094E0,-8.109386444E0,5.476960602E0,1.218116194E1
1.603880112E1,7.244784393E0,-7.522157593E0,4.996310120E0,1.157725661E1
1.604880913E1,7.317233734E0,-7.026987305E0,4.635111237E0,1.115368622E1
1.605881713E1,7.357200623E0,-6.582711182E0,4.142934723E0,1.070627833E1
1.606882513E1,7.366181946E0,-6.246510315E0,3.646566925E0,1.032361264E1
1.607883313E1,7.314389648E0,-6.000422058E0,3.279530182E0,1.001302547E1
1.608884213E1,7.143145752E0,-5.760471039E0,2.984194336E0,9.649506394E0
1.609885012E1,6.881340179E0,-5.634133759E0,2.857108612E0,9.341272691E0
1.610885813E1,6.593788147E0,-5.646258545E0,2.817441101E0,9.126678040E0
1.611886612E1,6.415059814E0,-5.797444153E0,2.758912811E0,9.076064732E0
1.612887413E1,6.408922577E0,-6.057154083E0,2.783761139E0,9.247309353E0
1.613888313E1,6.355932770E0,-6.271957397E0,2.806513824E0,9.360120235E0
1.614889112E1,6.270759888E0,-6.514303436E0,2.881208496E0,9.489991635E0
1.615889913E1,6.267167358E0,-6.808741150E0,2.970422974E0,9.719040868E0
1.616890713E1,6.254144440E0,-7.070846100E0,2.992726593E0,9.902908649E0
1.617891612E1,6.203998718E0,-7.274123383E0,2.946472778E0,1.000420776E1
1.618892413E1,6.198310547E0,-7.436535645E0,2.989433441E0,1.013201995E1
1.619893213E1,6.215225372E0,-7.546107788E0,2.986140289E0,1.022202539E1
1.620894012E1,6.280489655E0,-7.696095886E0,2.924169159E0,1.035496052E1
1.621894813E1,6.324797516E0,-7.751181335E0,2.897075500E0,1.041522550E1
1.622895713E1,6.333180084E0,-7.676037598E0,2.852617950E0,1.035220519E1
1.623896512E1,6.421197052E0,-7.661068726E0,2.757864990E0,1.036964632E1
1.624897313E1,6.518345032E0,-7.609426117E0,2.628533936E0,1.035863787E1
1.625898112E1,6.571484528E0,-7.506140900E0,2.425256653E0,1.026686076E1
1.626898913E1,6.730903015E0,-7.488178253E0,2.229613495E0,1.031256735E1
1.627899813E1,6.960525513E0,-7.507188721E0,1.974394226E0,1.042617046E1
1.628900613E1,7.229067078E0,-7.517068176E0,1.659149780E0,1.056023214E1
1.629901413E1,7.483837280E0,-7.549999695E0,1.431024170E0,1.072651602E1
1.630902213E1,7.788004761E0,-7.620353394E0,1.261426849E0,1.096877394E1
1.631903012E1,8.073461151E0,-7.687114563E0,1.062490540E0,1.119827627E1
1.632903913E1,8.261470184E0,-7.687413940E0,8.086184692E-1,1.131380071E1
1.633904713E1,8.669970703E0,-7.656877441E0,6.297404480E-1,1.158415889E1
1.634905512E1,8.893605652E0,-7.533234558E0,3.695814514E-1,1.166115067E1
1.635906638E1,8.968150635E0,-7.435487823E0,1.552272034E-1,1.165067811E1
1.636907438E1,9.085207214E0,-7.338040466E0,-4.640350342E-2,1.167861213E1
1.637908338E1,9.208101654E0,-7.212451630E0,-2.387535095E-1,1.169895713E1
1.638909138E1,9.416767731E0,-7.131020966E0,-3.736230469E-1,1.181806112E1
1.639909938E1,9.623038788E0,-7.063511353E0,-4.610412598E-1,1.194607162E1
1.640910738E1,9.806856537E0,-7.017107849E0,-5.096900940E-1,1.206954936E1
1.641911537E1,9.979597321E0,-6.925049286E0,-4.882846069E-1,1.215677145E1
1.642912437E1,1.007000931E1,-6.787485352E0,-5.120851135E-1,1.215472238E1
1.643913238E1,1.014620087E1,-6.654711456E0,-5.816903687E-1,1.214779570E1
1.644914037E1,1.019275406E1,-6.507268066E0,-7.711962891E-1,1.211740553E1
1.645914838E1,1.032298325E1,-6.376889191E0,-8.520281982E-1,1.216366108E1
1.646915638E1,1.038719971E1,-6.243815918E0,-9.659413147E-1,1.215780398E1
1.647916537E1,1.043270508E1,-6.108048248E0,-1.075363770E0,1.213696815E1
1.648917338E1,1.050680099E1,-5.992039490E0,-1.132395172E0,1.214823951E1
1.649918138E1,1.059781174E1,-5.956563263E0,-1.296304321E0,1.222598317E1
1.650918937E1,1.076411591E1,-6.073470154E0,-1.536854095E0,1.245452333E1
1.651919838E1,1.092607910E1,-6.216722260E0,-1.787283325E0,1.269729191E1
1.652920638E1,1.104074066E1,-6.329437866E0,-2.063908081E0,1.289261241E1
1.653921437E1,1.122530685E1,-6.462211761E0,-2.215692444E0,1.314066162E1
1.654922238E1,1.136751114E1,-6.638545074E0,-2.243833923E0,1.335385266E1
1.655923037E1,1.148097519E1,-6.758445740E0,-2.359543304E0,1.352984940E1
1.656923937E1,1.166943329E1,-6.827751617E0,-2.383343811E0,1.372859036E1
1.657924738E1,1.182495987E1,-6.893165588E0,-2.252665558E0,1.387155038E1
1.658925537E1,1.192899353E1,-6.989714813E0,-2.083367615E0,1.398203921E1
