"Time (s)","Acceleration x (m/s^2)","Acceleration y (m/s^2)","Acceleration z (m/s^2)","Absolute acceleration (m/s^2)"
-2.231124905E-3,-6.489604797E0,3.381767578E0,7.044051819E0,1.015726284E1
7.846875000E-3,-6.534062347E0,3.427272949E0,7.200775909E0,1.030976936E1
1.792587503E-2,-6.543343048E0,3.421435089E0,7.235354004E0,1.033788682E1
2.800387505E-2,-6.584357758E0,3.492836609E0,7.263196106E0,1.040709817E1
3.808187507E-2,-6.535110168E0,3.505410461E0,7.278614044E0,1.039104373E1
4.816087510E-2,-6.554869080E0,3.480861511E0,7.390730896E0,1.047404452E1
5.823887500E-2,-6.550977173E0,3.477718048E0,7.503296814E0,1.055032169E1
6.831787503E-2,-6.434070282E0,3.475921783E0,7.550448761E0,1.051135430E1
7.839587505E-2,-6.266269226E0,3.370241547E0,7.549999695E0,1.037435075E1
8.847387508E-2,-6.125561829E0,3.322939911E0,7.549700317E0,1.027435702E1
9.855287510E-2,-5.928122406E0,3.265908508E0,7.382647705E0,1.001560187E1
1.086308750E-1,-5.666316833E0,3.117417297E0,7.197632446E0,9.676329361E0
1.187098750E-1,-5.472320251E0,3.015479279E0,7.106621704E0,9.462741477E0
1.287878751E-1,-5.407804413E0,2.891686707E0,7.116800537E0,9.394415919E0
1.388658751E-1,-5.497617645E0,2.836152191E0,7.212900696E0,9.502288960E0
1.489448751E-1,-5.730832672E0,2.829416199E0,7.347321167E0,9.738129567E0
1.590228750E-1,-5.872138824E0,2.759511566E0,7.364086304E0,9.814615914E0
1.691018750E-1,-5.999823303E0,2.719095612E0,7.285948792E0,9.822240600E0
1.791798751E-1,-6.142776031E0,2.677781525E0,7.218139801E0,9.849149885E0
1.892578751E-1,-6.141877899E0,2.602787476E0,7.050638123E0,9.706114810E0
1.993368750E-1,-6.251450043E0,2.629881134E0,6.802454224E0,9.605742339E0
2.094148750E-1,-6.234086151E0,2.633174286E0,6.634503479E0,9.477028721E0
2.194938750E-1,-6.176605682E0,2.534080353E0,6.615642700E0,9.398869577E0
2.295718751E-1,-6.155499573E0,2.370171204E0,6.717281342E0,9.414337743E0
2.396498751E-1,-6.133046265E0,2.279310150E0,6.900799713E0,9.509497775E0
2.497288750E-1,-6.020480347E0,2.130070496E0,6.916966095E0,9.414234110E0
2.598068750E-1,-6.027066650E0,1.944007416E0,6.720724182E0,9.234328929E0
2.698858751E-1,-5.957760773E0,1.829645233E0,6.398893433E0,8.932432606E0
2.799638751E-1,-5.941145325E0,1.658401337E0,6.011798401E0,8.613316596E0
2.900418751E-1,-6.004164276E0,1.393452301E0,5.663772125E0,8.370783276E0
3.001208750E-1,-5.897436218E0,1.115031281E0,5.393284607E0,8.069111943E0
3.101988750E-1,-5.747597809E0,7.640112305E-1,5.158722382E0,7.760864020E0
3.202778751E-1,-5.739215240E0,3.600013733E-1,4.858746185E0,7.528320334E0
3.303558751E-1,-5.516328735E0,-1.646575928E-3,4.669389954E0,7.227246223E0
3.404338751E-1,-4.955445099E0,-3.640429688E-1,4.722230072E0,6.854810009E0
3.505128750E-1,-4.290677490E0,-7.560777283E-1,4.884792023E0,6.545438103E0
3.605908750E-1,-3.622317352E0,-1.262474670E0,4.671036530E0,6.044303728E0
3.706698751E-1,-2.972668304E0,-1.802850952E0,3.980971527E0,5.285372523E0
3.807478751E-1,-2.383194122E0,-2.187251587E0,2.901266785E0,4.345231028E0
3.908258751E-1,-2.000140686E0,-2.639311523E0,1.731748810E0,3.737041881E0
4.009048750E-1,-1.954186249E0,-2.951113129E0,7.749385071E-1,3.623319236E0
4.109828750E-1,-2.211650848E0,-2.930156708E0,1.341210938E-1,3.673582213E0
4.210610834E-1,-2.680924988E0,-2.629581757E0,2.739303589E-2,3.755370738E0
4.311390833E-1,-2.906805267E0,-2.236948242E0,3.478765869E-1,3.684355089E0
4.412170834E-1,-3.093018036E0,-1.974244537E0,5.779481506E-1,3.714623282E0
4.512960834E-1,-3.320395203E0,-1.761836243E0,8.204438782E-1,3.847365255E0
4.613740834E-1,-3.290307770E0,-1.630858612E0,7.952961731E-1,3.757435433E0
4.714530833E-1,-3.250939636E0,-1.631157990E0,5.516029358E-1,3.678797454E0
4.815310834E-1,-3.483106842E0,-1.483115845E0,2.284249878E-1,3.792603836E0
4.916090834E-1,-3.835324402E0,-1.085692291E0,-1.181044006E-1,3.987780043E0
5.016880834E-1,-4.095483398E0,-6.619235229E-1,-6.158193970E-1,4.194086378E0
5.117660834E-1,-4.469256134E0,-6.466552734E-2,-1.172362061E0,4.620916016E0
5.218450833E-1,-4.515360260E0,4.272116089E-1,-1.575773163E0,4.801463225E0
5.319230834E-1,-4.907844086E0,8.869056702E-1,-1.551523590E0,5.223098763E0
5.420010834E-1,-5.708978119E0,1.476080475E0,-1.419348450E0,6.065129409E0
5.520800834E-1,-6.754703522E0,2.362088013E0,-1.042581940E0,7.231352332E0
5.621580834E-1,-8.839268646E0,3.472478943E0,-3.794609070E-1,9.504460573E0
5.722370833E-1,-1.186971680E1,4.849764862E0,7.267387390E-1,1.284284023E1
5.823150834E-1,-1.457309509E1,6.522386627E0,2.769840088E0,1.620458707E1
5.923930834E-1,-1.598271378E1,8.079748077E0,5.035079498E0,1.860326569E1
6.024720834E-1,-1.738574615E1,9.484576721E0,7.443720703E0,2.115727636E1
6.125500834E-1,-2.055166260E1,1.114926498E1,1.087099365E1,2.578479103E1
6.226280833E-1,-2.513782562E1,1.315105225E1,1.405307648E1,3.165990225E1
6.327070834E-1,-2.949750961E1,1.537407944E1,1.545281570E1,3.667771674E1
6.427850834E-1,-3.287778030E1,1.710657669E1,1.533620819E1,4.010963332E1
6.528640834E-1,-3.485636581E1,1.772359360E1,1.466051331E1,4.176149732E1
6.629420834E-1,-3.564058502E1,1.674971878E1,1.439376801E1,4.192833096E1
6.730200833E-1,-3.491713943E1,1.434002975E1,1.526196259E1,4.071572892E1
6.830990834E-1,-3.357877258E1,1.146495850E1,1.615844833E1,3.898813530E1
6.931770834E-1,-3.208877106E1,9.564360809E0,1.602926697E1,3.712281812E1
7.032560834E-1,-3.152279800E1,8.839867401E0,1.494132935E1,3.598712787E1
7.133340834E-1,-3.224564484E1,8.711584167E0,1.391057281E1,3.618255582E1
7.234120833E-1,-3.325918716E1,8.217761078E0,1.380998199E1,3.693806615E1
7.334910834E-1,-3.347219421E1,6.791676636E0,1.383093842E1,3.684846692E1
7.435690834E-1,-3.153088120E1,4.768783264E0,1.331570984E1,3.455786294E1
7.536480834E-1,-2.746802994E1,2.852917328E0,1.225830872E1,3.021420094E1
7.637260833E-1,-2.303425003E1,1.109941864E0,1.079390396E1,2.546206999E1
7.738040834E-1,-1.912587753E1,-3.077600098E-1,9.432185669E0,2.132744790E1
7.838830834E-1,-1.559966034E1,-1.478924561E0,7.833959198E0,1.751877671E1
7.939610834E-1,-1.247371078E1,-2.415676575E0,6.327491913E0,1.419387572E1
8.040400834E-1,-1.009126511E1,-3.288661194E0,5.125641174E0,1.178648045E1
8.141180833E-1,-8.343798981E0,-4.179309082E0,4.247118073E0,1.025298092E1
8.241960834E-1,-7.006330261E0,-4.963228912E0,3.704346771E0,9.351175860E0
8.342750834E-1,-6.211483154E0,-5.604046326E0,3.001558228E0,8.888037466E0
8.443530834E-1,-5.754932556E0,-6.141578522E0,1.733994141E0,8.593309673E0
8.544320834E-1,-5.554798737E0,-6.578220520E0,1.408570862E-1,8.610959002E0
8.645100833E-1,-5.379812622E0,-6.808292084E0,-1.119222565E0,8.749164766E0
8.745880834E-1,-4.821324005E0,-7.095993805E0,-1.943408661E0,8.796313459E0
8.846670834E-1,-3.988605652E0,-7.339537354E0,-2.484683075E0,8.715011967E0
8.947450834E-1,-2.923271027E0,-7.314239960E0,-3.015329590E0,8.434206081E0
9.048240834E-1,-1.865121460E0,-7.283104706E0,-3.591331787E0,8.331863910E0
9.149020833E-1,-9.328601074E-1,-7.344028015E0,-4.166884918E0,8.495169533E0
9.249800834E-1,1.947450256E-1,-7.308402100E0,-4.759352875E0,8.723652140E0
9.350590834E-1,1.365610199E0,-7.112609253E0,-5.539380798E0,9.118050298E0
9.451370834E-1,1.963916016E0,-6.838379517E0,-6.046226807E0,9.336876305E0
9.552160834E-1,1.931433563E0,-6.289021912E0,-6.058800659E0,8.943785420E0
9.652940833E-1,1.638642426E0,-5.573809204E0,-5.934559021E0,8.304907514E0
9.753720834E-1,1.349743195E0,-4.919819183E0,-5.862858124E0,7.771713638E0
9.854510834E-1,1.200653229E0,-4.288731537E0,-5.618416443E0,7.169476250E0
9.955290834E-1,1.394350433E0,-3.855981445E0,-5.586083679E0,6.929439870E0
1.005608083E0,1.968556366E0,-3.518882446E0,-5.557792511E0,6.866353139E0
1.015686083E0,2.962489471E0,-3.407514038E0,-5.471122742E0,7.093707059E0
1.025764083E0,4.038302307E0,-3.309018860E0,-5.390141144E0,7.504073087E0
1.035843083E0,4.837939453E0,-3.261717224E0,-5.508544922E0,8.024246043E0
1.045921083E0,5.256618805E0,-3.134781189E0,-5.572012939E0,8.276848589E0
1.056000083E0,5.167853394E0,-2.894381104E0,-5.240302734E0,7.908534846E0
1.066078083E0,4.832101593E0,-2.391277313E0,-4.426894226E0,6.976016448E0
1.076156083E0,4.466861115E0,-1.828597412E0,-3.563489685E0,5.999589607E0
1.086235083E0,4.299209747E0,-1.421144714E0,-2.869083710E0,5.360456891E0
1.096313083E0,4.332141266E0,-1.243464203E0,-2.383343811E0,5.098429061E0
1.106392083E0,3.912863159E0,-9.940827942E-1,-2.185754700E0,4.590884698E0
1.116470083E0,2.818339233E0,-7.223977661E-1,-1.817819824E0,3.430650591E0
1.126548083E0,1.542991333E0,-3.580554199E-1,-1.334175568E0,2.071002265E0
1.136627083E0,1.800755310E-1,3.293151855E-3,-9.145980835E-1,9.321629128E-1
1.146705083E0,-1.177451477E0,4.790039062E-1,-1.553768921E-1,1.280616532E0
1.156784083E0,-1.963466949E0,7.869136047E-1,8.782237244E-1,2.290352024E0
1.166862083E0,-3.307971039E0,1.050964508E0,1.711391144E0,3.869891270E0
1.176940083E0,-6.183940430E0,1.474882965E0,2.573448486E0,6.858501010E0
1.187019083E0,-1.119641693E1,2.640808411E0,2.158062286E0,1.170430921E1
1.197097083E0,-1.824046875E1,4.188440094E0,3.294648743E-1,1.871807356E1
1.207175083E0,-2.732223312E1,6.887627106E0,-3.293151855E-2,2.817702813E1
1.217254083E0,-3.818005417E1,1.098146393E1,1.025816803E0,3.974117998E1
1.227332083E0,-4.750955338E1,1.458521988E1,2.859353943E0,4.978013867E1
1.237411083E0,-5.279341553E1,1.595352448E1,6.266568604E0,5.550612172E1
1.247489083E0,-5.288098343E1,1.537722290E1,8.141569519E0,5.566994294E1
1.257567083E0,-4.722170197E1,1.318592972E1,1.071756271E1,5.018589473E1
1.267646083E0,-3.895154984E1,1.028062134E1,1.478535370E1,4.291294786E1
1.277724083E0,-3.092449219E1,7.115153961E0,1.671169785E1,3.586405551E1
1.287803083E0,-2.330503693E1,3.820355530E0,1.549652481E1,2.824645365E1
1.297881083E0,-1.561208450E1,1.078207855E0,1.189561295E1,1.965719517E1
1.307959083E0,-9.344168701E0,-7.809260559E-1,6.961124268E0,1.167820985E1
1.318038083E0,-5.566773834E0,-1.634750519E0,1.445843353E0,5.979284504E0
1.328116083E0,-3.246448975E0,-1.684596863E0,-3.596121826E0,5.129267952E0
1.338195083E0,-1.780098267E0,-1.213077393E0,-7.087910614E0,7.408021563E0
1.348273083E0,-8.096662903E-1,-5.536985779E-1,-8.779692535E0,8.834316195E0
1.358351083E0,-1.901046753E-2,-1.727407837E-1,-8.701555023E0,8.703290217E0
1.368430083E0,1.022673340E0,-7.499404907E-2,-7.266189880E0,7.338187804E0
1.378508083E0,2.347268829E0,-4.010160828E-1,-5.386398926E0,5.889293527E0
1.388587083E0,3.976630554E0,-8.093669128E-1,-3.436553650E0,5.317759524E0
1.398665083E0,5.463638306E0,-1.211879883E0,-1.720372467E0,5.854884953E0
1.408743083E0,6.576723633E0,-1.665586395E0,-7.607180786E-1,6.826870716E0
1.418822083E0,6.964118042E0,-1.943708038E0,-3.805087280E-1,7.240285073E0
1.428900375E0,6.196963348E0,-2.031425629E0,-3.472778320E-1,6.530669699E0
1.438979375E0,4.853956146E0,-1.849853210E0,-6.075865173E-1,5.229914774E0
1.449057375E0,3.673510895E0,-1.466949463E0,-1.062191162E0,4.095713990E0
1.459135375E0,2.719245300E0,-9.894424438E-1,-1.463656311E0,3.242773682E0
1.469214375E0,1.983974304E0,-4.378395081E-1,-1.865121460E0,2.757994840E0
1.479292375E0,1.424737244E0,-4.924758911E-2,-1.883832550E0,2.362440817E0
1.489371375E0,1.262624359E0,2.085163879E-1,-1.306782532E0,1.829037983E0
1.499449375E0,9.033714294E-1,3.986210632E-1,-4.222718811E-1,1.073914444E0
1.509527375E0,-1.357527008E0,4.755610657E-1,2.128573608E-1,1.454079145E0
1.519606375E0,-5.391039276E0,1.078357544E0,7.586224365E-1,5.549924997E0
1.529684375E0,-8.898096313E0,1.517544250E0,8.981323242E-1,9.071146577E0
1.539762375E0,-1.081007034E1,1.388811951E0,1.019380188E-1,1.089939497E1
1.549841375E0,-1.137529495E1,1.106948090E0,-1.470541992E0,1.152324447E1
1.559919375E0,-1.305360489E1,7.617658997E-1,-2.820434875E0,1.337653695E1
1.569998375E0,-1.617970413E1,6.831793213E-1,-2.898422699E0,1.645145629E1
1.580076375E0,-2.066617447E1,6.117778015E-1,-6.039939880E-1,2.068404815E1
1.590155375E0,-2.528107773E1,6.815327454E-1,3.014581146E0,2.546929676E1
1.600233375E0,-3.046809128E1,-3.817062378E-2,6.198011169E0,3.109214347E1
1.610311375E0,-3.613380936E1,-5.396278381E-1,8.960516510E0,3.723216664E1
1.620390375E0,-3.933101074E1,-5.445675659E-1,9.923314362E0,4.056719275E1
1.630468375E0,-4.047612946E1,-8.907975769E-1,8.193661194E0,4.130673867E1
1.640546375E0,-4.154281128E1,-6.911128235E-1,6.279292145E0,4.202037977E1
1.650625375E0,-4.259437454E1,-5.333409119E-1,5.424120483E0,4.294166133E1
1.660703375E0,-4.250665695E1,-1.090332642E0,5.861361237E0,4.292272435E1
1.670782375E0,-4.000056839E1,-2.246977386E0,6.464008026E0,4.058174194E1
1.680860375E0,-3.656296692E1,-3.460354156E0,7.101981354E0,3.740672052E1
1.690938375E0,-3.278482361E1,-3.607797546E0,8.017178192E0,3.394312903E1
1.701017375E0,-2.803969116E1,-3.341651001E0,7.832312622E0,2.930419821E1
1.711095375E0,-2.361818573E1,-2.943179626E0,7.095245361E0,2.483593184E1
1.721174375E0,-2.007176056E1,-2.316582642E0,6.584208069E0,2.125073935E1
1.731252375E0,-1.725192444E1,-1.839375000E0,6.043382721E0,1.837211670E1
1.741330375E0,-1.457294540E1,-1.402733002E0,5.057532806E0,1.548925549E1
1.751409375E0,-1.254241791E1,-1.309327240E0,3.540138245E0,1.309805954E1
1.761487375E0,-1.124431732E1,-1.330583038E0,1.784139862E0,1.146247261E1
1.771566375E0,-1.013751892E1,-1.565294952E0,6.541397095E-2,1.025786124E1
1.781644375E0,-8.773255920E0,-1.867666168E0,-1.639989624E0,9.118539484E0
1.791722375E0,-6.816225586E0,-1.916165314E0,-2.910846863E0,7.655432725E0
1.801801375E0,-4.505780182E0,-2.010020142E0,-3.870650940E0,6.270899036E0
1.811879375E0,-2.847229156E0,-1.941313019E0,-4.527035980E0,5.689416919E0
1.821958375E0,-2.246678009E0,-1.834285583E0,-4.705165558E0,5.527273162E0
1.832036375E0,-1.931882629E0,-1.876348114E0,-4.551285553E0,5.288388500E0
1.842114375E0,-1.679208069E0,-2.249671783E0,-4.310137024E0,5.143738333E0
1.852193375E0,-8.770262146E-1,-2.528990936E0,-3.998036041E0,4.811368030E0
1.862271375E0,9.804611206E-2,-2.630928955E0,-3.915856934E0,4.718615870E0
1.872349375E0,7.535330200E-1,-3.053799591E0,-3.949387207E0,5.048877426E0
1.882428375E0,1.821412354E0,-3.352877655E0,-3.727847900E0,5.334433569E0
1.892506375E0,2.998414764E0,-3.708388367E0,-3.642525330E0,6.000885448E0
1.902585375E0,4.004173279E0,-3.991300049E0,-3.868106232E0,6.850264633E0
1.912663375E0,4.807702332E0,-4.011058960E0,-4.345313873E0,7.621308834E0
1.922741375E0,5.001399536E0,-3.924239502E0,-4.945415955E0,8.054240619E0
1.932820375E0,4.781506805E0,-3.572321320E0,-5.326074371E0,7.999459679E0
1.942898375E0,4.845573578E0,-3.246448975E0,-5.425317993E0,7.965744759E0
1.952977375E0,4.812791748E0,-3.089126129E0,-5.129233704E0,7.682102775E0
1.963055375E0,4.780309296E0,-2.887345734E0,-4.843777313E0,7.392584190E0
1.973133375E0,4.938979340E0,-2.671045532E0,-5.026696930E0,7.536291076E0
1.983212375E0,4.869074707E0,-2.595303040E0,-5.093757477E0,7.509317652E0
1.993290375E0,4.315376129E0,-2.320175171E0,-4.276007996E0,6.503070685E0
2.003369375E0,3.686084747E0,-1.800006866E0,-2.994822235E0,5.078996525E0
2.013447375E0,3.393742676E0,-1.426533508E0,-2.167193298E0,4.271909876E0
2.023525375E0,3.507506104E0,-1.231788483E0,-1.325643311E0,3.946800238E0
2.033604375E0,3.760030975E0,-1.082548828E0,-5.125341797E-1,3.946192619E0
2.043682375E0,3.908522186E0,-1.132544861E0,-2.424957275E-2,4.069372382E0
2.053761375E0,4.054768066E0,-1.035546570E0,2.724334717E-1,4.193771664E0
2.063839375E0,3.878584442E0,-9.214837646E-1,-1.302291870E-2,3.986567345E0
2.073917375E0,2.890788574E0,-6.427633667E-1,-3.598516846E-1,2.983168879E0
2.083996375E0,1.567839661E0,-3.876937866E-2,-4.098477173E-1,1.620987174E0
2.094074375E0,-7.056326294E-1,3.662882996E-1,-4.778063965E-1,9.275685843E-1
2.104152375E0,-2.946323090E0,5.367837524E-1,2.589614868E-2,2.994933581E0
2.114231375E0,-4.777764587E0,5.903723145E-1,9.767189026E-1,4.912184212E0
2.124309375E0,-6.910529480E0,1.325044556E0,1.700014801E0,7.238868081E0
2.134388375E0,-1.077624069E1,2.318229218E0,2.221829681E0,1.124446874E1
2.144466375E0,-1.869522308E1,3.318598938E0,1.542242889E0,1.905001255E1
2.154544375E0,-3.012275940E1,6.342161407E0,2.222877502E-1,3.078397403E1
2.164623375E0,-4.051774292E1,1.077444443E1,-3.306623840E-1,4.192714493E1
2.174701375E0,-4.738785645E1,1.373019791E1,-4.957690430E-1,4.933936623E1
2.184780375E0,-4.901871506E1,1.331077011E1,-1.067430267E0,5.080502371E1
2.194858375E0,-4.418317062E1,1.066352509E1,1.362167358E-2,4.545177135E1
2.204936375E0,-3.615895706E1,7.619155884E0,3.633394318E0,3.713116301E1
2.215015375E0,-2.874412628E1,5.142556000E0,6.834936676E0,2.998978221E1
2.225093375E0,-2.316732330E1,3.550167389E0,8.490493927E0,2.492823790E1
2.235171375E0,-1.902648422E1,2.387984161E0,8.708740082E0,2.106066770E1
2.245250375E0,-1.551314026E1,1.645528107E0,7.526648254E0,1.732096179E1
2.255328375E0,-1.265558258E1,1.257834320E0,4.891228638E0,1.362607923E1
2.265407375E0,-1.104388412E1,1.004860382E0,1.292861481E0,1.116461427E1
2.275485375E0,-9.779762878E0,1.036893768E0,-2.254910889E0,1.008977372E1
2.285563375E0,-8.320447540E0,1.293310547E0,-5.172194366E0,9.882008602E0
2.295642375E0,-6.638395386E0,1.279988251E0,-6.982978821E0,9.719498775E0
2.305720375E0,-4.725822601E0,1.128652954E0,-7.392227783E0,8.846032351E0
2.315799375E0,-2.880609741E0,7.849676514E-1,-6.846612396E0,7.469282964E0
2.325877375E0,-1.305285645E0,3.052153015E-1,-6.053711243E0,6.200350539E0
2.335955375E0,4.191284180E-3,-3.513194275E-1,-5.061275024E0,5.073455211E0
2.346034375E0,1.338815918E0,-9.213340759E-1,-3.967050476E0,4.287047238E0
2.356112375E0,2.318528595E0,-1.287622375E0,-2.771786041E0,3.836188745E0
2.366191375E0,2.503693542E0,-1.504072266E0,-1.613494720E0,3.336776880E0
2.376269375E0,2.205962677E0,-1.507964172E0,-6.818321228E-1,2.757738625E0
2.386347375E0,1.895059204E0,-1.312021637E0,-2.516267395E-1,2.318612986E0
2.396426375E0,1.756896515E0,-1.123413849E0,-3.565585327E-1,2.115627100E0
2.406504375E0,1.706601105E0,-9.753717041E-1,-8.520281982E-1,2.142379365E0
2.416582375E0,1.772763519E0,-7.649093628E-1,-1.400188293E0,2.385016580E0
2.426661583E0,1.931433563E0,-6.274951172E-1,-1.814975739E0,2.723659792E0
2.436739583E0,2.048490143E0,-4.813989258E-1,-1.999092865E0,2.902486705E0
2.446818583E0,1.970053253E0,-3.824546814E-1,-1.952539673E0,2.799962960E0
2.456896583E0,1.450483704E0,-1.541793823E-1,-1.645677795E0,2.199074729E0
2.466974583E0,2.459385681E-1,1.987866211E-1,-1.477876740E0,1.511331055E0
2.477053583E0,-1.945354614E0,6.397695923E-1,-1.275347900E0,2.412513621E0
2.487131583E0,-3.959416351E0,1.181493073E0,-1.231788483E0,4.311636185E0
2.497210583E0,-5.122048645E0,1.348695374E0,-1.917961578E0,5.633199637E0
2.507288583E0,-5.351222076E0,1.062191162E0,-2.723586273E0,6.097683984E0
2.517366583E0,-5.649851074E0,8.674461365E-1,-3.093916168E0,6.499661316E0
2.527445583E0,-6.792425079E0,2.517764282E-1,-3.387306061E0,7.594357917E0
2.537523583E0,-9.676926727E0,-2.844085693E-1,-2.993475037E0,1.013334554E1
2.547602583E0,-1.466066299E1,4.742138672E-1,-1.458566895E0,1.474066944E1
2.557680583E0,-2.140743301E1,1.506167908E0,9.934840393E-1,2.148333635E1
2.567758583E0,-2.920965820E1,2.629432068E0,4.778513031E0,2.971451215E1
2.577837583E0,-3.653258011E1,4.251009979E0,8.663085022E0,3.778557314E1
2.587915583E0,-4.218003616E1,6.183042297E0,1.055544983E1,4.391813958E1
2.597993583E0,-4.727828430E1,8.080496521E0,1.036863831E1,4.907177652E1
2.608072583E0,-5.127991287E1,9.093589783E0,8.737330627E0,5.280780043E1
2.618150583E0,-5.232324326E1,8.638087006E0,7.330256653E0,5.353569832E1
2.628229583E0,-4.870706314E1,7.947572937E0,7.571255493E0,4.992860728E1
2.638307583E0,-4.342215317E1,6.447542267E0,9.275311890E0,4.486742245E1
2.648385583E0,-3.983875488E1,4.606670380E0,1.094913116E1,4.157200110E1
2.658464583E0,-3.629412598E1,2.775677948E0,1.146885040E1,3.816415200E1
2.668542583E0,-3.180960159E1,1.403481445E0,1.154474258E1,3.386888830E1
2.678621583E0,-2.701956253E1,4.620890808E-1,1.097338074E1,2.916651111E1
2.688699583E0,-2.255554550E1,-4.158352661E-1,9.491013336E0,2.447457632E1
2.698777583E0,-1.910956146E1,-1.542242889E0,7.718998260E0,2.066728784E1
2.708856583E0,-1.587014786E1,-2.897374878E0,5.683081970E0,1.710420401E1
2.718934583E0,-1.245754440E1,-4.638853455E0,3.335214386E0,1.370521904E1
2.729012583E0,-8.695268097E0,-6.536457367E0,7.095245361E-1,1.090121036E1
2.739091583E0,-5.007985840E0,-8.209827576E0,-1.729353790E0,9.770970040E0
2.749169583E0,-1.732796631E0,-9.078620911E0,-4.025728455E0,1.008119196E1
2.759248583E0,6.994953918E-1,-9.490564270E0,-6.363566895E0,1.144792940E1
2.769326583E0,2.188000031E0,-9.432784424E0,-8.256081390E0,1.272507941E1
2.779404583E0,2.599943390E0,-8.892557831E0,-9.325607300E0,1.314550273E1
2.789483583E0,2.419418793E0,-8.330177307E0,-9.888137512E0,1.315373349E1
2.799561583E0,2.450254669E0,-7.780220947E0,-1.008857071E1,1.297362112E1
2.809640583E0,2.918930054E0,-6.987619171E0,-9.508975983E0,1.215596967E1
2.819718583E0,3.161874847E0,-6.531218262E0,-8.609496460E0,1.125956011E1
2.829796583E0,3.450175323E0,-6.226302338E0,-7.395371246E0,1.026460260E1
2.839875583E0,3.937711487E0,-5.693410492E0,-5.827681274E0,9.048887435E0
2.849953583E0,4.269571381E0,-4.898413696E0,-4.132755890E0,7.700867987E0
2.860031583E0,4.302652588E0,-4.168681183E0,-2.990630951E0,6.695864065E0
2.870110583E0,4.183799744E0,-3.467539215E0,-2.225122833E0,5.871897489E0
2.880188583E0,3.997886353E0,-2.680026855E0,-1.647024994E0,5.087074853E0
2.890267583E0,3.598067780E0,-1.798060913E0,-1.288819885E0,4.223762717E0
2.900345583E0,2.543211365E0,-9.086105347E-1,-1.011746063E0,2.883943003E0
2.910423583E0,1.267115021E0,-2.754272461E-2,-8.285270691E-1,1.514198198E0
2.920502583E0,1.540296936E-1,7.601193237E-1,-7.717950439E-1,1.094154524E0
2.930580583E0,-3.492237854E-1,1.387315063E0,-7.054829407E-1,1.595088247E0
2.940659583E0,-5.933660889E-1,1.693428497E0,-7.108717346E-1,1.930057516E0
2.950737583E0,-4.531077576E-1,1.865121460E0,-7.584727478E-1,2.063798830E0
2.960815583E0,3.046165466E-1,1.946103058E0,-7.605683899E-1,2.111533241E0
2.970894583E0,1.006207581E0,1.845811615E0,-7.222480774E-1,2.222862231E0
2.980972583E0,1.704804840E0,1.725761261E0,-6.735992432E-1,2.517607478E0
2.991051583E0,2.209555206E0,1.608704681E0,-4.593946838E-1,2.771481271E0
3.001129583E0,2.257006531E0,1.483265533E0,-2.966830444E-1,2.717016001E0
3.011207583E0,1.873504028E0,1.453327789E0,-2.362088013E-1,2.382849891E0
3.021286583E0,9.759704590E-1,1.623523865E0,-1.284329224E-1,1.898642434E0
3.031364583E0,-7.708969116E-2,1.914369049E0,5.897735596E-2,1.916828110E0
3.041442583E0,-1.057850189E0,2.151176605E0,4.261637878E-1,2.434794321E0
3.051521583E0,-1.752256165E0,2.207609253E0,9.572593689E-1,2.976623218E0
3.061599583E0,-2.591560822E0,2.241887970E0,1.641037445E0,3.799375351E0
3.071678583E0,-4.205205231E0,2.079026642E0,2.284249878E0,5.217652759E0
3.081756583E0,-7.484735413E0,1.817819824E0,2.890489197E0,8.226825688E0
3.091834583E0,-1.204560104E1,1.823507996E0,3.484603729E0,1.267139097E1
3.101913583E0,-1.685779404E1,1.755399628E0,4.189188538E0,1.745897901E1
3.111991583E0,-2.155263107E1,1.921404419E0,4.629423065E0,2.212779381E1
3.122070583E0,-2.530158508E1,3.183879089E0,4.485871582E0,2.589266957E1
3.132148583E0,-2.868080795E1,5.198539581E0,4.940326538E0,2.956383576E1
3.142226583E0,-3.241748749E1,6.293362885E0,5.783672791E0,3.352537520E1
3.152305583E0,-3.528806808E1,6.807094574E0,6.140979767E0,3.645951067E1
3.162383583E0,-3.575734222E1,6.152655487E0,6.682852936E0,3.689313237E1
3.172461583E0,-3.275099396E1,4.854105835E0,8.405770111E0,3.415914109E1
3.182540583E0,-2.849324799E1,3.876039734E0,1.028256729E1,3.053882864E1
3.192618583E0,-2.484817795E1,3.044219513E0,1.142349472E1,2.751718466E1
3.202697583E0,-2.182716019E1,2.635120239E0,1.184397034E1,2.497295365E1
3.212775583E0,-1.943633194E1,2.178120575E0,1.132619705E1,2.260083955E1
3.222853583E0,-1.709505066E1,1.911674652E0,9.653724976E0,1.972535584E1
3.232932583E0,-1.496198639E1,1.912722473E0,6.739584961E0,1.652094275E1
3.243010583E0,-1.352856720E1,1.909878387E0,3.714675293E0,1.415869268E1
3.253088583E0,-1.214095276E1,2.063758392E0,9.068142700E-1,1.234844706E1
3.263167583E0,-1.070229446E1,2.238445129E0,-1.567839661E0,1.104571702E1
3.273245583E0,-9.288933563E0,2.295027466E0,-3.482358398E0,1.018225210E1
3.283324583E0,-7.844287720E0,2.173330536E0,-4.879852295E0,9.490478063E0
3.293402583E0,-6.566993866E0,1.885329437E0,-5.715863800E0,8.907916395E0
3.303480583E0,-5.651946716E0,1.542392578E0,-6.073021088E0,8.438309172E0
3.313559583E0,-5.004243622E0,1.160985718E0,-6.144721985E0,8.009241558E0
3.323637583E0,-4.844226379E0,8.939410400E-1,-6.022875366E0,7.780789643E0
3.333716583E0,-4.898862762E0,7.430548096E-1,-5.667664032E0,7.528173908E0
3.343794583E0,-4.918022919E0,5.680686951E-1,-5.057532806E0,7.077308073E0
3.353872583E0,-5.000651093E0,5.228627014E-1,-4.293970642E0,6.611964960E0
3.363951583E0,-5.442232819E0,4.860392761E-1,-3.591331787E0,6.538485775E0
3.374029583E0,-6.117328949E0,4.944218445E-1,-3.011287994E0,6.836228625E0
3.384107583E0,-6.687642975E0,4.544549561E-1,-2.653232574E0,7.209073516E0
3.394186583E0,-7.170838165E0,2.318678284E-1,-2.460283813E0,7.584700332E0
3.404264583E0,-7.451504517E0,-1.422042847E-1,-2.431094513E0,7.839347049E0
3.414343583E0,-7.443271637E0,-5.029541016E-1,-2.401456146E0,7.837234660E0
3.424421750E0,-7.464527435E0,-8.707392883E-1,-2.100581818E0,7.803191700E0
3.434499750E0,-7.480544128E0,-1.272653503E0,-1.482517090E0,7.731496900E0
3.444578750E0,-7.674540710E0,-1.662143555E0,-6.360273743E-1,7.878186792E0
3.454656750E0,-8.372988281E0,-1.966011658E0,3.074606323E-1,8.606199314E0
3.464735750E0,-9.256600800E0,-2.088756409E0,1.269659729E0,9.573901897E0
3.474813750E0,-1.022987686E1,-2.123933258E0,1.890119476E0,1.061762802E1
3.484891750E0,-1.115016312E1,-1.883682861E0,2.324516144E0,1.154459934E1
3.494970750E0,-1.164263901E1,-1.506916351E0,2.730172577E0,1.205303623E1
3.505048750E0,-1.184352127E1,-1.100810852E0,3.210523682E0,1.232023713E1
3.515126750E0,-1.185355042E1,-6.746470642E-1,3.862567749E0,1.248524072E1
3.525205750E0,-1.183319275E1,-2.041754150E-1,4.630620575E0,1.270861067E1
3.535283750E0,-1.188543411E1,1.986369324E-1,5.402864685E0,1.305733309E1
3.545362750E0,-1.183319275E1,4.661306763E-1,6.053112488E0,1.329969546E1
3.555440750E0,-1.169233566E1,7.008425903E-1,6.450985107E0,1.337225121E1
3.565518750E0,-1.127470413E1,8.178991699E-1,6.375242615E0,1.297812123E1
3.575597750E0,-1.062969543E1,9.653425598E-1,5.738167419E0,1.211812183E1
3.585675750E0,-1.030112869E1,1.178050232E0,4.943769379E0,1.148659699E1
3.595753750E0,-1.021939865E1,1.505718842E0,4.146227875E0,1.113079079E1
3.605832750E0,-1.013497421E1,1.851350098E0,3.378025360E0,1.084233622E1
3.615910750E0,-1.006970993E1,2.111060028E0,2.819237366E0,1.066788319E1
3.625989750E0,-9.868977356E0,2.233804779E0,2.563269653E0,1.043824454E1
3.636067750E0,-9.509724426E0,2.271226959E0,2.709216156E0,1.014559918E1
3.646145750E0,-9.216035156E0,2.249222717E0,3.233575745E0,1.002249065E1
3.656224750E0,-9.086853790E0,2.236948242E0,3.769611053E0,1.008884615E1
3.666302750E0,-8.967102814E0,2.262095947E0,4.054768066E0,1.009787874E1
3.676381750E0,-8.876241760E0,2.390379181E0,4.235891418E0,1.012147996E1
3.686459750E0,-8.925339661E0,2.604134674E0,4.285288696E0,1.023752434E1
3.696537750E0,-9.021140442E0,2.873724060E0,4.033512268E0,1.029118487E1
3.706616750E0,-9.295819244E0,2.968477020E0,3.511847076E0,1.037097783E1
3.716694750E0,-9.592053223E0,2.951711884E0,2.962489471E0,1.046405428E1
3.726772750E0,-9.919272766E0,2.973566437E0,2.650987244E0,1.068933127E1
3.736851750E0,-1.014126114E1,2.948269043E0,2.235750732E0,1.079518639E1
3.746929750E0,-1.025966492E1,2.865191803E0,1.843865662E0,1.081063776E1
3.757008750E0,-1.037507492E1,2.724634094E0,1.606609039E0,1.084652033E1
3.767086750E0,-1.038240967E1,2.581681366E0,1.488953705E0,1.080168933E1
3.777164750E0,-1.018437149E1,2.434537354E0,1.586850128E0,1.059086815E1
3.787243750E0,-9.606722717E0,2.273023224E0,1.841171265E0,1.004219436E1
3.797321750E0,-8.913514252E0,2.070793762E0,2.001787262E0,9.367287514E0
3.807399750E0,-8.409811707E0,1.756597137E0,2.158960419E0,8.858424043E0
3.817478750E0,-8.073610840E0,1.520837402E0,2.425705719E0,8.566223592E0
3.827556750E0,-7.960895233E0,1.406774597E0,2.442171478E0,8.445061824E0
3.837635750E0,-7.892786865E0,1.273401947E0,2.311792603E0,8.322380793E0
3.847713750E0,-7.765551453E0,1.202299805E0,1.877695312E0,8.079297858E0
3.857791750E0,-7.755671997E0,1.277144165E0,1.304686890E0,7.967669247E0
3.867870750E0,-7.830516357E0,1.367556152E0,8.708889771E-1,7.996602020E0
3.877948750E0,-7.942034454E0,1.455573120E0,6.375242615E-1,8.099446991E0
3.888026750E0,-8.194110260E0,1.542691956E0,7.158114624E-1,8.368735118E0
3.898105750E0,-8.674611053E0,1.586401062E0,8.327183533E-1,8.857706538E0
3.908183750E0,-9.401200104E0,1.676513672E0,1.244062958E0,9.630210492E0
3.918262750E0,-1.024439667E1,1.880539398E0,1.916165314E0,1.059036265E1
3.928340750E0,-1.089344696E1,2.120789795E0,2.728675690E0,1.142849977E1
3.938418750E0,-1.128129044E1,2.337838440E0,3.384312286E0,1.200777132E1
3.948497750E0,-1.154144943E1,2.454146576E0,3.698059845E0,1.236541698E1
3.958575750E0,-1.160132492E1,2.426753540E0,3.823648682E0,1.245392155E1
3.968653750E0,-1.138637192E1,2.413281555E0,3.910917206E0,1.227878930E1
3.978732750E0,-1.087084396E1,2.430944824E0,3.821553040E0,1.177662977E1
3.988810750E0,-1.029723679E1,2.389780426E0,3.464096375E0,1.112403252E1
3.998889750E0,-9.701924744E0,2.338437195E0,3.142565002E0,1.046285559E1
4.008967750E0,-9.279503174E0,2.278412018E0,2.763702850E0,9.946778067E0
4.019045750E0,-9.242380371E0,2.114951935E0,2.445165253E0,9.791498850E0
4.029124750E0,-9.428144073E0,1.934277649E0,2.568658447E0,9.961392318E0
4.039202750E0,-9.647587738E0,1.869013367E0,2.902464294E0,1.024663160E1
4.049281750E0,-9.867929535E0,1.800605621E0,3.190315704E0,1.052598348E1
4.059359750E0,-1.016042130E1,1.647174683E0,3.424129486E0,1.084767293E1
4.069437750E0,-1.033735336E1,1.584155731E0,3.773353271E0,1.111794130E1
4.079516750E0,-1.006626709E1,1.462907867E0,4.381987610E0,1.107572336E1
4.089594750E0,-9.416618042E0,1.291364594E0,5.256918182E0,1.086165303E1
4.099672750E0,-8.638236694E0,1.078207855E0,6.150559845E0,1.065884852E1
4.109751750E0,-8.044122162E0,1.008452911E0,6.876849518E0,1.063089544E1
4.119829750E0,-7.882009277E0,9.680369568E-1,7.516469421E0,1.093437142E1
4.129908750E0,-7.930508423E0,1.096918945E0,7.911048889E0,1.125526053E1
4.139986750E0,-8.142018585E0,1.452729034E0,7.923473053E0,1.145357209E1
4.150064750E0,-8.421487427E0,1.760339355E0,7.755073242E0,1.158280649E1
4.160143750E0,-8.676557007E0,2.013462982E0,7.525899811E0,1.166086801E1
4.170221750E0,-8.972491608E0,2.256856842E0,7.306156769E0,1.178893274E1
4.180299750E0,-8.933572540E0,2.410587158E0,6.949598236E0,1.157223247E1
4.190378750E0,-8.090226288E0,2.410736847E0,6.434519348E0,1.061444548E1
4.200456750E0,-7.066804504E0,2.053729248E0,6.205645294E0,9.626399288E0
4.210535750E0,-6.349346466E0,1.566791840E0,6.733148346E0,9.386390353E0
4.220613750E0,-5.704786835E0,1.255139923E0,7.503895569E0,9.509385772E0
4.230691750E0,-5.256020050E0,1.091679840E0,7.768245850E0,9.442624382E0
4.240770750E0,-5.144951019E0,1.139131165E0,7.482490082E0,9.151819416E0
4.250848750E0,-5.539530487E0,1.457519073E0,6.857389984E0,8.935018593E0
4.260926750E0,-6.165229340E0,1.834285583E0,6.223009186E0,8.949888253E0
4.271005750E0,-6.829697571E0,2.254910889E0,5.509143677E0,9.059804417E0
4.281083750E0,-7.119794312E0,2.558928680E0,4.714745636E0,8.914505788E0
4.291162750E0,-7.005282440E0,2.776426392E0,4.096381531E0,8.576879807E0
4.301240750E0,-6.664740601E0,2.809806976E0,3.547023926E0,8.055753301E0
4.311318750E0,-6.274202728E0,2.660417633E0,3.251388702E0,7.550825806E0
4.321397750E0,-5.857020264E0,2.466121674E0,3.407663727E0,7.211006487E0
4.331475750E0,-5.514083405E0,2.392624512E0,3.864214325E0,7.145762394E0
4.341553750E0,-5.381159821E0,2.381697235E0,4.362827454E0,7.325546131E0
4.351632750E0,-5.394482117E0,2.410287781E0,4.888384552E0,7.668521893E0
4.361710750E0,-5.597609711E0,2.672841797E0,5.367089081E0,8.202619273E0
4.371789750E0,-6.013145599E0,3.032244415E0,5.462590485E0,8.671350587E0
4.381867750E0,-6.528823242E0,3.344495087E0,5.190306702E0,8.986126194E0
4.391945750E0,-6.940467224E0,3.557951202E0,4.630919952E0,9.070530395E0
4.402024750E0,-7.031777344E0,3.624412994E0,3.993844757E0,8.861887954E0
4.412102750E0,-6.713838501E0,3.423530731E0,3.581452332E0,8.344039243E0
4.422180750E0,-6.530170441E0,3.103196869E0,3.570075989E0,8.063398747E0
4.432259250E0,-6.121370544E0,2.883004761E0,3.942202148E0,7.830954704E0
4.442337250E0,-5.955515442E0,2.816542969E0,4.960534515E0,8.246695165E0
4.452416250E0,-6.555018768E0,2.993025970E0,6.497388611E0,9.702707574E0
4.462494250E0,-7.595355377E0,3.385509796E0,7.831414490E0,1.142287848E1
4.472572250E0,-8.156987457E0,3.679648132E0,8.560248871E0,1.238362287E1
4.482651250E0,-7.785759430E0,3.719465332E0,8.322842560E0,1.198841860E1
4.492729250E0,-7.061565399E0,3.569327545E0,7.361691284E0,1.080741891E1
4.502807250E0,-6.695426788E0,3.562741241E0,6.471193085E0,9.969864842E0
4.512886250E0,-6.388415222E0,3.775897980E0,5.541027374E0,9.261330302E0
4.522964250E0,-5.942492523E0,4.018393707E0,4.295168152E0,8.361170661E0
4.533043250E0,-5.227130127E0,4.228406982E0,3.043022003E0,7.379857579E0
4.543121250E0,-4.627327423E0,4.354893951E0,1.971550140E0,6.653139888E0
4.553199250E0,-4.071982269E0,4.253105621E0,1.415606232E0,6.055896963E0
4.563278250E0,-3.660637665E0,4.273612976E0,1.863325195E0,5.927564151E0
4.573356250E0,-3.851041718E0,4.328099670E0,2.905458069E0,6.481099880E0
4.583434250E0,-4.520150299E0,4.510270844E0,3.714824982E0,7.387437069E0
4.593513250E0,-5.223836975E0,5.018014984E0,3.994144135E0,8.271767314E0
4.603591250E0,-6.232888641E0,5.520819397E0,3.715872803E0,9.117897692E0
4.613670250E0,-7.545509033E0,6.075116730E0,3.423830109E0,1.027445193E1
4.623748250E0,-8.808432770E0,6.463409271E0,3.027753754E0,1.133717073E1
4.633826250E0,-1.003393433E1,6.765032043E0,2.500550079E0,1.235711323E1
4.643905250E0,-1.135778137E1,6.756050720E0,2.503992920E0,1.345040518E1
4.653983250E0,-1.349324066E1,6.846013641E0,4.249064026E0,1.571591523E1
4.664061250E0,-1.601609436E1,7.400011597E0,7.107519836E0,1.902083827E1
4.674140250E0,-1.801877975E1,8.329877930E0,1.017913239E1,2.230869844E1
4.684218250E0,-1.991324020E1,9.107211456E0,1.273566605E1,2.533131709E1
4.694297250E0,-2.186084015E1,9.266779633E0,1.401071457E1,2.756936088E1
4.704375250E0,-2.373344604E1,9.321116638E0,1.392434418E1,2.905248763E1
4.714453250E0,-2.489877274E1,9.803713074E0,1.292322601E1,2.971651804E1
4.724532250E0,-2.553150696E1,1.006970993E1,1.101185074E1,2.957224649E1
4.734610250E0,-2.518123535E1,9.791288910E0,8.701105957E0,2.838438298E1
4.744688250E0,-2.317705307E1,9.565857697E0,6.685697021E0,2.594956584E1
4.754767250E0,-2.040676392E1,9.439969482E0,5.527106323E0,2.315378893E1
4.764845250E0,-1.748858231E1,9.164542236E0,5.917045441E0,2.061190851E1
4.774924250E0,-1.475781097E1,8.362809448E0,7.497458954E0,1.854565872E1
4.785002250E0,-1.230680786E1,7.196135559E0,9.236692200E0,1.698700590E1
4.795080250E0,-9.957144012E0,5.756728821E0,1.070633606E1,1.571337887E1
4.805159250E0,-7.809709625E0,4.206103363E0,1.120000946E1,1.428716493E1
4.815237250E0,-5.713768158E0,2.585124207E0,1.004650818E1,1.184324028E1
4.825315250E0,-3.664230194E0,1.052012329E0,7.272626495E0,8.211236752E0
4.835394250E0,-1.979633331E0,-8.726852417E-2,3.717369690E0,4.212529090E0
4.845472250E0,-9.145980835E-1,-8.309220886E-1,7.125183105E-2,1.237739066E0
4.855551250E0,-1.109193420E-1,-1.114432526E0,-3.185525665E0,3.376660587E0
4.865629250E0,4.845423889E-1,-1.181942139E0,-5.657934265E0,5.800343843E0
4.875707250E0,1.056053925E0,-1.235830078E0,-7.136110382E0,7.318920498E0
4.885786250E0,1.430575104E0,-1.237476654E0,-7.381150818E0,7.619664100E0
4.895864250E0,1.645827484E0,-1.268312531E0,-6.212980042E0,6.551220175E0
4.905942250E0,1.930086365E0,-1.196461945E0,-4.442012787E0,4.988810696E0
4.916021250E0,2.329156494E0,-1.122366028E0,-3.029849396E0,3.983046929E0
4.926099250E0,2.592908020E0,-1.020577698E0,-1.857637024E0,3.348964937E0
4.936178250E0,2.527643738E0,-8.428971863E-1,-9.397457886E-1,2.825346117E0
4.946256250E0,1.888023834E0,-5.257067871E-1,-2.350112915E-1,1.973887518E0
4.956334250E0,8.530760193E-1,4.864883423E-2,1.692979431E-1,8.710724409E-1
4.966413250E0,1.243913269E-1,5.545967102E-1,6.900650024E-2,5.725492208E-1
4.976491250E0,-1.392105103E-1,9.134005737E-1,-5.776487732E-1,1.089659708E0
4.986569250E0,-2.650987244E-1,1.217867432E0,-1.334924011E0,1.826335273E0
4.996648250E0,-3.517684937E-1,1.436113586E0,-1.824106750E0,2.348090446E0
5.006726250E0,-5.047503662E-1,1.557211761E0,-2.151925049E0,2.703786755E0
5.016805250E0,-5.529501343E-1,1.676064606E0,-2.410287781E0,2.987379052E0
5.026883250E0,-4.698728943E-1,1.664239197E0,-2.424059143E0,2.977672811E0
5.036961250E0,-8.831634521E-1,1.729054413E0,-2.341880035E0,3.042040260E0
5.047040250E0,-1.881437531E0,1.984423370E0,-2.016905823E0,3.397889403E0
5.057118250E0,-2.763702850E0,2.379900970E0,-1.536105652E0,3.957474276E0
5.067196250E0,-3.183879089E0,2.577939148E0,-1.209933929E0,4.271626905E0
5.077275250E0,-3.305276642E0,2.533631287E0,-5.182223511E-1,4.196748215E0
5.087353250E0,-3.366499329E0,2.357148285E0,4.655319214E-1,4.135962492E0
5.097431250E0,-3.605851593E0,2.005679169E0,1.257834320E0,4.313590362E0
5.107510250E0,-4.480782166E0,1.431622925E0,1.829196167E0,5.047069608E0
5.117588250E0,-6.433621216E0,8.213420105E-1,2.856958923E0,7.087192599E0
5.127667250E0,-9.019643555E0,8.916957092E-1,4.223916321E0,9.999527998E0
5.137745250E0,-1.199844910E1,1.440304871E0,5.026846619E0,1.308840883E1
5.147823250E0,-1.581176926E1,2.606380005E0,5.005740509E0,1.678876713E1
5.157902250E0,-2.114951935E1,4.646637268E0,4.874313812E0,2.219577306E1
5.167980250E0,-2.852588013E1,7.854765930E0,6.340365143E0,3.025926990E1
5.178058250E0,-3.639157333E1,1.128248795E1,1.019993912E1,3.944210823E1
5.188137250E0,-4.288417191E1,1.350686234E1,1.350341949E1,4.694496638E1
5.198215250E0,-4.443045639E1,1.323338104E1,1.354742798E1,4.829824669E1
5.208294250E0,-3.914015762E1,1.095841187E1,1.170999893E1,4.229849648E1
5.218372250E0,-3.032274353E1,8.270451508E0,1.002375549E1,3.299007150E1
5.228450250E0,-2.231978577E1,5.724246368E0,8.559949493E0,2.458073572E1
5.238529250E0,-1.695613953E1,4.266128540E0,7.856562195E0,1.916862253E1
5.248607250E0,-1.470048019E1,4.166136475E0,7.669750671E0,1.709637056E1
5.258685250E0,-1.425395874E1,4.635111237E0,6.741381226E0,1.643489631E1
5.268764250E0,-1.360820160E1,4.966821442E0,4.073329468E0,1.504807227E1
5.278842250E0,-1.204664886E1,4.882097626E0,5.596861267E-1,1.301037565E1
5.288921250E0,-9.744136963E0,4.404740295E0,-2.634521484E0,1.101320324E1
5.298999250E0,-7.149282990E0,3.659440155E0,-4.932542725E0,9.425164574E0
5.309077250E0,-4.858446808E0,2.412084045E0,-6.377637634E0,8.372390138E0
5.319156250E0,-2.471360779E0,1.088087311E0,-6.777755585E0,7.295856966E0
5.329234250E0,2.020797729E-2,-2.272274780E-1,-6.189628601E0,6.193831036E0
5.339312250E0,2.170935516E0,-1.530866547E0,-4.878056030E0,5.554452631E0
5.349391250E0,3.912114716E0,-2.520159302E0,-3.404220886E0,5.765809943E0
5.359469250E0,5.149890747E0,-3.129392395E0,-2.403551788E0,6.487798754E0
5.369548250E0,5.666017456E0,-3.512745209E0,-1.932631073E0,6.941051475E0
5.379626250E0,5.928721161E0,-3.605252838E0,-2.055375824E0,7.236860674E0
5.389704250E0,6.384223938E0,-3.739673309E0,-2.767445068E0,7.899507830E0
5.399783250E0,6.474635925E0,-3.988306274E0,-3.524869995E0,8.381658892E0
5.409861250E0,5.813311157E0,-3.943848724E0,-3.754342804E0,7.965150297E0
5.419939250E0,5.050198059E0,-3.555107117E0,-3.667673035E0,7.182973795E0
5.430017833E0,4.094285889E0,-3.121758270E0,-3.438798981E0,6.191436834E0
5.440095833E0,3.371738434E0,-2.756218414E0,-3.046913910E0,5.314983009E0
5.450173833E0,2.993325348E0,-2.411934357E0,-2.470762024E0,4.569692436E0
5.460252833E0,2.925067291E0,-2.089504852E0,-1.699116669E0,3.976059185E0
5.470330833E0,2.549647980E0,-1.767674103E0,-8.934919739E-1,3.228576228E0
5.480409833E0,1.484612732E0,-1.264270935E0,-2.745291138E-1,1.969218676E0
5.490487833E0,3.194357300E-1,-4.805007935E-1,8.502319336E-2,5.832230633E-1
5.500565833E0,-1.200054474E0,3.338058472E-1,1.675016785E-1,1.256826916E0
5.510644833E0,-3.522924042E0,1.282383270E0,7.017407227E-1,3.814176280E0
5.520722833E0,-5.647156677E0,2.318079529E0,1.900148621E0,6.393311819E0
5.530800833E0,-8.237819366E0,4.318070526E0,3.838168488E0,1.006175622E1
5.540879833E0,-1.380159943E1,7.104376373E0,7.131320343E0,1.708250685E1
5.550957833E0,-2.275792465E1,1.077429474E1,1.005114853E1,2.711151321E1
5.561036833E0,-3.361903885E1,1.551433777E1,1.149729126E1,3.877011937E1
5.571114833E0,-4.491215469E1,1.902843018E1,1.197270264E1,5.022477877E1
5.581192833E0,-5.330535095E1,2.139276352E1,1.200293976E1,5.867862757E1
5.591271833E0,-5.566040359E1,2.179273178E1,1.207194626E1,6.098143630E1
5.601349833E0,-5.216083099E1,1.883667892E1,1.184007843E1,5.670767338E1
5.611427833E0,-4.467759247E1,1.434946014E1,1.139355698E1,4.828879182E1
5.621506833E0,-3.560555786E1,1.026999344E1,1.038630157E1,3.848511110E1
5.631584833E0,-2.800571182E1,7.551795959E0,1.007240433E1,3.070509479E1
5.641662833E0,-2.417727310E1,5.787864075E0,1.108430008E1,2.721950796E1
5.651741833E0,-2.167417831E1,4.670587463E0,1.148935776E1,2.497177876E1
5.661819833E0,-1.848670670E1,3.488795013E0,1.082069824E1,2.170293818E1
5.671898833E0,-1.486169495E1,2.617606659E0,9.569749603E0,1.786902204E1
5.681976833E0,-1.136691238E1,1.743873596E0,8.251291351E0,1.415385464E1
5.692054833E0,-8.945996704E0,1.345851288E0,7.214696960E0,1.157125857E1
5.702133833E0,-7.875123596E0,6.089337158E-1,6.696324921E0,1.035515038E1
5.712211833E0,-7.454498291E0,-1.007405090E-1,6.219416656E0,9.708802036E0
5.722289833E0,-7.534731445E0,-9.204359436E-1,5.370980988E0,9.298753521E0
5.732368833E0,-7.173382874E0,-1.839674377E0,3.844754791E0,8.344097499E0
5.742446833E0,-6.367458801E0,-2.530487823E0,1.770667877E0,7.076946018E0
5.752525833E0,-5.125042419E0,-3.437451782E0,-4.049079895E-1,6.184341924E0
5.762603833E0,-3.674259338E0,-4.085454254E0,-2.230062561E0,5.929949171E0
5.772681833E0,-2.395468597E0,-4.512965240E0,-3.810625763E0,6.373852349E0
5.782760833E0,-1.046473846E0,-5.130580902E0,-5.027445374E0,7.259006467E0
5.792838833E0,5.239105225E-2,-5.289999390E0,-6.068380737E0,8.050595204E0
5.802916833E0,9.147477722E-1,-5.406606903E0,-6.854695587E0,8.778098500E0
5.812995833E0,1.930086365E0,-5.608986053E0,-6.965614929E0,9.149084614E0
5.823073833E0,2.968027954E0,-5.337750092E0,-6.776109009E0,9.122303397E0
5.833152833E0,3.736080780E0,-5.055137787E0,-6.620133362E0,9.129013275E0
5.843230833E0,4.317322083E0,-4.842280426E0,-6.034102020E0,8.859872283E0
5.853308833E0,4.698279877E0,-4.426145782E0,-5.233117676E0,8.309640239E0
5.863387833E0,4.819078674E0,-4.021986237E0,-4.433480530E0,7.684766891E0
5.873465833E0,4.534969482E0,-3.620670776E0,-3.712429962E0,6.888928894E0
5.883543833E0,3.875740356E0,-3.144810333E0,-3.050656128E0,5.849589571E0
5.893622833E0,2.922223206E0,-2.528841248E0,-2.361339569E0,4.528835510E0
5.903700833E0,1.992057495E0,-1.856439514E0,-1.860181732E0,3.297716909E0
5.913778833E0,1.193019104E0,-1.301244049E0,-1.593586121E0,2.378244601E0
5.923857833E0,6.876699829E-1,-7.921527100E-1,-1.491049347E0,1.823080930E0
5.933935833E0,5.436694336E-1,-4.031117249E-1,-1.390757904E0,1.546700703E0
5.944014833E0,6.086343384E-1,-1.056802368E-1,-1.336869965E0,1.472693238E0
5.954092833E0,6.018983459E-1,1.338217163E-1,-1.369651794E0,1.502043910E0
5.964170833E0,4.848417664E-1,2.899470520E-1,-1.370849304E0,1.482689666E0
5.974249833E0,-4.984634399E-2,4.472698975E-1,-1.201401672E0,1.282926731E0
5.984327833E0,-9.948312378E-1,9.148974609E-1,-1.011446686E0,1.688120539E0
5.994405833E0,-1.816023560E0,1.427281952E0,-8.422984314E-1,2.458565026E0
6.004484833E0,-2.603984985E0,1.863025818E0,-8.071215820E-1,3.301976416E0
6.014562833E0,-2.993475037E0,2.298769684E0,-6.975494385E-1,3.838204017E0
6.024641833E0,-3.267704773E0,2.311642914E0,-6.888674927E-1,4.061542301E0
6.034719833E0,-3.959566040E0,2.036365356E0,-6.786886597E-1,4.503949976E0
6.044797833E0,-5.365891571E0,1.675765228E0,-1.631607056E-2,5.621498703E0
6.054876833E0,-7.719297638E0,2.058668976E0,1.144370270E0,8.070641690E0
6.064954833E0,-1.229378494E1,3.609144745E0,2.733016663E0,1.310085700E1
6.075032833E0,-1.974858261E1,5.037923584E0,5.268743591E0,2.105105338E1
6.085111833E0,-2.858306122E1,6.694977722E0,8.030201111E0,3.043514819E1
6.095189833E0,-3.644321594E1,8.901688843E0,1.009440857E1,3.884900432E1
6.105267833E0,-4.175177673E1,1.126257935E1,1.065933380E1,4.453849965E1
6.115346833E0,-4.388903229E1,1.262684235E1,1.003333557E1,4.675844443E1
6.125424833E0,-4.438105911E1,1.235845047E1,8.659193115E0,4.687634085E1
6.135503833E0,-4.228317169E1,1.021610550E1,7.902816010E0,4.421187534E1
6.145581833E0,-3.722668671E1,7.996221771E0,8.854686584E0,3.909183086E1
6.155659833E0,-3.135694290E1,5.706732788E0,9.845027161E0,3.335789602E1
6.165738833E0,-2.577055984E1,3.717968445E0,1.017958145E1,2.795655420E1
6.175816833E0,-2.116388947E1,2.862796783E0,9.952353973E0,2.356173110E1
6.185894833E0,-1.812416061E1,2.750380554E0,9.028475189E0,2.043436212E1
6.195973833E0,-1.631577118E1,2.825524292E0,7.507787476E0,1.818116744E1
6.206051833E0,-1.436233337E1,2.828518066E0,5.503305817E0,1.563852644E1
6.216129833E0,-1.181777481E1,2.540367279E0,3.266207886E0,1.252123721E1
6.226208833E0,-9.038055267E0,1.976789246E0,8.918453979E-1,9.294596653E0
6.236286833E0,-6.196214905E0,1.416204987E0,-1.146765289E0,6.458621087E0
6.246365833E0,-3.691922607E0,7.701484680E-1,-2.774330750E0,4.681915453E0
6.256443833E0,-1.423090668E0,5.373825073E-2,-3.995940399E0,4.242123822E0
6.266521833E0,7.289840698E-1,-5.406756592E-1,-4.857249298E0,4.941317505E0
6.276600833E0,2.435136108E0,-9.833052063E-1,-5.412295074E0,6.015788807E0
6.286678833E0,3.605851593E0,-1.324445801E0,-5.705834656E0,6.878435251E0
6.296756833E0,4.359384613E0,-1.479673004E0,-5.701493683E0,7.328075915E0
6.306835833E0,4.809797974E0,-1.494941254E0,-5.428162079E0,7.404994899E0
6.316913833E0,5.277724915E0,-1.357227631E0,-5.157824249E0,7.503305812E0
6.326991833E0,5.302573242E0,-1.294358368E0,-4.977000275E0,7.386689266E0
6.337070833E0,4.747527466E0,-1.123862915E0,-4.542902985E0,6.666337257E0
6.347148833E0,3.923790436E0,-7.776329041E-1,-3.940705261E0,5.615158259E0
6.357227833E0,3.150199127E0,-5.833369446E-1,-3.452121277E0,4.709689782E0
6.367305833E0,2.436183929E0,-3.276686096E-1,-2.949017487E0,3.839148733E0
6.377383833E0,1.940863953E0,-5.403762817E-2,-2.225272522E0,2.953254264E0
6.387462833E0,1.710792389E0,1.219963074E-1,-1.639241180E0,2.372510347E0
6.397540833E0,1.543590088E0,2.293231201E-1,-1.243314514E0,1.995267008E0
6.407618833E0,1.392404480E0,4.173321533E-1,-9.409432983E-1,1.731568841E0
6.417697833E0,1.196162567E0,6.167175293E-1,-7.587721252E-1,1.544953247E0
6.427776958E0,5.391787720E-1,8.860075378E-1,-6.676116943E-1,1.233461990E0
6.437854958E0,-1.074615326E0,1.400487671E0,-5.049000549E-1,1.836052254E0
6.447933958E0,-3.291804657E0,2.343376923E0,1.562750244E-1,4.043737774E0
6.458011958E0,-5.216202850E0,3.137475586E0,1.120719452E0,6.189389091E0
6.468090958E0,-7.032525787E0,3.587888947E0,2.085313568E0,8.165653600E0
6.478168958E0,-9.432934113E0,4.169579315E0,3.166066132E0,1.078840175E1
6.488246958E0,-1.240560242E1,5.052144012E0,4.344116364E0,1.408170719E1
6.498325958E0,-1.633088974E1,6.339167633E0,5.533393250E0,1.837121245E1
6.508403958E0,-2.192475723E1,7.619455261E0,7.197482758E0,2.430133404E1
6.518481958E0,-2.861898651E1,9.174870758E0,9.438921661E0,3.150107751E1
6.528560958E0,-3.530857544E1,1.062340851E1,1.249332001E1,3.893116172E1
6.538638958E0,-3.962335281E1,1.134685410E1,1.591176132E1,4.418082542E1
6.548717958E0,-4.042957626E1,1.102726868E1,1.681707870E1,4.515490480E1
6.558795958E0,-3.849155640E1,1.004022125E1,1.474808121E1,4.242536807E1
6.568873958E0,-3.576931732E1,8.679999847E0,1.220576797E1,3.877843771E1
6.578952958E0,-3.267884399E1,7.758366394E0,1.075139236E1,3.526601100E1
6.589030958E0,-2.922447739E1,6.942263489E0,9.921967163E0,3.163400912E1
6.599108958E0,-2.559437622E1,5.897436218E0,9.677076416E0,2.799102813E1
6.609187958E0,-2.199975128E1,5.011428680E0,9.625134430E0,2.453052561E1
6.619265958E0,-1.900193527E1,4.309388580E0,9.323511658E0,2.160028342E1
6.629343958E0,-1.651665344E1,3.625011749E0,8.786129150E0,1.905614380E1
6.639422958E0,-1.409109741E1,3.376079407E0,8.113278351E0,1.660669215E1
6.649500958E0,-1.235321136E1,3.151546326E0,7.350165253E0,1.471594389E1
6.659578958E0,-1.126886627E1,2.850671997E0,6.464906158E0,1.330070260E1
6.669657958E0,-1.045620621E1,2.276166687E0,5.212909698E0,1.190326050E1
6.679735958E0,-9.307345276E0,1.583556976E0,3.670068054E0,1.012934985E1
6.689814958E0,-7.648195496E0,8.490344238E-1,1.982477417E0,7.946443890E0
6.699892958E0,-5.620811462E0,1.225950623E-1,3.164419556E-1,5.631046666E0
6.709970958E0,-3.669319611E0,-4.769082642E-1,-1.154549103E0,3.876123260E0
6.720049958E0,-2.055375824E0,-1.147064667E0,-2.459535370E0,3.404356233E0
6.730127958E0,-7.458988953E-1,-1.769470367E0,-3.534599762E0,4.022534776E0
6.740205958E0,2.404000854E-1,-2.179168396E0,-4.381538544E0,4.899433346E0
6.750284958E0,1.024619293E0,-2.415826263E0,-4.863835602E0,5.526568374E0
6.760362958E0,1.663490753E0,-2.382745056E0,-4.994064789E0,5.778006456E0
6.770441958E0,2.056273956E0,-2.231709137E0,-4.796475677E0,5.675823040E0
6.780519958E0,2.097588043E0,-1.995799713E0,-4.448898468E0,5.308087195E0
6.790597958E0,1.930086365E0,-1.657353516E0,-4.017495575E0,4.755241818E0
6.800676958E0,1.745969238E0,-1.306333466E0,-3.608545990E0,4.216221041E0
6.810754958E0,1.631307678E0,-9.502239990E-1,-3.229833527E0,3.741111466E0
6.820832958E0,1.623374176E0,-8.556207275E-1,-3.015778656E0,3.530205581E0
6.830911958E0,1.601220245E0,-8.454418945E-1,-2.947071533E0,3.458888390E0
6.840989958E0,1.482666779E0,-7.122189331E-1,-2.974015503E0,3.398576878E0
6.851067958E0,1.256038055E0,-6.010002136E-1,-3.038082275E0,3.341971988E0
6.861146958E0,9.586065674E-1,-3.989204407E-1,-3.059487762E0,3.230871312E0
6.871224958E0,6.267466736E-1,-2.543211365E-1,-3.045866089E0,3.120062638E0
6.881302958E0,1.559756470E-1,-1.270857239E-1,-3.045417023E0,3.052055705E0
6.891381958E0,-4.996609497E-1,1.320254517E-1,-2.870580597E0,2.916731861E0
6.901459958E0,-1.098565521E0,4.342469788E-1,-2.586471405E0,2.843457573E0
6.911538958E0,-1.479223938E0,6.768923950E-1,-2.329156494E0,2.840995732E0
6.921616958E0,-1.495390320E0,7.943980408E-1,-2.121089172E0,2.714089117E0
6.931694958E0,-1.221909027E0,7.595205688E-1,-1.944157104E0,2.418611174E0
6.941773958E0,-9.172924805E-1,6.511459351E-1,-1.526375885E0,1.896111776E0
6.951851958E0,-9.322613525E-1,4.044589233E-1,-1.031055908E0,1.447679017E0
6.961929958E0,-1.032852173E0,2.070195007E-1,-5.212161255E-1,1.175290149E0
6.972008958E0,-1.129551086E0,1.752854919E-1,-1.968406677E-1,1.159895215E0
6.982086958E0,-1.771865387E0,-8.277786255E-2,-9.325607300E-2,1.776247680E0
6.992164958E0,-3.384911041E0,-4.528083801E-1,1.302291870E-1,3.417545585E0
7.002243958E0,-5.451214142E0,-6.486012268E-1,7.138655090E-1,5.535885036E0
7.012321958E0,-7.601492615E0,-5.438191223E-1,1.312321014E0,7.733085778E0
7.022400958E0,-1.067385361E1,1.212478638E-1,2.400857391E0,1.094120506E1
7.032478958E0,-1.489941650E1,1.022972717E0,4.148024139E0,1.549984482E1
7.042556958E0,-1.967164261E1,2.374811554E0,5.911506958E0,2.067750390E1
7.052635958E0,-2.489488083E1,4.509223022E0,8.493487701E0,2.668759107E1
7.062713958E0,-3.029026108E1,6.202202454E0,1.125075394E1,3.290207737E1
7.072791958E0,-3.445729568E1,7.060068512E0,1.277458511E1,3.742111460E1
7.082870958E0,-3.614907761E1,7.595355377E0,1.275841873E1,3.907969401E1
7.092948958E0,-3.496219574E1,7.310497742E0,1.138218063E1,3.748803201E1
7.103026958E0,-3.161710190E1,6.550977173E0,1.033510803E1,3.390237296E1
7.113105958E0,-2.730876114E1,6.075116730E0,1.026684998E1,2.980073299E1
7.123183958E0,-2.310190933E1,5.639672241E0,1.037582336E1,2.594536237E1
7.133262958E0,-1.943633194E1,5.432802429E0,1.006626709E1,2.255251814E1
7.143340958E0,-1.618539230E1,5.281916199E0,9.160949707E0,1.933361224E1
7.153418958E0,-1.330029190E1,5.186564484E0,7.851921844E0,1.629266376E1
7.163497958E0,-1.117860397E1,5.039719849E0,6.171216888E0,1.372748633E1
7.173575958E0,-1.005608826E1,5.034630432E0,4.373605042E0,1.206651713E1
7.183653958E0,-9.451196136E0,5.327122192E0,2.636018372E0,1.116476297E1
7.193732958E0,-9.192084961E0,5.411247253E0,7.897576904E-1,1.069578141E1
7.203810958E0,-8.852441254E0,5.372328186E0,-8.240364075E-1,1.038781316E1
7.213888958E0,-8.068222046E0,5.215454407E0,-1.768871613E0,9.768627254E0
7.223967958E0,-7.056625671E0,4.855153656E0,-2.087708588E0,8.816292307E0
7.234045958E0,-5.919590149E0,4.283043365E0,-1.882635040E0,7.545218532E0
7.244123958E0,-4.715045013E0,3.761378174E0,-1.352138214E0,6.181253351E0
7.254202958E0,-3.698808289E0,3.201392670E0,-8.568182373E-1,4.966310026E0
7.264280958E0,-2.951262817E0,2.714904327E0,-4.613406372E-1,4.036519901E0
7.274359958E0,-2.500849457E0,2.440973969E0,-1.507365417E-1,3.497902718E0
7.284437958E0,-2.590513000E0,2.274819489E0,-9.639953613E-2,3.448891732E0
7.294515958E0,-2.920876007E0,2.392923889E0,-6.646179199E-2,3.776508779E0
7.304594958E0,-3.348985748E0,2.659519501E0,-1.573228455E-1,4.279427531E0
7.314672958E0,-3.953578491E0,2.665357361E0,-4.090992737E-1,4.785632138E0
7.324750958E0,-4.333787842E0,2.758164368E0,-3.855981445E-1,5.151492373E0
7.334829958E0,-4.848567352E0,2.804268494E0,-1.339714050E-1,5.602720365E0
7.344907958E0,-5.211412811E0,2.606080627E0,3.673361206E-1,5.838271624E0
7.354985958E0,-5.345533905E0,2.408940582E0,1.044228516E0,5.955513467E0
7.365064958E0,-5.657335510E0,2.253563690E0,1.869761810E0,6.370243607E0
7.375142958E0,-6.201903076E0,2.335144043E0,2.758314056E0,7.178077452E0
7.385221958E0,-6.910379791E0,2.695744171E0,3.178190918E0,8.069775896E0
7.395299958E0,-8.161478119E0,2.983745270E0,3.582350464E0,9.399239106E0
7.405377958E0,-9.501341858E0,3.325933685E0,4.347559204E0,1.096533643E1
7.415456958E0,-1.074480606E1,3.548820190E0,5.465434570E0,1.256646160E1
7.425534958E0,-1.144549896E1,3.384012909E0,6.917564850E0,1.379506047E1
7.435612333E0,-1.140373581E1,3.208428040E0,8.500223694E0,1.458056939E1
7.445691333E0,-1.127021347E1,2.898722076E0,9.836345215E0,1.523725659E1
7.455769333E0,-1.127679977E1,2.639760590E0,1.101529358E1,1.598346776E1
7.465847333E0,-1.126048370E1,2.530487823E0,1.176972473E1,1.648418279E1
7.475926333E0,-1.099867813E1,2.406695251E0,1.227477448E1,1.665632586E1
7.486004333E0,-1.065678909E1,2.187101898E0,1.281634827E1,1.681098901E1
7.496083333E0,-1.027822632E1,1.622326355E0,1.349473755E1,1.704059332E1
7.506161333E0,-9.404642944E0,1.328038330E0,1.417866531E1,1.706591764E1
7.516239333E0,-8.827293549E0,1.066382446E0,1.466874619E1,1.715314541E1
7.526318333E0,-8.743168488E0,1.191522217E0,1.472742416E1,1.716856846E1
7.536396333E0,-8.370742950E0,6.364764404E-1,1.444630875E1,1.670838940E1
7.546474333E0,-8.298892365E0,1.372495880E0,1.413735123E1,1.645053370E1
7.556553333E0,-8.077203369E0,2.261197815E0,1.321137680E1,1.564911201E1
7.566631333E0,-7.103927307E0,1.184187469E0,1.182705551E1,1.384728584E1
7.576709333E0,-5.162763977E0,6.245013428E-1,1.067130890E1,1.187101375E1
7.586788333E0,-2.801723785E0,1.233435059E-1,1.015862503E1,1.053862099E1
7.596866333E0,-1.315015411E0,-4.385879517E-2,9.658215637E0,9.747426246E0
7.606944333E0,-6.613247681E-1,-2.429447937E-1,9.266929321E0,9.293672668E0
7.617023333E0,-1.515448608E0,-3.129991150E-1,9.025631104E0,9.157323285E0
7.627101333E0,-2.588267670E0,4.388873291E-1,9.494905243E0,9.851140908E0
7.637180333E0,-3.420836334E0,1.531914368E0,9.454938354E0,1.017077884E1
7.647258333E0,-4.005969543E0,1.845811615E0,8.251441040E0,9.356339655E0
7.657336333E0,-3.414399719E0,2.684367828E0,7.383695526E0,8.566382883E0
7.667415333E0,-3.571273499E0,3.165317688E0,6.480324097E0,8.047846350E0
7.677493333E0,-3.992198181E0,3.290307770E0,5.758076019E0,7.740750027E0
7.687571333E0,-4.371210022E0,3.803141327E0,5.705684967E0,8.131801888E0
7.697650333E0,-3.936064911E0,4.338877258E0,6.077212372E0,8.441029147E0
7.707728333E0,-3.743415527E0,4.086951141E0,5.831722870E0,8.045204850E0
7.717806333E0,-3.935166779E0,3.883075104E0,5.517675934E0,7.810797498E0
7.727885333E0,-4.362079010E0,3.720363464E0,5.362897797E0,7.850446508E0
7.737963333E0,-4.615951080E0,3.433110809E0,5.552254028E0,7.995047154E0
7.748041333E0,-4.385430450E0,3.095263367E0,5.658982086E0,7.799790625E0
7.758120333E0,-3.745810547E0,2.714754639E0,5.695506134E0,7.337559507E0
7.768198333E0,-3.293900299E0,2.348316650E0,5.874384155E0,7.132514246E0
7.778277333E0,-3.611090698E0,2.510429535E0,5.887556763E0,7.348847332E0
7.788355333E0,-3.916006622E0,2.953208771E0,5.824986877E0,7.614921013E0
7.798433333E0,-4.082460480E0,3.485352173E0,5.653892670E0,7.796195589E0
7.808512333E0,-4.240681458E0,4.206702118E0,5.740263062E0,8.284343181E0
7.818590333E0,-4.136198730E0,4.339326324E0,5.960604858E0,8.453798150E0
7.828668333E0,-3.457360382E0,3.714525604E0,6.027964783E0,7.879555869E0
7.838747333E0,-3.592678986E0,3.343147888E0,7.641609192E0,9.081749343E0
7.848825333E0,-3.567830658E0,2.310445404E0,9.293124847E0,1.021908719E1
7.858903333E0,-3.076851654E0,1.744622040E0,9.104217682E0,9.767164469E0
7.868982333E0,-2.397414551E0,2.058668976E0,8.609646149E0,9.171244261E0
7.879060333E0,-2.381397858E0,2.049537964E0,7.961793365E0,8.559311609E0
7.889138333E0,-2.475552063E0,2.716101837E0,7.851323090E0,8.668843144E0
7.899217333E0,-1.701062622E0,3.696712646E0,7.985743561E0,8.962778512E0
7.909295333E0,-1.371747437E0,4.157155151E0,7.686216431E0,8.845425541E0
7.919374333E0,-1.136436768E0,4.297263794E0,7.283404083E0,8.532639667E0
7.929452333E0,-7.884104919E-1,4.524191895E0,7.118596802E0,8.471382640E0
7.939530333E0,-9.663903809E-1,4.505780182E0,7.110812988E0,8.473466042E0
7.949609333E0,-5.969586182E-1,4.367617493E0,6.986271973E0,8.260777096E0
7.959687333E0,-3.359014893E-1,4.563859406E0,7.367229767E0,8.672814821E0
7.969765333E0,-3.155438232E-1,4.329446869E0,7.964787140E0,9.070915735E0
7.979844333E0,-2.470612335E0,3.327430573E0,8.340056763E0,9.313015963E0
7.989922333E0,-1.968855743E0,3.990850983E0,8.959917755E0,1.000416966E1
8.000000333E0,-1.322050781E0,3.931723938E0,9.355694733E0,1.023402635E1
8.010079333E0,-5.087919617E-1,3.139720917E0,9.214089203E0,9.747623122E0
8.020157333E0,-8.173004150E-2,2.610720978E0,9.123677216E0,9.490207045E0
8.030235333E0,-4.487667847E-1,2.664608917E0,8.819958801E0,9.224597854E0
8.040314333E0,-6.839277649E-1,2.987038422E0,8.546477509E0,9.079230888E0
8.050392333E0,-6.224057007E-1,3.096460876E0,8.210576019E0,8.797102784E0
8.060471333E0,-5.812413025E-1,3.168161774E0,7.897277527E0,8.528896928E0
8.070549333E0,-7.557783508E-1,3.022814026E0,7.859555969E0,8.454657035E0
8.080627333E0,-7.897576904E-1,2.932551727E0,8.275989990E0,8.815644455E0
8.090706333E0,-3.507206726E-1,2.705473938E0,8.458161163E0,8.887242794E0
8.100784333E0,-2.168989563E-1,2.949765930E0,8.426277466E0,8.930303250E0
8.110862333E0,-4.225712585E-1,3.056194611E0,8.253087616E0,8.810922038E0
8.120941333E0,-6.010002136E-1,3.204087067E0,8.141419830E0,8.769839910E0
8.131019333E0,-8.327183533E-1,3.401676178E0,8.210426331E0,8.926136970E0
8.141097333E0,-1.208586731E0,3.378474426E0,8.418493652E0,9.151273502E0
8.151176333E0,-1.463656311E0,3.294499054E0,8.552015991E0,9.280786137E0
8.161254333E0,-1.550625458E0,3.324586487E0,8.691376190E0,9.433839870E0
8.171332333E0,-1.758842468E0,3.077450409E0,8.666378174E0,9.363244016E0
8.181411333E0,-1.919159088E0,2.829116821E0,8.592282257E0,9.247398985E0
8.191489333E0,-1.925895081E0,2.633922729E0,8.516240387E0,9.119921663E0
8.201568333E0,-1.811682587E0,2.371069336E0,8.465046844E0,8.975588096E0
8.211646333E0,-1.798509979E0,2.158211975E0,8.556656342E0,9.006047125E0
8.221724333E0,-1.757944336E0,2.181114349E0,8.774902496E0,9.211218264E0
8.231803333E0,-1.664688263E0,2.243235168E0,9.272168427E0,9.683821475E0
8.241881333E0,-2.039059753E0,2.116149445E0,9.894274750E0,1.032145949E1
8.251959333E0,-2.260599060E0,2.032323761E0,9.941726074E0,1.039608413E1
8.262038333E0,-2.253563690E0,2.281106415E0,1.022224274E1,1.071336746E1
8.272116333E0,-2.116598511E0,2.523003387E0,1.022882904E1,1.074590521E1
8.282194333E0,-2.080673218E0,2.224224701E0,9.816735992E0,1.027835989E1
8.292273333E0,-2.807561646E0,1.963616638E0,9.463171234E0,1.006428351E1
8.302351333E0,-3.432062988E0,1.983375549E0,9.845326538E0,1.061335430E1
8.312429333E0,-3.469335480E0,2.173929291E0,1.059092606E1,1.135473346E1
8.322508333E0,-3.238814850E0,2.136058044E0,1.123638382E1,1.188734566E1
8.332586333E0,-3.121309204E0,1.680405579E0,1.125090363E1,1.179615049E1
8.342665333E0,-2.946772156E0,1.315763855E0,1.108250381E1,1.154281558E1
8.352743333E0,-2.708916779E0,1.115031281E0,1.082952988E1,1.121874513E1
8.362821333E0,-2.509381714E0,9.668394470E-1,1.049168243E1,1.083084371E1
8.372900333E0,-2.471660156E0,8.488847351E-1,1.028630951E1,1.061309910E1
8.382978333E0,-2.511776733E0,9.310638428E-1,1.009770172E1,1.044698436E1
8.393056333E0,-2.743345184E0,8.803193665E-1,9.784702606E0,1.020006422E1
8.403135333E0,-2.861748962E0,8.354127502E-1,9.642049255E0,1.009240484E1
8.413213333E0,-2.824925537E0,7.551795959E-1,9.508077850E0,9.947564773E0
8.423291333E0,-2.744093628E0,4.995112610E-1,9.250164185E0,9.661526731E0
8.433370458E0,-2.614014130E0,3.927832031E-1,9.116192780E0,9.491697388E0
8.443448458E0,-2.521656189E0,3.558100891E-1,8.872798920E0,9.231029814E0
8.453526458E0,-2.114652557E0,4.031117249E-1,8.520281982E0,8.788029333E0
8.463605458E0,-1.520088959E0,4.944218445E-1,8.233328705E0,8.387062952E0
8.473683458E0,-1.078357544E0,4.469705200E-1,7.993826752E0,8.078607787E0
8.483762458E0,-1.478924561E-1,4.643344116E-1,7.467670898E0,7.483554454E0
8.493840458E0,1.470242615E0,-1.652563477E-1,6.608307953E0,6.771902023E0
8.503918458E0,2.472109222E0,3.338058472E-2,6.694977722E0,7.136887625E0
8.513997458E0,1.398841095E0,2.045795746E0,7.356601868E0,7.762836317E0
8.524075458E0,3.414399719E-1,2.412383423E0,7.650889893E0,8.029463941E0
8.534153458E0,9.171427917E-1,1.889071655E0,7.506440277E0,7.794638430E0
8.544232458E0,1.997745667E0,1.491498413E0,7.123536530E0,7.547206632E0
8.554310458E0,2.123783569E0,1.185684357E0,7.050787811E0,7.458546293E0
8.564388458E0,1.897454224E0,8.924441528E-1,7.239395599E0,7.536951489E0
8.574467458E0,1.467398529E0,7.936495972E-1,7.576494598E0,7.757989980E0
8.584545458E0,8.930429077E-1,7.866142273E-1,7.980354767E0,8.068602716E0
8.594623458E0,2.459385681E-1,7.029382324E-1,8.574918365E0,8.607196577E0
8.604702458E0,-8.217910767E-2,6.849755859E-1,9.039552155E0,9.065839625E0
8.614780458E0,1.502874756E-1,3.095562744E-1,8.601562958E0,8.608443339E0
8.624858458E0,-2.543211365E-1,2.314187622E-1,8.986113281E0,8.992689575E0
8.634937458E0,-6.524931335E-1,8.818162537E-1,8.965905304E0,9.032762873E0
8.645015458E0,-1.979932709E0,1.439556427E0,8.330626373E0,8.682844696E0
8.655094458E0,-3.738026733E0,1.612446899E0,7.862849121E0,8.854220754E0
8.665172458E0,-5.038372650E0,1.771566010E0,7.444768524E0,9.162326313E0
8.675250458E0,-6.234535217E0,1.930236053E0,7.409142609E0,9.873734592E0
8.685329458E0,-7.939938812E0,2.227667542E0,8.258476410E0,1.167079961E1
8.695407458E0,-9.228159943E0,2.355501709E0,9.367819519E0,1.335901818E1
8.705485458E0,-9.816586304E0,2.164199524E0,9.867929535E0,1.408634656E1
8.715564458E0,-9.360185394E0,2.582429810E0,9.805209961E0,1.379942596E1
8.725642458E0,-8.061336365E0,2.824326782E0,9.288484497E0,1.261895043E1
8.735720458E0,-7.247329102E0,2.432591400E0,8.159981232E0,1.118152824E1
8.745799458E0,-6.798562317E0,2.175126801E0,7.417076111E0,1.029391297E1
8.755877458E0,-6.446793823E0,2.356250153E0,7.352111206E0,1.005816109E1
8.765955458E0,-5.897286530E0,1.722318420E0,7.517816620E0,9.708858629E0
8.776034458E0,-6.165678406E0,2.058668976E0,8.120762787E0,1.040194676E1
8.786112458E0,-5.742508392E0,1.723515930E0,8.954678650E0,1.077651054E1
8.796190458E0,-5.456902313E0,5.986051941E-1,9.297615509E0,1.079730361E1
8.806269458E0,-5.108876038E0,4.520599365E-2,9.683962097E0,1.094905383E1
8.816347458E0,-4.403991852E0,-5.629792786E-1,9.830058289E0,1.078620118E1
8.826426458E0,-4.163142700E0,-5.120851135E-1,9.541458435E0,1.042273560E1
8.836504458E0,-2.861449585E0,-6.578819275E-1,8.717122650E0,9.198311239E0
8.846582458E0,-2.210004272E0,-8.093669128E-1,7.602390747E0,7.958362819E0
8.856661458E0,-1.833387451E0,-1.128652954E0,6.666087799E0,7.005133374E0
8.866739458E0,-1.747915192E0,-1.398242340E0,6.032305756E0,6.434205614E0
8.876817458E0,-2.068698120E0,-1.429676971E0,5.521717529E0,6.067359609E0
8.886896458E0,-2.291285248E0,-1.510658569E0,5.075046387E0,5.769590386E0
8.896974458E0,-2.682721252E0,-2.041604462E0,4.733157349E0,5.811017173E0
8.907052458E0,-2.530188446E0,-2.393971710E0,4.373305664E0,5.590953099E0
8.917131458E0,-1.882934418E0,-2.310445404E0,3.763324127E0,4.800646672E0
8.927209458E0,-1.136137390E0,-2.257904663E0,2.798879700E0,3.771295429E0
8.937287458E0,-3.691323853E-1,-2.182012482E0,1.598226471E0,2.729792124E0
8.947366458E0,-2.053729248E-1,-2.196532288E0,3.345542908E-1,2.231335632E0
8.957444458E0,-5.505551147E-1,-2.524350586E0,-6.774911499E-1,2.671039325E0
8.967522458E0,-1.119222565E0,-3.155887299E0,-1.084494781E0,3.519717705E0
8.977601458E0,-1.871408386E0,-3.731440430E0,-9.473799133E-1,4.280577733E0
8.987679458E0,-2.598147125E0,-3.837869110E0,-2.868035889E-1,4.643475432E0
8.997758458E0,-3.809877319E0,-3.753594360E0,9.142987061E-1,5.425917244E0
9.007836458E0,-5.617218933E0,-3.692072296E0,2.351609802E0,7.121419454E0
9.017914458E0,-7.098688202E0,-3.309617615E0,3.444187775E0,8.556130689E0
9.027993458E0,-8.381670227E0,-2.697540436E0,4.034111023E0,9.685203764E0
9.038071458E0,-9.294322357E0,-2.157613220E0,3.756887512E0,1.025445887E1
9.048149458E0,-1.043225601E1,-1.513352966E0,2.975063324E0,1.095322804E1
9.058228458E0,-1.388512573E1,-3.287164307E-1,2.752326508E0,1.415909857E1
9.068306458E0,-2.006442581E1,1.373394012E0,4.692891083E0,2.065164935E1
9.078384458E0,-2.828323471E1,3.452570343E0,7.933053131E0,2.957693256E1
9.088463458E0,-3.624442932E1,6.039341125E0,1.107591751E1,3.837718393E1
9.098541458E0,-4.156750992E1,8.798553314E0,1.346764389E1,4.457185046E1
9.108619458E0,-4.481770111E1,1.079555054E1,1.468880447E1,4.838317085E1
9.118698458E0,-4.606490753E1,1.176074341E1,1.465257980E1,4.974926016E1
9.128776458E0,-4.506618439E1,1.169952072E1,1.375923752E1,4.855055486E1
9.138854458E0,-4.173456253E1,1.112636261E1,1.266157013E1,4.500983240E1
9.148933458E0,-3.755091248E1,9.987830200E0,1.147349075E1,4.051504375E1
9.159011458E0,-3.312566483E1,8.492439880E0,1.036115387E1,3.573212441E1
9.169090458E0,-2.867047943E1,6.946604462E0,9.693392487E0,3.105178839E1
9.179168458E0,-2.432741089E1,5.799539795E0,9.487121429E0,2.674814116E1
9.189246458E0,-2.020767792E1,4.919519806E0,8.927285614E0,2.263290415E1
9.199325458E0,-1.648596725E1,4.107608185E0,8.237819366E0,1.888176976E1
9.209403458E0,-1.318308563E1,3.447780304E0,7.969277802E0,1.578576335E1
9.219481458E0,-1.034034714E1,2.849324799E0,7.910001068E0,1.332702321E1
9.229560458E0,-8.092172241E0,2.232756958E0,7.747738495E0,1.142348051E1
9.239638458E0,-6.267766113E0,1.617236938E0,7.034771118E0,9.559725522E0
9.249716458E0,-4.659360809E0,9.506730652E-1,5.691763916E0,7.416845617E0
9.259795458E0,-3.429069214E0,2.383044434E-1,4.042194214E0,5.306094491E0
9.269873458E0,-2.870131531E0,-2.317181396E-1,2.702031097E0,3.948711227E0
9.279951458E0,-2.542462921E0,-5.191204834E-1,1.700014801E0,3.102201493E0
9.290030458E0,-1.937271423E0,-8.304730225E-1,4.679269409E-1,2.159088148E0
9.300108458E0,-1.146765289E0,-1.115480347E0,-8.267308044E-1,1.800791730E0
9.310186458E0,-1.892065430E-1,-1.270408173E0,-1.873054962E0,2.271138686E0
9.320265458E0,9.529183960E-1,-1.411864014E0,-2.679577789E0,3.175145759E0
9.330343458E0,1.850601654E0,-1.473386078E0,-2.906655579E0,3.747564498E0
9.340421458E0,2.271376648E0,-1.379082184E0,-2.562221832E0,3.691341255E0
9.350500458E0,2.295626221E0,-1.128652954E0,-2.040556641E0,3.272251311E0
9.360578458E0,2.021845551E0,-8.114625549E-1,-1.842518463E0,2.853279726E0
9.370657458E0,1.514101410E0,-2.755769348E-1,-2.122735748E0,2.621917768E0
9.380735458E0,1.068777466E0,2.198927307E-1,-3.047512665E0,3.236969497E0
9.390813458E0,1.096170502E0,3.725752258E-1,-4.120481415E0,4.280043126E0
9.400892458E0,1.328038330E0,6.394702148E-1,-4.433181152E0,4.671798700E0
9.410970458E0,1.572330322E0,8.988807678E-1,-4.103117523E0,4.485062172E0
9.421048458E0,1.534608765E0,9.154962158E-1,-3.531605988E0,3.957953794E0
9.431127333E0,1.286873932E0,9.874964905E-1,-2.919678497E0,3.340017420E0
9.441205333E0,5.761518860E-1,9.183403015E-1,-1.910177765E0,2.196378610E0
9.451283333E0,-5.548960876E-1,9.996212769E-1,-2.454895020E-2,1.143571168E0
9.461362333E0,-1.939067688E0,1.422791290E0,1.789828033E0,2.997966468E0
9.471440333E0,-3.417094116E0,1.912722473E0,2.515219574E0,4.654177582E0
9.481518333E0,-3.979774017E0,2.509681091E0,2.602039032E0,5.376588838E0
9.491597333E0,-4.443210297E0,2.801723785E0,2.311044159E0,5.738701858E0
9.501675333E0,-4.462969208E0,2.663710785E0,1.928140411E0,5.543570577E0
9.511753333E0,-4.799619141E0,1.942061462E0,3.193758545E0,6.083423400E0
9.521832333E0,-5.604645081E0,1.763931885E0,5.854924622E0,8.294796230E0
9.531910333E0,-6.768025818E0,2.260599060E0,8.397836609E0,1.101998826E1
9.541988333E0,-8.234077148E0,3.386707306E0,1.043465103E1,1.371684202E1
9.552067333E0,-9.182055817E0,5.294340363E0,1.027208908E1,1.475994590E1
9.562145333E0,-1.100526443E1,6.568041687E0,9.061855774E0,1.569624945E1
9.572224333E0,-1.346839233E1,7.072492676E0,9.618847504E0,1.799833248E1
9.582302333E0,-1.536000870E1,7.597451019E0,1.091515182E1,2.031727513E1
9.592380333E0,-1.654958496E1,7.147337036E0,1.148187332E1,2.137303451E1
9.602459333E0,-1.618165009E1,6.594536591E0,1.204500229E1,2.122300150E1
9.612537333E0,-1.475691284E1,6.028713226E0,1.172332123E1,1.978757490E1
9.622615333E0,-1.348021774E1,5.566025391E0,1.067130890E1,1.807135143E1
9.632694333E0,-1.217897369E1,5.258415070E0,9.909393311E0,1.655821262E1
9.642772333E0,-1.101514389E1,4.689448242E0,1.003079086E1,1.561861342E1
9.652850333E0,-9.694140930E0,3.766467590E0,1.110615463E1,1.521543023E1
9.662929333E0,-7.728278961E0,2.712509308E0,1.300839890E1,1.537213207E1
9.673007333E0,-5.710025940E0,1.981130219E0,1.475242218E1,1.594249771E1
9.683085333E0,-4.488865356E0,1.766626282E0,1.576027634E1,1.648202630E1
9.693164333E0,-4.125720520E0,1.904339905E0,1.607432327E1,1.670424943E1
9.703242333E0,-4.378245392E0,2.080373840E0,1.549293228E1,1.623354363E1
9.713320333E0,-4.734953613E0,2.428998871E0,1.413660278E1,1.510507728E1
9.723399333E0,-4.279600525E0,2.734064484E0,1.214244965E1,1.316165539E1
9.733477333E0,-3.352727966E0,2.652783508E0,1.022673340E1,1.108440892E1
9.743555333E0,-2.490820312E0,2.643053741E0,8.851243744E0,9.567362997E0
9.753634333E0,-2.007924500E0,2.488125916E0,7.664062500E0,8.304239000E0
9.763712333E0,-1.843566284E0,2.340832214E0,6.753206635E0,7.381329958E0
9.773790333E0,-1.685345306E0,2.292183380E0,5.893694000E0,6.544472662E0
9.783869333E0,-1.531315613E0,2.149080963E0,4.657564545E0,5.353165790E0
9.793947333E0,-1.861379242E0,2.052082672E0,3.571722565E0,4.520285174E0
9.804026333E0,-2.101330261E0,2.096689911E0,3.007396088E0,4.225651273E0
9.814104333E0,-2.335593109E0,2.201771393E0,2.455793152E0,4.041498787E0
9.824182333E0,-2.121538239E0,2.134112091E0,2.191442871E0,3.722604031E0
9.834261333E0,-1.431473236E0,2.257455597E0,2.501298523E0,3.660835383E0
9.844339333E0,-9.532177734E-1,2.125280457E0,3.022364960E0,3.815773983E0
9.854417333E0,-9.506730652E-1,2.115850067E0,3.618275757E0,4.297966989E0
9.864496333E0,-1.251697083E0,2.257605286E0,3.944148102E0,4.713791623E0
9.874574333E0,-1.430724792E0,2.468067627E0,4.052223358E0,4.955688185E0
9.884652333E0,-1.683698730E0,2.742596741E0,4.046984253E0,5.170566685E0
9.894731333E0,-1.895059204E0,3.028951263E0,4.363725586E0,5.639848946E0
9.904809333E0,-2.260299683E0,3.273991699E0,5.087470551E0,6.458353730E0
9.914887333E0,-2.812501373E0,3.593427429E0,5.828280029E0,7.402143795E0
9.924966333E0,-3.197201385E0,3.928580475E0,6.133046265E0,7.954250293E0
9.935044333E0,-3.358565826E0,4.104015656E0,6.233038330E0,8.183744604E0
9.945122333E0,-3.613186340E0,4.148173828E0,6.544690247E0,8.549586660E0
9.955201333E0,-3.681294708E0,4.168830872E0,7.198680267E0,9.096816979E0
9.965279333E0,-3.623514862E0,4.198469238E0,8.133785706E0,9.844565699E0
9.975357333E0,-3.140768738E0,4.338727570E0,9.031019897E0,1.049991931E1
9.985436333E0,-2.480641479E0,4.449347534E0,9.564211121E0,1.083625443E1
9.995514333E0,-2.609972534E0,4.326453094E0,1.033391052E1,1.150303698E1