"Time (s)","Acceleration x (m/s^2)","Acceleration y (m/s^2)","Acceleration z (m/s^2)","Absolute acceleration (m/s^2)"
1.398124965E-3,3.025059357E0,-1.045860123E1,8.711883545E-1,1.092210112E1
1.147912501E-2,3.687881012E0,-1.026310776E1,1.179696808E0,1.096920835E1
2.155912493E-2,4.151766357E0,-9.980345764E0,1.196761322E0,1.087550933E1
3.164012497E-2,4.376598816E0,-9.553283844E0,1.241817627E0,1.058120789E1
4.172012501E-2,4.612807617E0,-9.044042816E0,-3.480262756E-1,1.015843624E1
5.180012493E-2,5.092410278E0,-8.665929108E0,-7.752378845E-1,1.008126795E1
6.188112497E-2,5.147495728E0,-8.562643890E0,-9.235794067E-1,1.003337339E1
7.196112501E-2,4.474345551E0,-8.578211517E0,-4.397854614E-1,9.684982818E0
8.204212494E-2,3.984114990E0,-8.968000946E0,2.092648315E-1,9.815396324E0
9.212212497E-2,4.073030090E0,-9.376351776E0,1.722917175E-1,1.022424722E1
1.022031249E-1,4.490661621E0,-9.207502899E0,-3.876937866E-2,1.024429863E1
1.122831249E-1,4.796176300E0,-8.555458832E0,-3.080593872E-1,9.812954882E0
1.223641250E-1,4.822970581E0,-8.118367767E0,-5.834866333E-1,9.460940602E0
1.324441249E-1,4.706812134E0,-8.092770996E0,-7.442523193E-1,9.391535251E0
1.425241249E-1,4.346661072E0,-8.354127502E0,-8.530760193E-1,9.455826114E0
1.526051250E-1,4.184398499E0,-8.846154327E0,-7.839198303E-1,9.817238282E0
1.626851249E-1,4.324207764E0,-9.137897644E0,-5.486091614E-1,1.012427371E1
1.727661249E-1,4.508773956E0,-9.401649170E0,-3.212319946E-1,1.043183779E1
1.828461250E-1,3.946393433E0,-9.510472870E0,-2.445913696E-1,1.029965729E1
1.929261249E-1,4.093238068E0,-9.636810150E0,-3.098556519E-1,1.047467032E1
2.030071249E-1,2.971321106E0,-1.002615051E1,-6.324348450E-1,1.047627878E1
2.130871250E-1,8.783734131E-1,-1.021999741E1,1.597178650E0,1.038127480E1
2.231681249E-1,-1.121617584E0,-1.075214081E1,3.473975830E0,1.135495777E1
2.332481249E-1,-3.564836884E0,-1.128578110E1,4.130959625E0,1.253561903E1
2.433291250E-1,-5.470374298E0,-1.161120438E1,2.506986694E0,1.307784555E1
2.534091249E-1,-6.241420898E0,-1.212568451E1,-4.240681458E-1,1.364431726E1
2.634901250E-1,-3.928879852E0,-1.277129196E1,-1.990410919E0,1.350939417E1
2.735701250E-1,6.803352356E-1,-1.321571777E1,-1.138083344E0,1.328206633E1
2.836501249E-1,5.647905121E0,-1.311482758E1,-3.567082214E-1,1.428372414E1
2.937311250E-1,7.608827362E0,-1.204305634E1,1.195713501E0,1.429542551E1
3.038111250E-1,7.095844116E0,-1.000609222E1,3.140619049E0,1.266239998E1
3.138921249E-1,5.079836426E0,-8.237370300E0,5.036875763E0,1.091004698E1
3.239721250E-1,4.830455017E0,-7.162754974E0,5.951922913E0,1.049112677E1
3.340521250E-1,6.440207520E0,-6.284830627E0,4.912334747E0,1.025214132E1
3.441331249E-1,7.179969177E0,-5.782924347E0,1.844314728E0,9.401897053E0
3.542131250E-1,7.532037048E0,-5.403762817E0,-1.722917175E-1,9.271565085E0
3.642941250E-1,6.033652954E0,-6.098168793E0,-8.491841125E-1,8.620541993E0
3.743741249E-1,4.274810486E0,-7.305108948E0,-1.104852448E0,8.535767122E0
3.844551250E-1,3.306623840E0,-8.792715454E0,-7.723937988E-2,9.394230793E0
3.945351250E-1,3.386407928E0,-1.026430527E1,5.755531311E-1,1.082381553E1
4.046161249E-1,3.785777435E0,-1.041249710E1,5.007087708E-1,1.109066797E1
4.146961250E-1,3.896996155E0,-1.008288254E1,8.170010376E-1,1.084059915E1
4.247761250E-1,3.702999573E0,-9.607620850E0,1.653760986E0,1.042849508E1
4.348571249E-1,2.948718109E0,-9.261540527E0,2.076631622E0,9.938987389E0
4.449371250E-1,2.635269928E0,-9.600435791E0,2.023941193E0,1.015920041E1
4.550181250E-1,2.951412506E0,-9.906249847E0,2.103126526E0,1.054835357E1
4.650981249E-1,3.595672760E0,-9.789941711E0,2.466421051E0,1.071704503E1
4.751781250E-1,4.239633636E0,-9.378746796E0,2.468217316E0,1.058430355E1
4.852591250E-1,4.854854279E0,-8.910071411E0,2.217638397E0,1.038638063E1
4.953391249E-1,5.279820557E0,-8.547375641E0,1.853745117E0,1.021618845E1
5.054201250E-1,5.482050018E0,-8.310867462E0,1.500479736E0,1.006850683E1
5.155001250E-1,5.492079163E0,-8.142467651E0,1.129850464E0,9.886317568E0
5.255811249E-1,5.368436279E0,-7.941884766E0,6.947053528E-1,9.611256798E0
5.356611250E-1,5.673352203E0,-7.939040680E0,-4.445755005E-2,9.757933624E0
5.457421249E-1,5.978118439E0,-7.915090485E0,-1.066831512E0,9.976206039E0
5.558221249E-1,5.915249176E0,-7.763006744E0,-1.826501770E0,9.929277680E0
5.659021250E-1,5.760620728E0,-7.831713867E0,-2.161654816E0,9.959580554E0
5.759831249E-1,5.531596985E0,-8.282725983E0,-2.255210266E0,1.021215395E1
5.860631249E-1,4.845423889E0,-8.568930817E0,-3.550317078E0,1.046467674E1
5.961441250E-1,4.439019012E0,-9.024283905E0,-3.570824432E0,1.067208400E1
6.062241249E-1,4.158951416E0,-9.501641235E0,-3.436703339E0,1.092652703E1
6.163041249E-1,4.020040283E0,-9.697583771E0,-3.285667419E0,1.099997569E1
6.263851250E-1,4.071084137E0,-9.622290344E0,-3.281476135E0,1.095126856E1
6.364651249E-1,4.381987610E0,-9.557624817E0,-3.335064697E0,1.103053326E1
6.465461249E-1,4.617298279E0,-1.033690430E1,-4.070485382E0,1.203078905E1
6.566261250E-1,5.451064453E0,-1.010039612E1,-2.852617950E0,1.182664511E1
6.667071249E-1,4.774770813E0,-9.265881500E0,-1.725012817E0,1.056554142E1
6.767871249E-1,3.647315369E0,-9.172775116E0,5.239105225E-3,9.871308939E0
6.868671250E-1,2.196681976E0,-9.057065735E0,4.849914551E-1,9.332259541E0
6.969481249E-1,7.481442261E-1,-8.600215759E0,2.199226685E0,8.908424603E0
7.070281249E-1,1.187330933E0,-9.207053833E0,4.499792633E0,1.031638157E1
7.171091250E-1,2.302212524E0,-1.073807007E1,4.707410889E0,1.194847474E1
7.271891249E-1,6.963519287E-1,-1.027343628E1,3.661535797E0,1.092864325E1
7.372701250E-1,-1.537003784E0,-8.413853302E0,3.301384735E0,9.168121356E0
7.473501250E-1,-1.450034637E0,-6.886130219E0,2.328707428E0,7.412440092E0
7.574311249E-1,8.538244629E-1,-5.722899170E0,3.650907898E0,6.841762902E0
7.675111250E-1,4.196523285E0,-4.866829376E0,5.388494568E0,8.386459895E0
7.775911250E-1,7.859106903E0,-4.894521790E0,5.589526520E0,1.081502250E1
7.876721249E-1,9.906399536E0,-5.506449280E0,5.126090240E0,1.243923376E1
7.977517500E-1,1.188558380E1,-6.526428223E0,3.261717224E0,1.394633166E1
8.078327499E-1,1.404963364E1,-7.588619385E0,-6.303392029E-1,1.598050928E1
8.179127499E-1,1.410726379E1,-7.628286896E0,-5.967789917E0,1.711198905E1
8.279937500E-1,9.191635895E0,-5.973029022E0,-8.801247711E0,1.405792330E1
8.380737499E-1,3.874393158E0,-6.004763031E0,-7.040608978E0,1.003186305E1
8.481537499E-1,5.841752014E0,-9.170529785E0,-4.664001160E0,1.183121253E1
8.582347500E-1,8.836723938E0,-1.037267990E1,-2.294877777E0,1.381834441E1
8.683147499E-1,1.249825974E1,-5.091212769E0,-2.218386841E-1,1.349726477E1
8.783957500E-1,9.849068756E0,-6.588099976E0,3.642225952E0,1.239649251E1
8.884757500E-1,5.266947327E0,-1.608540024E1,2.089804230E0,1.705426975E1
8.985567499E-1,4.535568237E0,-1.393961243E1,-1.413510590E0,1.472692045E1
9.086367500E-1,-7.144642639E-1,-1.337723190E1,-2.614612885E0,1.364906565E1
9.187167500E-1,-4.122427368E0,-1.213945587E1,-2.722239075E0,1.310615816E1
9.287977499E-1,-5.436694336E0,-1.162482605E1,-1.775607605E0,1.295557827E1
9.388777500E-1,-4.888534241E0,-1.232746490E1,3.585044861E-1,1.326622341E1
9.489587500E-1,-2.100581818E0,-1.327394669E1,8.592132568E-1,1.346656422E1
9.590387499E-1,1.040785675E0,-1.270048920E1,-6.369255066E-1,1.275897076E1
9.691197500E-1,1.791773987E0,-1.172586594E1,-1.826052704E0,1.200170215E1
9.791997500E-1,1.508113861E0,-1.099867813E1,-2.756368103E0,1.143865784E1
9.892797499E-1,2.687660980E0,-1.024843826E1,-1.874851227E0,1.075960387E1
9.993607500E-1,5.993686066E0,-9.348809052E0,2.544708252E-2,1.110518577E1
1.009440750E0,8.314459991E0,-8.116421814E0,3.594026184E-1,1.162478896E1
1.019521750E0,7.609575806E0,-7.275021515E0,-3.329077148E-1,1.053292028E1
1.029601750E0,6.274053040E0,-7.090904388E0,1.601669312E-1,9.469441379E0
1.039682750E0,6.706803131E0,-6.860084381E0,1.698667603E0,9.743071260E0
1.049762750E0,6.793472900E0,-6.628964996E0,2.567610626E0,9.832958624E0
1.059842750E0,4.580774231E0,-7.140002289E0,2.455493774E0,8.831340494E0
1.069923750E0,2.661315765E0,-7.613467712E0,2.287692719E0,8.383378208E0
1.080003750E0,2.219734039E0,-7.892337799E0,1.665736084E0,8.366055931E0
1.090084750E0,2.356250153E0,-8.332722015E0,2.565664673E-1,8.663255584E0
1.100164750E0,1.731898499E0,-8.816665649E0,-6.583309937E-1,9.009243324E0
1.110245750E0,5.077441406E-1,-9.306147766E0,-6.234535217E-1,9.340818200E0
1.120325750E0,5.493576050E-2,-9.599986725E0,-4.908293152E-1,9.612683105E0
1.130405750E0,5.786965942E-1,-9.403146057E0,-3.333567810E-1,9.426832568E0
1.140486750E0,4.899311829E-1,-9.047485657E0,1.291813660E-1,9.061661939E0
1.150566750E0,-4.216731262E-1,-9.053922272E0,8.737330627E-1,9.105752368E0
1.160647750E0,-1.414708099E0,-9.701775055E0,1.438508606E0,9.909346357E0
1.170727750E0,-2.690954132E0,-1.115540222E1,2.133213959E0,1.167196790E1
1.180808750E0,-3.171005859E0,-1.274913803E1,2.333647156E0,1.334322704E1
1.190888750E0,-2.462978210E0,-1.367660934E1,2.431393890E0,1.410771353E1
1.200968750E0,-1.343156891E0,-1.393362488E1,2.617456970E0,1.424082349E1
1.211049750E0,-1.151106262E-1,-1.303264847E1,2.468516693E0,1.326486906E1
1.221129750E0,1.297052765E0,-1.118638779E1,2.016905823E0,1.144052126E1
1.231210750E0,2.373164978E0,-9.933642883E0,1.537153473E0,1.032821445E1
1.241290750E0,3.011886749E0,-9.120384064E0,1.161135406E0,9.674766286E0
1.251371750E0,3.528612213E0,-8.591234436E0,7.982899475E-1,9.321892518E0
1.261451750E0,3.901486816E0,-8.458759918E0,3.373983765E-1,9.321269034E0
1.271531750E0,4.179009705E0,-8.578510895E0,-1.907034302E-1,9.544178282E0
1.281612750E0,4.443659363E0,-8.749754791E0,-6.153703308E-1,9.832751298E0
1.291692750E0,4.719535675E0,-8.904383240E0,-6.801855469E-1,1.010072820E1
1.301773750E0,5.035977631E0,-9.003177795E0,-5.740562439E-1,1.033188374E1
1.311853750E0,5.239254913E0,-9.071884918E0,-3.242257690E-1,1.048112639E1
1.321934750E0,5.328469391E0,-9.118587799E0,1.317260742E-2,1.056131635E1
1.332014750E0,5.199138336E0,-9.038055267E0,3.890409851E-1,1.043402297E1
1.342094750E0,4.877307587E0,-8.887618103E0,7.577243042E-1,1.016622009E1
1.352175750E0,4.476890259E0,-8.789871368E0,1.045426025E0,9.919541352E0
1.362255750E0,4.032614136E0,-8.821755066E0,1.207688599E0,9.774653496E0
1.372336750E0,3.562142487E0,-8.877588959E0,1.218166809E0,9.642840618E0
1.382416750E0,3.160377960E0,-8.977581024E0,1.194815369E0,9.592316387E0
1.392497750E0,2.853216705E0,-9.102271729E0,1.179696808E0,9.611653383E0
1.402577750E0,2.620450745E0,-9.238787842E0,1.157542877E0,9.672738413E0
1.412657750E0,2.468965759E0,-9.389524384E0,1.110390930E0,9.771997139E0
1.422738750E0,2.291285248E0,-9.554181976E0,1.074615326E0,9.883682483E0
1.432818750E0,2.119592285E0,-9.663005676E0,1.009351044E0,9.944100748E0
1.442899750E0,1.985770569E0,-9.706714783E0,9.297166443E-1,9.951279800E0
1.452979750E0,1.912273407E0,-9.718240814E0,7.813751221E-1,9.935368196E0
1.463060750E0,1.985022125E0,-9.631720734E0,6.505471802E-1,9.855636396E0
1.473140750E0,2.130070496E0,-9.477241974E0,4.851411438E-1,9.725773886E0
1.483220750E0,2.414029999E0,-9.345665588E0,3.703298950E-1,9.659510876E0
1.493301750E0,2.758314056E0,-9.280251617E0,3.275189209E-1,9.687034384E0
1.503381750E0,3.100502472E0,-9.260941772E0,3.335064697E-1,9.771867000E0
1.513462750E0,3.293002167E0,-9.225764923E0,3.469784546E-1,9.801989376E0
1.523542750E0,3.408711548E0,-9.235494690E0,3.882925415E-1,9.852129094E0
1.533623750E0,3.466192017E0,-9.226812744E0,4.122427368E-1,9.865014171E0
1.543703750E0,3.507356415E0,-9.233099670E0,4.270619202E-1,9.886053835E0
1.553783750E0,3.523822174E0,-9.244176636E0,4.342469788E-1,9.902560014E0
1.563864750E0,3.494632874E0,-9.251212006E0,4.373904419E-1,9.898923825E0
1.573944750E0,3.383414154E0,-9.264384613E0,4.225712585E-1,9.871923828E0
1.584025750E0,3.222798157E0,-9.260941772E0,3.758683777E-1,9.812886808E0
1.594105750E0,3.060236206E0,-9.230405273E0,3.216810608E-1,9.729794749E0
1.604186750E0,2.856809235E0,-9.195527802E0,2.586621094E-1,9.632548813E0
1.614266750E0,2.644999695E0,-9.181606750E0,1.971400452E-1,9.557028309E0
1.624346750E0,2.455793152E0,-9.206305389E0,1.624122620E-1,9.529604224E0
1.634427750E0,2.384691010E0,-9.306297455E0,1.097218323E-1,9.607599201E0
1.644507750E0,2.367476807E0,-9.421108704E0,7.274871826E-2,9.714295034E0
1.654588750E0,2.398312683E0,-9.568252716E0,5.987548828E-3,9.864248558E0
1.664668750E0,2.486479340E0,-9.663754120E0,-7.349716187E-2,9.978783745E0
1.674749750E0,2.634820862E0,-9.682165833E0,-1.062789917E-1,1.003483490E1
1.684829750E0,2.880609741E0,-9.579030304E0,-8.397537231E-2,1.000313880E1
1.694909750E0,3.038980408E0,-9.416318665E0,3.487747192E-2,9.894628621E0
1.704990750E0,3.085982666E0,-9.258097687E0,1.975891113E-1,9.760876152E0
1.715070750E0,3.169209595E0,-9.116492157E0,3.317102051E-1,9.657346963E0
1.725151750E0,3.274740143E0,-8.945098572E0,4.799020386E-1,9.537767948E0
1.735231750E0,3.387006683E0,-8.849447479E0,6.523434448E-1,9.497899080E0
1.745311750E0,3.323987732E0,-8.871302032E0,8.057743835E-1,9.507795041E0
1.755392750E0,3.082390137E0,-8.981173553E0,8.936416626E-1,9.537358270E0
1.765472750E0,2.970722351E0,-9.030870209E0,1.006656647E0,9.560081883E0
1.775553750E0,2.988235931E0,-9.028624878E0,1.188977509E0,9.584325155E0
1.785633750E0,3.056344299E0,-9.008416901E0,1.390009460E0,9.613789151E0
1.795714750E0,3.150797882E0,-9.081165619E0,1.573078766E0,9.740106421E0
1.805795375E0,3.274590454E0,-9.233997803E0,1.664837952E0,9.937874193E0
1.815875375E0,3.420387268E0,-9.354048157E0,1.742077332E0,1.011098904E1
1.825956375E0,3.538341980E0,-9.446705475E0,1.785337372E0,1.024439055E1
1.836036375E0,3.655099182E0,-9.471853180E0,1.776805115E0,1.030692918E1
1.846117375E0,3.795357513E0,-9.409133606E0,1.787283325E0,1.030198600E1
1.856197375E0,3.963008881E0,-9.333241425E0,1.805395660E0,1.029923727E1
1.866278375E0,4.150868225E0,-9.245673523E0,1.827399902E0,1.029813460E1
1.876358375E0,4.346212006E0,-9.167236633E0,1.853146362E0,1.031319241E1
1.886438375E0,4.488116913E0,-9.146729279E0,1.852098541E0,1.035548738E1
1.896519375E0,4.562961273E0,-9.079968109E0,1.782044220E0,1.031707895E1
1.906599375E0,4.559219055E0,-8.987759857E0,1.663490753E0,1.021437747E1
1.916680375E0,4.510270844E0,-8.863518219E0,1.526675262E0,1.006157223E1
1.926760375E0,4.363126831E0,-8.625064087E0,1.224603424E0,9.743113455E0
1.936841375E0,4.093238068E0,-8.402476959E0,7.023394775E-1,9.372806286E0
1.946921375E0,3.739224243E0,-8.154742126E0,-4.135899353E-1,8.980683366E0
1.957001375E0,3.053200836E0,-8.045469360E0,-5.311853943E0,1.011273479E1
1.967082375E0,2.649041290E0,-8.142018585E0,-9.397158508E0,1.271284683E1
1.977162375E0,3.870800629E0,-7.292235718E0,-4.836292877E0,9.568151758E0
1.987243375E0,4.552333374E0,-6.198460236E0,-2.005978546E0,7.947867536E0
1.997323375E0,4.721631317E0,-5.195695496E0,-6.259982300E-1,7.048469888E0
2.007404375E0,4.563260651E0,-4.242328033E0,4.162843323E-1,6.244516599E0
2.017484375E0,4.183949432E0,-3.416495361E0,4.267625427E-1,5.418486844E0
2.027564375E0,3.685336304E0,-2.629432068E0,2.116598511E-1,4.532153634E0
2.037645375E0,3.174748077E0,-1.804796906E0,2.215393066E-2,3.651959477E0
2.047725375E0,2.938838654E0,-1.540147247E0,-2.508782959E-1,3.327426347E0
2.057806375E0,2.387086029E0,-2.130519562E0,-9.313632202E-1,3.332376143E0
2.067886375E0,5.119354248E-1,-4.291425934E0,-6.278394012E0,7.622115572E0
2.077967375E0,-2.073787537E0,-8.067024536E0,-1.641621231E1,1.840840857E1
2.088047375E0,-3.334465942E0,-1.106454117E1,-1.544084061E1,1.928632399E1
2.098127375E0,-3.001408539E0,-1.230201782E1,-8.347092133E0,1.516647760E1
2.108208375E0,1.104403381E0,-1.094449081E1,-1.378932495E0,1.108616439E1
2.118288375E0,1.971550140E0,-8.526568909E0,3.074456635E0,9.275864968E0
2.128369375E0,-4.498146057E-1,-7.933202820E0,-5.892945557E0,9.892666349E0
2.138449375E0,2.364483032E0,-6.817872162E0,-1.049497559E1,1.273650947E1
2.148530375E0,5.843548279E0,-4.239933014E0,-8.190218353E0,1.091804768E1
2.158610375E0,3.539240112E0,-5.265899506E0,-5.132676544E0,8.160899870E0
2.168690375E0,-4.969665527E-2,-6.412515106E0,-3.860322418E0,7.484978886E0
2.178771375E0,-1.742975464E0,-7.114405518E0,-8.429720306E0,1.116749362E1
2.188851375E0,-2.799628143E0,-8.953181763E0,-7.204667816E0,1.182812833E1
2.198932375E0,-2.260299683E0,-1.128772705E1,-4.727319489E0,1.244464890E1
2.209012375E0,-7.569758606E-1,-1.318308563E1,-5.080285492E0,1.414835891E1
2.219092375E0,1.875749359E0,-1.444975159E1,-8.295449524E0,1.676687924E1
2.229173375E0,4.896467743E0,-1.515538422E1,-1.101125198E1,1.936256020E1
2.239253375E0,6.986870728E0,-1.467383560E1,-9.671837311E0,1.891248928E1
2.249334375E0,7.641010437E0,-1.326915665E1,-7.641309814E0,1.711271966E1
2.259414375E0,7.524552612E0,-1.211715225E1,-6.335275726E0,1.560704934E1
2.269495375E0,6.837930450E0,-1.223316101E1,-5.831872559E0,1.517953421E1
2.279575375E0,6.396348724E0,-1.323203384E1,-4.559518433E0,1.538795649E1
2.289656375E0,6.750661926E0,-1.462937805E1,-5.655389557E0,1.707552546E1
2.299736375E0,7.808811493E0,-1.657039169E1,-1.154579041E1,2.165319131E1
2.309816375E0,8.988208923E0,-1.662712372E1,-9.039252777E0,2.095130625E1
2.319897375E0,9.673483887E0,-1.697290466E1,-5.265300751E0,2.023312075E1
2.329977375E0,1.083057770E1,-1.780876648E1,-5.184169464E0,2.147857513E1
2.340058375E0,1.157976974E1,-1.834300552E1,-1.678010559E0,2.175712845E1
2.350138375E0,1.197809143E1,-1.995215927E1,1.883233795E0,2.334758881E1
2.360218375E0,1.281365387E1,-2.240974869E1,3.966152344E0,2.611736829E1
2.370299375E0,1.388991577E1,-2.463277588E1,5.260211334E0,2.876409621E1
2.380379375E0,1.550191360E1,-2.664728668E1,6.128854980E0,3.143167314E1
2.390460375E0,1.706181976E1,-2.811348770E1,5.868995361E0,3.340537368E1
2.400540375E0,1.918530396E1,-2.832888977E1,4.353846130E0,3.448996752E1
2.410621375E0,2.097543137E1,-2.678679657E1,2.667602692E0,3.412648965E1
2.420701375E0,1.999182678E1,-2.218536530E1,-1.114881592E0,2.988488803E1
2.430781375E0,1.498039810E1,-1.513352966E1,-8.774603119E0,2.303105962E1
2.440862375E0,9.698631592E0,-8.178542633E0,-1.611773300E1,2.051178518E1
2.450942375E0,5.458399200E0,-2.130519562E0,-2.218506592E1,2.294581411E1
2.461023375E0,2.951861572E-1,9.283694458E-1,-2.473381577E1,2.475299269E1
2.471103375E0,-2.639311523E0,-2.330952759E0,-2.015289185E1,2.045820999E1
2.481184375E0,-1.039438477E0,-7.400460663E0,-1.038854691E1,1.279723240E1
2.491264375E0,1.508862305E0,-8.267607422E0,-5.593119049E0,1.009519582E1
2.501344375E0,3.263064423E0,-6.525230713E0,-4.350103912E0,8.494093791E0
2.511425375E0,4.430187378E0,-4.451892242E0,-4.548441467E0,7.754626008E0
2.521505375E0,3.907324677E0,-2.756517792E0,-3.874093781E0,6.154200117E0
2.531586375E0,1.822160797E0,-1.272054749E0,-2.055675201E0,3.027241944E0
2.541666375E0,3.207829285E-1,-3.664379883E-1,1.789378967E0,1.854469082E0
2.551747375E0,-1.061891785E0,3.586541748E-1,4.870571594E0,4.997871010E0
2.561827375E0,-3.129691772E0,1.050365753E0,5.774541779E0,6.651584139E0
2.571907375E0,-4.886737976E0,1.393901367E0,5.544919281E0,7.521256471E0
2.581988375E0,-5.405559082E0,4.834945679E-1,8.524173889E0,1.010521531E1
2.592068375E0,-5.040617981E0,1.314266968E-1,9.287436676E0,1.056795073E1
2.602149375E0,-4.067341919E0,9.291178894E-1,8.090375977E0,9.102786045E0
2.612229375E0,-2.208208008E0,1.563498688E0,6.230643311E0,6.792762826E0
2.622309375E0,-5.261558533E-1,1.735790405E0,4.057462463E0,4.444413342E0
2.632390375E0,3.119512939E-1,1.653910675E0,2.289788361E0,2.841806620E0
2.642470375E0,6.352789307E-1,1.478325806E0,1.309925995E0,2.074833155E0
2.652551375E0,8.861572266E-1,1.400487671E0,9.309141541E-1,1.900852837E0
2.662631375E0,1.329984283E0,1.165326691E0,8.601113892E-1,1.966376386E0
2.672712375E0,1.805695038E0,4.715194702E-1,1.306483154E0,2.278105224E0
2.682792375E0,2.481988678E0,-1.107696533E-1,2.665207672E0,3.643606681E0
2.692872375E0,3.305875397E0,-3.899391174E-1,3.396736450E0,4.755910340E0
2.702953375E0,4.130211182E0,-5.141807556E-1,3.731141052E0,5.589672603E0
2.713033375E0,4.913831635E0,-6.420149231E-1,3.795207825E0,6.241916927E0
2.723114375E0,5.413342896E0,-7.544311523E-1,3.714974670E0,6.608667375E0
2.733194375E0,5.062921600E0,-6.900650024E-1,3.803141327E0,6.369713399E0
2.743275375E0,3.709885254E0,-3.429368591E-1,4.228556671E0,5.635738266E0
2.753355375E0,2.734214172E0,2.585124207E-1,4.222269745E0,5.036895632E0
2.763435375E0,1.824705505E0,7.490423584E-1,3.634442139E0,4.135188544E0
2.773516375E0,1.090033264E0,1.054856415E0,2.717449036E0,3.112141358E0
2.783596375E0,5.894741821E-1,1.128802643E0,2.004781036E0,2.375041520E0
2.793677375E0,2.383044434E-1,1.024768982E0,1.519190826E0,1.847939729E0
2.803761542E0,5.852828979E-2,8.719367981E-1,1.036594391E0,1.355812403E0
2.813842542E0,-4.475692749E-2,7.059320068E-1,5.246589661E-1,8.806873517E-1
2.823922542E0,-1.609153748E-1,5.254074097E-1,4.191284180E-3,5.495127577E-1
2.834002542E0,-8.737330627E-1,4.251159668E-1,-1.027613068E0,1.414256577E0
2.844083542E0,-4.721631317E0,-9.056167603E-2,-5.054239655E0,6.917177329E0
2.854163542E0,-5.786367188E0,-1.159039764E0,-8.306676178E0,1.018951851E1
2.864244542E0,-3.177891541E0,-1.890568542E0,-1.197165482E1,1.252971520E1
2.874324542E0,-5.362448730E0,-6.319109344E0,-3.399370972E1,3.498941697E1
2.884404542E0,-6.224955139E0,-1.260813126E1,-4.132037384E1,4.364731761E1
2.894485542E0,-1.279539185E0,-1.422372162E1,-2.214345245E1,2.634926875E1
2.904565542E0,3.621718597E0,-1.260543686E1,-5.342689819E0,1.416185788E1
2.914646542E0,5.718558197E0,-8.791517944E0,8.453670502E0,1.347060654E1
2.924726542E0,6.281387787E0,-5.529351654E0,1.547616714E1,1.759378617E1
2.934807542E0,8.118667145E0,-5.011278992E0,1.399080597E1,1.693423529E1
2.944887542E0,1.371492966E1,-9.680369568E0,5.212610321E0,1.757783140E1
2.954967542E0,2.050376221E1,-2.423220886E1,-2.155667267E0,3.181589402E1
2.965048542E0,1.801129532E1,-4.541989883E1,-4.132561295E1,6.399359542E1
2.975128542E0,3.214759872E1,-6.981511871E1,-5.210858963E1,9.285970072E1
2.985209542E0,2.740710663E1,-5.370531921E1,1.607013199E1,6.239919829E1
2.995289542E0,6.671027527E0,-3.545497101E1,1.237371872E1,3.814009036E1
3.005370542E0,3.465144196E0,-2.345203125E1,4.447850647E0,2.412028958E1
3.015450542E0,4.784350891E0,-1.564860855E1,-5.078638916E0,1.713363757E1
3.025530542E0,5.455106049E0,-9.456135864E0,-1.262055542E1,1.668697416E1
3.035611542E0,7.093449097E0,-6.469845886E0,-8.441845093E0,1.278439183E1
3.045691542E0,7.515720978E0,-5.700445862E0,-2.809208221E0,9.842397862E0
3.055772542E0,7.025789795E0,-5.564678192E0,-1.368603973E0,9.066445966E0
3.065852542E0,6.986271973E0,-6.387666779E0,-1.678609314E0,9.613948834E0
3.075933542E0,7.413184204E0,-8.920549622E0,-2.384391632E0,1.184131872E1
3.086013542E0,7.907606049E0,-1.185849014E1,-2.951711884E0,1.455563894E1
3.096093542E0,7.958200836E0,-1.429841629E1,-2.700234833E0,1.658520235E1
3.106174542E0,7.252867584E0,-1.597657654E1,-1.382525024E0,1.760018356E1
3.116254542E0,6.191873932E0,-1.649734360E1,2.474354553E-1,1.762279413E1
3.126335542E0,5.362748108E0,-1.592298798E1,9.418414307E-1,1.682818109E1
3.136415542E0,4.716841278E0,-1.482876343E1,1.085243225E0,1.559867204E1
3.146495542E0,4.178410950E0,-1.329400497E1,1.040486298E0,1.397398648E1
3.156576542E0,3.784280548E0,-1.148980682E1,9.840536499E-1,1.213691895E1
3.166656542E0,3.088826752E0,-9.582922211E0,4.023632813E-1,1.007646491E1
3.176737542E0,2.166893921E0,-7.569459229E0,-6.556365967E-1,7.900759560E0
3.186817542E0,1.889071655E0,-5.605393524E0,-2.207010498E0,6.313471598E0
3.196898542E0,1.957479401E0,-3.920497284E0,-4.642146606E0,6.383694046E0
3.206978542E0,2.130369873E0,-2.843636627E0,-5.854176178E0,6.848074458E0
3.217058542E0,2.421364746E0,-2.332749023E0,-5.313949585E0,6.288305450E0
3.227139542E0,2.471360779E0,-2.092798004E0,-4.409230957E0,5.470717066E0
3.237219542E0,1.860032043E0,-1.923050995E0,-3.537443848E0,4.435239938E0
3.247300542E0,1.169667664E0,-1.848655701E0,-2.947370911E0,3.670510268E0
3.257380542E0,5.197192383E-1,-1.862427063E0,-2.901266785E0,3.486558706E0
3.267461542E0,2.008822632E-1,-2.258353729E0,-3.194506989E0,3.917319256E0
3.277541542E0,3.218307495E-1,-2.954555969E0,-3.421135712E0,4.531792754E0
3.287621542E0,5.646258545E-1,-3.531605988E0,-3.623365173E0,5.091150988E0
3.297702542E0,6.134243774E-1,-3.987408142E0,-4.231700134E0,5.846622887E0
3.307782542E0,6.518943787E-1,-4.535867615E0,-5.323529663E0,7.024174640E0
3.317863542E0,9.307644653E-1,-5.241949310E0,-6.687044220E0,8.547567810E0
3.327943542E0,1.373543701E0,-5.932463379E0,-7.695646820E0,9.813446083E0
3.338023542E0,1.851799164E0,-6.290967865E0,-7.873926086E0,1.024715321E1
3.348104542E0,2.545307007E0,-6.534960480E0,-7.491022339E0,1.026156479E1
3.358184542E0,2.960842896E0,-6.810687103E0,-6.507417755E0,9.874134661E0
3.368265542E0,4.236490173E0,-6.063890076E0,-4.471501465E0,8.643664569E0
3.378345542E0,4.379592590E0,-5.785469055E0,-7.394323425E0,1.035994703E1
3.388426542E0,3.190764771E0,-6.884783020E0,-1.424363022E1,1.613884193E1
3.398506542E0,2.665956116E0,-7.451953583E0,-1.380339569E1,1.591140053E1
3.408586542E0,3.998335419E0,-4.032763824E0,3.016227722E-1,5.686901307E0
3.418667542E0,-6.556365967E-1,-1.750908966E0,1.102532272E1,1.118272251E1
3.428747542E0,-5.883964233E0,-3.725153503E0,6.484365692E0,9.515503253E0
3.438828542E0,-5.373376007E0,-9.156908112E0,-1.603705078E1,1.923302196E1
3.448908542E0,-1.710193634E0,-1.298774185E1,-1.303279816E1,1.847863708E1
3.458989542E0,2.352807312E0,-1.410277313E1,-1.506167908E0,1.437680264E1
3.469069542E0,2.061812439E0,-1.334564758E1,-2.618205414E0,1.375544909E1
3.479149542E0,2.674638062E0,-1.211355972E1,-1.228659988E1,1.746002734E1
3.489230542E0,5.674100647E0,-1.024858795E1,-1.249885849E1,1.713039511E1
3.499310542E0,7.308851166E0,-7.044650574E0,-5.872887268E0,1.172762601E1
3.509391542E0,8.396639099E0,-3.613336029E0,-8.157735901E0,1.225187334E1
3.519471542E0,8.837472382E0,-3.946543121E0,-1.134236343E1,1.491057775E1
3.529551542E0,7.136858826E0,-8.183182983E0,-1.035322037E1,1.500294670E1
3.539632542E0,6.289171600E0,-1.077040283E1,-9.042246552E0,1.540511212E1
3.549712542E0,5.214705963E0,-1.284284317E1,-1.035337006E1,1.730098409E1
3.559793542E0,4.379592590E0,-1.458896210E1,-7.983049164E0,1.719731724E1
3.569873542E0,4.146976318E0,-1.542916489E1,-6.418352966E0,1.721777560E1
3.579954542E0,4.377347260E0,-1.616847748E1,-7.286397858E0,1.826670268E1
3.590034542E0,4.406686249E0,-1.729278946E1,-8.588839417E0,1.980473715E1
3.600114542E0,4.639152832E0,-1.846679810E1,-9.483528900E0,2.127161704E1
3.610195542E0,4.898713074E0,-1.974229568E1,-8.464597778E0,2.203190968E1
3.620275542E0,6.465804291E0,-1.987536896E1,-8.688382416E0,2.263459532E1
3.630356542E0,8.939410400E0,-1.861169678E1,-4.541256409E0,2.114075034E1
3.640436542E0,1.102711899E1,-1.803240143E1,-4.529580688E-1,2.114166563E1
3.650517542E0,1.249361938E1,-1.906660080E1,1.351539459E0,2.283533337E1
3.660597542E0,1.391087219E1,-2.152419022E1,3.601660309E0,2.588001326E1
3.670677542E0,1.506227783E1,-2.435914490E1,5.412295074E0,2.914675096E1
3.680758542E0,1.656365570E1,-2.700983276E1,6.308631134E0,3.230610752E1
3.690838542E0,1.696033081E1,-2.929587891E1,5.989494781E0,3.437696016E1
3.700919542E0,1.665766022E1,-3.009910858E1,4.940176849E0,3.475398292E1
3.710999542E0,1.685734497E1,-2.877870438E1,3.414100342E0,3.352670557E1
3.721080542E0,1.555879532E1,-2.547282898E1,4.430786133E-1,2.985192534E1
3.731160542E0,1.098490677E1,-1.773017990E1,-1.539294022E1,2.592238539E1
3.741240542E0,5.825585632E0,-7.494614868E0,-3.323194382E1,3.456108780E1
3.751321542E0,2.151775360E0,-2.451302490E0,-3.101595200E1,3.118698926E1
3.761401542E0,-5.013075256E-1,-4.925357666E0,-1.751328094E1,1.819960073E1
3.771482542E0,4.484674072E-1,-8.147856445E0,-5.667364655E0,9.935175378E0
3.781562542E0,3.279829559E0,-9.010662231E0,-2.270927582E0,9.854259377E0
3.791642542E0,5.159620514E0,-7.286397858E0,-3.754941559E0,9.685704089E0
3.801718792E0,6.717580719E0,-4.681664429E0,-7.247478790E0,1.093479864E1
3.811798792E0,7.902965698E0,-2.354753265E0,-1.022523651E1,1.313610260E1
3.821879792E0,6.305487671E0,-8.412506104E-1,-6.768624573E0,9.288765040E0
3.831959792E0,4.435875549E0,-4.611909485E-1,-4.587959290E-1,4.483322728E0
3.842040792E0,3.665278015E0,4.025129700E-1,1.519340515E0,3.988066602E0
3.852120792E0,3.433709564E0,1.727407837E0,3.292702789E0,5.061244004E0
3.862200792E0,2.972069550E0,2.766097870E0,6.801406403E0,7.921087292E0
3.872281792E0,1.825603638E0,2.836451569E0,1.091679840E1,1.142605678E1
3.882361792E0,-7.993377686E-2,3.196452942E0,1.059242294E1,1.106449839E1
3.892442792E0,-1.133742371E0,3.668421478E0,8.038883057E0,8.908778182E0
3.902522792E0,-1.965712280E0,3.305126953E0,6.042634277E0,7.162493836E0
3.912602792E0,-2.335144043E0,2.292632446E0,4.398752747E0,5.482525601E0
3.922683792E0,-2.453697510E0,1.449286194E0,3.500620422E0,4.513912414E0
3.932763792E0,-2.533780975E0,6.788383484E-1,3.093018036E0,4.055567544E0
3.942844792E0,-2.392325134E0,-2.619552612E-2,2.869233398E0,3.735827358E0
3.952924792E0,-2.107916565E0,-4.028123474E-1,2.933300171E0,3.634531596E0
3.963005792E0,-1.301693115E0,-6.962022400E-1,2.979404297E0,3.325049246E0
3.973085792E0,-1.763333130E-1,-1.066532135E0,3.294199677E0,3.467035584E0
3.983165792E0,6.012995911E-1,-1.441352692E0,3.611240387E0,3.934477845E0
3.993246792E0,1.136137390E0,-1.673968964E0,3.730841675E0,4.244073499E0
4.003326792E0,1.489103394E0,-1.821861420E0,3.902235260E0,4.556758494E0
4.013407792E0,1.545086975E0,-1.704655151E0,4.138444061E0,4.734961689E0
4.023487792E0,1.208137665E0,-1.189127197E0,3.971990204E0,4.318602354E0
4.033567792E0,5.548960876E-1,-5.117857361E-1,3.375330963E0,3.458712682E0
4.043648792E0,1.285826111E-1,5.882766724E-2,2.787203979E0,2.790788456E0
4.053728792E0,-1.559756470E-1,4.203259277E-1,2.269430695E0,2.313291587E0
4.063809792E0,-2.294728088E-1,6.361770630E-1,1.732197876E0,1.859539864E0
4.073889792E0,-1.977388000E-1,8.051756287E-1,1.247655487E0,1.498016235E0
4.083970792E0,-1.694476318E-1,9.551637268E-1,9.259744263E-1,1.341073780E0
4.094050792E0,-1.423539734E-1,1.070124664E0,7.372169495E-1,1.307256777E0
4.104130792E0,-1.758842468E-1,1.159638519E0,5.860313416E-1,1.311155787E0
4.114211792E0,-1.939965820E-1,1.260079651E0,4.044589233E-1,1.337543428E0
4.124291792E0,-2.210902405E-1,1.354832611E0,2.546205139E-1,1.396167578E0
4.134372792E0,-2.035766602E-1,1.340911560E0,1.836680603E-1,1.368656723E0
4.144452792E0,-1.375639343E-1,1.309776306E0,3.712280273E-2,1.317503666E0
4.154533792E0,-1.254391479E-1,1.246308289E0,-1.788780212E-1,1.265312877E0
4.164613792E0,-2.299218750E-1,1.116079102E0,-4.326004028E-1,1.218868220E0
4.174693792E0,-1.253493347E0,7.482939148E-1,-2.157613220E0,2.605088129E0
4.184774792E0,-3.045117645E0,-1.048719177E0,-9.851763153E0,1.036483433E1
4.194854792E0,-2.747237091E0,-3.247197418E0,-1.856708954E1,1.904805546E1
4.204935792E0,-1.773511963E0,-5.717510376E0,-2.462020203E1,2.533751403E1
4.215015792E0,-3.412902832E-1,-9.405092010E0,-3.310710342E1,3.441878167E1
4.225095792E0,2.124232635E0,-1.486124588E1,-3.723417114E1,4.014663739E1
4.235176792E0,5.049000549E0,-1.940145447E1,-2.126103745E1,2.922226130E1
4.245256792E0,5.131329346E0,-1.684821396E1,1.148202301E1,2.102450254E1
4.255337792E0,5.008285217E0,-1.212403793E1,2.784584427E1,3.078093988E1
4.265417792E0,8.880283356E0,-1.074884766E1,2.318049591E1,2.705055543E1
4.275498792E0,1.469988144E1,-1.662667465E1,1.266636017E1,2.555326798E1
4.285578792E0,2.703393265E1,-3.465174133E1,-3.759102905E1,5.783305419E1
4.295658792E0,2.212743576E1,-4.963169037E1,-7.196913940E1,9.018029235E1
4.305739792E0,2.991723679E1,-3.349554565E1,1.201745956E1,4.649098805E1
4.315819792E0,3.077510284E1,-3.140918427E1,7.613318024E0,4.462741783E1
4.325900792E0,1.910342422E1,-2.560859665E1,-5.724096680E0,3.245776213E1
4.335980792E0,1.370819366E1,-1.774200531E1,-1.115465378E1,2.504235666E1
4.346060792E0,1.194171707E1,-1.301288956E1,-1.237102432E1,2.156344462E1
4.356141792E0,8.852441254E0,-9.035211182E0,-9.362131348E0,1.573690759E1
4.366221792E0,7.598349152E0,-6.476432190E0,-4.065845032E0,1.078008254E1
4.376302792E0,8.547974396E0,-6.869215393E0,-2.388732605E0,1.122319161E1
4.386382792E0,7.807613983E0,-9.392368469E0,-3.491190033E0,1.270290634E1
4.396463792E0,7.013515320E0,-1.130434250E1,-4.945266266E0,1.419271697E1
4.406543792E0,7.654332733E0,-1.219439163E1,-4.461172943E0,1.507295793E1
4.416623792E0,7.951315155E0,-1.276051437E1,-2.420167236E0,1.522863583E1
4.426704792E0,7.931705933E0,-1.349413879E1,-1.279988251E0,1.570484354E1
4.436784792E0,7.738457794E0,-1.450932770E1,-5.170248413E-1,1.645210120E1
4.446865792E0,7.488627319E0,-1.529459473E1,-9.984237671E-2,1.702980139E1
4.456945792E0,7.295379181E0,-1.560834229E1,-5.722599792E-1,1.723863068E1
4.467025792E0,7.098688202E0,-1.512080612E1,-1.513053589E0,1.677258129E1
4.477106792E0,6.718029785E0,-1.361673386E1,-2.061513062E0,1.532309372E1
4.487186792E0,6.059698792E0,-1.168649780E1,-1.918260956E0,1.330315397E1
4.497267792E0,5.220543823E0,-9.619296570E0,-1.631157990E0,1.106551493E1
4.507347792E0,4.215234375E0,-7.681875458E0,-1.656904449E0,8.917664702E0
4.517428792E0,3.458408203E0,-5.823489990E0,-1.462608490E0,6.929130289E0
4.527508792E0,3.371139679E0,-4.268822937E0,-1.629062347E0,5.678140200E0
4.537588792E0,3.331172791E0,-3.100352783E0,-2.436632996E0,5.161984105E0
4.547669792E0,3.043770447E0,-2.191442871E0,-3.378324738E0,5.047775592E0
4.557749792E0,2.537972260E0,-1.551822968E0,-4.060456238E0,5.033563606E0
4.567830792E0,2.125579834E0,-1.372645569E0,-4.262236633E0,4.956703199E0
4.577910792E0,1.497785339E0,-1.419947205E0,-3.919299774E0,4.429505808E0
4.587990792E0,8.729846191E-1,-1.510808258E0,-3.495081940E0,3.906435908E0
4.598071792E0,3.893403625E-1,-1.561103668E0,-3.495680695E0,3.848170227E0
4.608151792E0,-5.149291992E-2,-1.646575928E0,-4.001778259E0,4.327596682E0
4.618232792E0,-2.207908630E-1,-2.056573334E0,-4.558320923E0,5.005650020E0
4.628312792E0,2.392025757E-1,-2.720442810E0,-4.946463776E0,5.650268209E0
4.638393792E0,1.159788208E0,-3.612587585E0,-5.384003906E0,6.586607307E0
4.648473792E0,1.930535431E0,-4.545298004E0,-6.160588989E0,7.895540367E0
4.658553792E0,2.404150543E0,-5.563929749E0,-7.018305359E0,9.273287669E0
4.668634792E0,3.196602631E0,-6.556066589E0,-7.040010223E0,1.013716042E1
4.678714792E0,4.127965851E0,-6.884184265E0,-5.586233368E0,9.779473314E0
4.688795792E0,5.120402069E0,-6.673272858E0,-4.269122314E0,9.432735198E0
4.698875792E0,5.830225983E0,-6.979535980E0,-4.482428741E0,1.013891636E1
4.708955792E0,5.898034973E0,-7.470215607E0,-6.714287567E0,1.164785797E1
4.719036792E0,5.787265320E0,-7.291038208E0,-1.079120956E1,1.425138175E1
4.729116792E0,6.326444092E0,-6.066734161E0,-1.292996201E1,1.562091789E1
4.739197792E0,7.565866699E0,-3.431015167E0,-1.087877747E1,1.368802408E1
4.749277792E0,8.142467651E0,-6.517446899E-1,-2.374811554E0,8.506719727E0
4.759358792E0,4.791685638E0,1.002914429E-2,6.465654602E0,8.047673035E0
4.769438792E0,-2.072290649E0,-3.039130096E0,-9.777068481E0,1.044613653E1
4.779518792E0,-3.559597778E0,-7.647596741E0,-7.645501099E0,1.138464577E1
4.789599792E0,-1.471440125E0,-9.637558594E0,-2.928659821E0,1.017962278E1
4.799679792E0,-3.473227386E0,-1.135194351E1,-6.283633118E0,1.343182695E1
4.809761042E0,-4.277504883E0,-1.194291458E1,-8.910221100E0,1.550233198E1
4.819841042E0,-4.490661621E-2,-9.544003143E0,-1.087638245E1,1.447016613E1
4.829921042E0,3.561543732E0,-6.110443268E0,-7.287295990E0,1.015513631E1
4.840002042E0,6.000272369E0,-2.821033630E0,-8.686885529E0,1.092810502E1
4.850082042E0,8.197702789E0,-1.682950287E0,-1.076995377E1,1.363915528E1
4.860163042E0,8.366701355E0,-3.405268707E0,-1.014335678E1,1.358253413E1
4.870243042E0,6.829398193E0,-7.133266296E0,-1.022912842E1,1.421827120E1
4.880323042E0,4.238286438E0,-1.034798126E1,-9.416767731E0,1.461914165E1
4.890404042E0,3.396886139E0,-1.248748215E1,-9.136550446E0,1.584148351E1
4.900484042E0,4.414919128E0,-1.441577225E1,-9.198820953E0,1.766137898E1
4.910565042E0,5.250481567E0,-1.539084457E1,-8.672066345E0,1.842960629E1
4.920645042E0,6.293362885E0,-1.541165131E1,-7.342980194E0,1.819463576E1
4.930726042E0,7.992479553E0,-1.539698181E1,-6.879394226E0,1.866206964E1
4.940806042E0,9.187743988E0,-1.585847214E1,-7.325915680E0,1.973764978E1
4.950886042E0,9.750124512E0,-1.612387024E1,-8.369246063E0,2.061767201E1
4.960967042E0,1.102981339E1,-1.494701752E1,-8.750503235E0,2.053390910E1
4.971047042E0,1.185908890E1,-1.393961243E1,-6.377487946E0,1.938099937E1
4.981128042E0,1.324580521E1,-1.382150803E1,-3.565585327E0,1.947302849E1
4.991208042E0,1.409139679E1,-1.452294937E1,-7.887098694E-1,2.025106380E1
5.001288042E0,1.488848923E1,-1.672412201E1,7.005432129E-2,2.239125445E1
5.011369042E0,1.601893845E1,-1.932541260E1,1.306034088E0,2.513530756E1
5.021449042E0,1.716750000E1,-2.135519165E1,3.705693970E0,2.764958290E1
5.031530042E0,1.847533035E1,-2.424448334E1,4.524790649E0,3.081568650E1
5.041610042E0,1.921883423E1,-2.665342392E1,3.477867737E0,3.304336786E1
5.051691042E0,1.801084625E1,-2.811573303E1,1.091979218E0,3.340774529E1
5.061771042E0,1.534204605E1,-2.758628403E1,-1.789079590E0,3.161617069E1
5.071851042E0,1.302052368E1,-2.409389648E1,-6.306834869E0,2.810384406E1
5.081932042E0,9.055269470E0,-1.758333527E1,-1.673489960E1,2.590807690E1
5.092012042E0,3.450325012E0,-7.955955505E0,-2.696223175E1,2.832249833E1
5.102093042E0,-8.367599487E-2,-1.494342499E0,-2.869562714E1,2.873463203E1
5.112173042E0,-2.503094788E0,-3.330574036E0,-2.019854691E1,2.062376067E1
5.122253042E0,-8.503816223E-1,-7.655979309E0,-6.415658569E0,1.002486124E1
5.132334042E0,2.498604126E0,-9.483977966E0,-3.647914124E-1,9.814373817E0
5.142414042E0,2.730172577E0,-8.564290466E0,5.769003296E-1,9.007426241E0
5.152495042E0,3.685036926E0,-6.320456543E0,-5.643264771E-1,7.337992398E0
5.162575042E0,6.383475494E0,-3.926035767E0,-5.506449280E0,9.299650526E0
5.172656042E0,7.651039581E0,-2.176024933E0,-7.616311798E0,1.101279695E1
5.182736042E0,5.801635437E0,-8.810678101E-1,-4.793032837E0,7.576834300E0
5.192816042E0,3.305576019E0,8.946894836E-1,-1.851948853E0,3.893201336E0
5.202897042E0,8.997789001E-1,1.679058380E0,3.776347046E0,4.229614181E0
5.212977042E0,-1.000818787E0,1.619182892E0,9.371711426E0,9.563073069E0
5.223058042E0,-2.390678558E0,1.471290436E0,1.092607910E1,1.128092390E1
5.233138042E0,-2.594853973E0,1.757495270E0,9.798473969E0,1.028747534E1
5.243218042E0,-2.176324310E0,2.087409210E0,7.789801025E0,8.353123052E0
5.253299042E0,-1.691632233E0,1.748813324E0,5.073250122E0,5.626529521E0
5.263379042E0,-1.179247742E0,1.370400238E0,3.482657776E0,3.923968302E0
5.273460042E0,-1.005159760E0,1.024768982E0,2.674188995E0,3.035092155E0
5.283540042E0,-1.053958282E0,7.952961731E-1,2.209106140E0,2.573611082E0
5.293620042E0,-1.090182953E0,6.388714600E-1,1.983824615E0,2.352066266E0
5.303701042E0,-1.149309998E0,6.390211487E-1,2.018702087E0,2.409236314E0
5.313781042E0,-1.100212097E0,8.026309204E-1,2.526595917E0,2.870256083E0
5.323862042E0,-8.538244629E-1,1.028660889E0,3.216511230E0,3.483260532E0
5.333942042E0,-5.535488892E-1,1.206042023E0,3.757186890E0,3.984646416E0
5.344023042E0,2.791694641E-1,1.305585022E0,4.275259552E0,4.478876207E0
5.354103042E0,1.382075958E0,1.318458252E0,5.196593628E0,5.536519796E0
5.364183042E0,1.758543091E0,1.250649261E0,6.071973267E0,6.444024886E0
5.374264042E0,1.396446075E0,1.074914703E0,5.182672577E0,5.474084243E0
5.384344042E0,9.015751648E-1,8.511300659E-1,4.126468964E0,4.308712833E0
5.394425042E0,5.701643372E-1,8.075706482E-1,3.393293610E0,3.534359807E0
5.404505042E0,3.526666260E-1,8.873547363E-1,2.860102386E0,3.015287356E0
5.414585042E0,9.894424438E-2,1.032253418E0,2.336042175E0,2.555861915E0
5.424666042E0,-1.417552185E-1,1.092128906E0,1.806144104E0,2.115418780E0
5.434746042E0,-2.664459229E-1,1.021924896E0,1.163530426E0,1.571345594E0
5.444827042E0,-2.782713318E-1,9.117539978E-1,4.870870972E-1,1.070506481E0
5.454907042E0,-2.543211365E-1,7.547305298E-1,-7.035369873E-3,7.964589817E-1
5.464987042E0,-2.010319519E-1,5.330415344E-1,-3.026705933E-1,6.451020161E-1
5.475068042E0,-2.008822632E-1,2.592608643E-1,-5.295986938E-1,6.229323044E-1
5.485148042E0,-1.481918335E-1,-2.619552612E-2,-6.236032104E-1,6.415044732E-1
5.495229042E0,1.901046753E-2,-3.203338623E-1,-1.326242065E0,1.364512073E0
5.505309042E0,-1.670526123E-1,-4.696483612E0,-2.505804153E1,2.549490754E1
5.515390042E0,-3.466790771E-1,-9.835147705E0,-3.520454178E1,3.655420740E1
5.525470042E0,2.842588806E-1,-1.138771912E1,-2.997531601E1,3.206681337E1
5.535550042E0,8.997789001E-1,-1.326855789E1,-2.097558105E1,2.483624833E1
5.545631042E0,2.227966919E0,-1.562331116E1,-1.006821304E1,1.871952462E1
5.555711042E0,3.204087067E0,-1.332783463E1,9.981692963E0,1.695675512E1
5.565792042E0,2.677332458E0,-8.545729065E0,2.074266541E1,2.259326808E1
5.575872042E0,2.681523743E0,-7.788603516E0,2.005050476E1,2.167661541E1
5.585952042E0,6.884783020E0,-1.351299957E1,1.487846008E1,2.124546938E1
5.596033042E0,6.987619171E0,-1.600950806E1,9.326804810E0,1.980203166E1
5.606113042E0,4.580624542E0,-1.620589966E1,7.377258911E0,1.838578946E1
5.616194042E0,8.729696503E0,-2.795541641E1,-8.790769501E0,3.057761495E1
5.626274042E0,3.824681534E1,-7.516783768E1,-1.162008092E2,1.435815126E2
5.636354042E0,3.929149292E1,-6.628695557E1,-2.196307755E1,8.012589263E1
5.646435042E0,2.426214661E1,-3.685530899E1,2.979598892E1,5.324252543E1
5.656515042E0,2.342493759E1,-2.975168106E1,1.548350189E1,4.091001171E1
5.666596042E0,1.763632507E1,-2.027743286E1,1.049752029E1,2.885155417E1
5.676676042E0,1.401325928E1,-1.231129852E1,6.996600494E0,1.992214661E1
5.686757042E0,1.090796677E1,-5.289250946E0,-3.059787140E0,1.250288814E1
5.696837042E0,1.172915909E1,-4.962181091E-1,-8.064779205E0,1.424289539E1
5.706917042E0,1.517020340E1,-2.499651947E0,2.711162109E0,1.561197396E1
5.716998042E0,1.410352158E1,-3.208278351E0,-7.634124756E-3,1.446383176E1
5.727078042E0,9.370064850E0,-4.912334747E0,-5.222938843E0,1.179865408E1
5.737159042E0,6.174510040E0,-7.941286011E0,-4.442910919E0,1.099672929E1
5.747239042E0,5.444178772E0,-1.078222824E1,-5.183720398E-1,1.208984028E1
5.757319042E0,4.096381531E0,-1.303639069E1,2.068997498E0,1.382058517E1
5.767400042E0,3.380719757E0,-1.459000992E1,3.379372559E0,1.535310439E1
5.777480042E0,3.093317413E0,-1.522274414E1,3.370091858E0,1.589522164E1
5.787561042E0,2.880609741E0,-1.436203400E1,2.366728363E0,1.483803680E1
5.797641042E0,2.399659882E0,-1.231548981E1,7.189549255E-1,1.256767890E1
5.807722542E0,1.424288177E0,-9.830956421E0,-1.341061249E0,1.002370921E1
5.817802542E0,8.912466431E-1,-7.411837006E0,-3.413052521E0,8.208445400E0
5.827882542E0,1.005309448E0,-5.456453247E0,-4.904850311E0,7.405476737E0
5.837963542E0,1.402134247E0,-4.131408691E0,-4.568948822E0,6.317421275E0
5.848043542E0,1.684447174E0,-3.474125519E0,-3.122506714E0,4.965577366E0
5.858124542E0,1.616488495E0,-2.914289703E0,-2.539918213E0,4.190143680E0
5.868204542E0,1.584006042E0,-2.435136108E0,-2.276615753E0,3.690791554E0
5.878284542E0,1.679806824E0,-2.048939209E0,-2.199226685E0,3.443327004E0
5.888365542E0,1.693877563E0,-1.675914917E0,-2.430346069E0,3.403600157E0
5.898445542E0,1.555565186E0,-1.301693115E0,-2.904559937E0,3.542690565E0
5.908526542E0,1.686842194E0,-1.414408722E0,-3.351829834E0,4.010081278E0
5.918606542E0,1.974693604E0,-2.373763733E0,-4.459226990E0,5.423916890E0
5.928686542E0,2.151775360E0,-3.622317352E0,-6.026617584E0,7.353328478E0
5.938767542E0,2.020198975E0,-5.098996582E0,-7.678731995E0,9.436307280E0
5.948847542E0,1.853146362E0,-6.307433624E0,-8.823251953E0,1.100307436E1
5.958928542E0,2.305355988E0,-6.644981689E0,-8.089777222E0,1.071983878E1
5.969008542E0,3.543431396E0,-6.866071930E0,-6.486311646E0,1.008816577E1
5.979088542E0,4.107907562E0,-7.206314392E0,-5.016967163E0,9.694113223E0
5.989169542E0,3.653602295E0,-6.917564850E0,-2.956801300E0,8.363264142E0
5.999249542E0,2.966680756E0,-6.287225647E0,-1.654359741E0,7.146139321E0
6.009330542E0,2.293979645E0,-5.843997345E0,-1.426533508E0,6.438139904E0
6.019410542E0,1.527423706E0,-6.287674713E0,-2.820584564E0,7.058581569E0
6.029491542E0,8.180488586E-1,-7.059320068E0,-5.092260590E0,8.742672456E0
6.039571542E0,1.465751953E0,-7.198829956E0,-5.151687012E0,8.972817873E0
6.049651542E0,3.737877045E0,-5.955216064E0,-3.744762726E0,7.966151583E0
6.059732542E0,2.493365021E0,-6.074667664E0,-6.001020813E0,8.895544230E0
6.069812542E0,1.455423431E0,-6.847510529E0,-9.170080719E0,1.153676897E1
6.079893542E0,3.193309479E0,-6.972201233E0,-4.592899017E0,8.938877829E0
6.089973542E0,3.613036652E0,-1.043839325E1,-1.145567780E0,1.110524259E1
6.100053542E0,4.346661072E0,-1.152498367E1,-7.079528046E0,1.420698520E1
6.110134542E0,4.815486145E0,-1.091245743E1,-5.692961426E0,1.321667294E1
6.120214542E0,4.624034271E0,-9.163195038E0,-8.393645325E0,1.325892598E1
6.130295542E0,2.233505402E0,-7.949069824E0,-1.271366180E1,1.515959940E1
6.140375542E0,4.361929321E-1,-6.845414886E0,-1.157198593E1,1.345216814E1
6.150455542E0,-7.620652771E-1,-5.282065887E0,-8.298592987E0,9.866489198E0
6.160536542E0,-2.035467224E0,-3.914210358E0,-9.974358215E0,1.090651142E1
6.170616542E0,-1.604962463E0,-2.452350311E0,-1.101140167E1,1.139477483E1
6.180697542E0,6.613247681E-1,-1.952839050E0,-1.197360077E1,1.214981671E1
6.190777542E0,2.154020691E0,-3.053350525E0,-1.014769775E1,1.081381174E1
6.200857542E0,1.686991882E0,-5.379363556E0,-1.101409607E1,1.237310818E1
6.210938542E0,1.299597473E0,-8.020022278E0,-1.295825317E1,1.529464077E1
6.221018542E0,9.710307312E-1,-9.819729767E0,-1.250140320E1,1.592655252E1
6.231099542E0,1.204994202E-1,-9.630822601E0,-1.168080963E1,1.513963598E1
6.241179542E0,8.382568359E-1,-8.673712921E0,-1.221774307E1,1.500697225E1
6.251260542E0,2.420316925E0,-7.771688690E0,-1.325328964E1,1.555335223E1
6.261340542E0,3.538940735E0,-7.187453613E0,-1.188752975E1,1.433516497E1
6.271420542E0,4.592000885E0,-6.836134186E0,-9.951455841E0,1.291706918E1
6.281501542E0,5.954168243E0,-7.029831390E0,-9.470805359E0,1.321237310E1
6.291581542E0,7.436086578E0,-7.708969116E0,-9.220226440E0,1.413280454E1
6.301662542E0,8.454868011E0,-8.556356964E0,-8.675509186E0,1.483106528E1
6.311742542E0,7.818391571E0,-1.046533722E1,-7.978259125E0,1.530696405E1
6.321822542E0,6.397845612E0,-1.311303131E1,-7.359296265E0,1.634145832E1
6.331903542E0,6.163882141E0,-1.452369781E1,-8.655899963E0,1.799599526E1
6.341983542E0,7.942184143E0,-1.505419464E1,-7.526797943E0,1.861074293E1
6.352064542E0,9.399403839E0,-1.552526505E1,-4.949158173E0,1.881161380E1
6.362144542E0,1.105346420E1,-1.588406891E1,-3.957919464E0,1.975216045E1
6.372224542E0,1.295121780E1,-1.556523193E1,-2.035317535E0,2.035074950E1
6.382305542E0,1.451726120E1,-1.723500961E1,1.046024780E0,2.255860361E1
6.392385542E0,1.585233490E1,-2.072664871E1,2.673141174E0,2.623044362E1
6.402466542E0,1.650602554E1,-2.346595230E1,3.907923431E0,2.895464837E1
6.412546542E0,1.759665756E1,-2.591545853E1,4.525239716E0,3.165013653E1
6.422627542E0,1.915087555E1,-2.843756378E1,4.238436127E0,3.454584503E1
6.432707542E0,2.052127579E1,-2.988086243E1,3.018622742E0,3.637445233E1
6.442787542E0,1.976699432E1,-2.643697403E1,-5.613327026E-1,3.301458397E1
6.452868542E0,1.328487396E1,-1.983824615E1,-8.499325562E0,2.534329145E1
6.462948542E0,6.080804901E0,-1.106064926E1,-2.138692566E1,2.483374195E1
6.473029542E0,2.198777618E0,-3.970493317E0,-2.464475098E1,2.505919374E1
6.483109542E0,-3.767665100E-1,-9.285191345E-1,-2.002520737E1,2.005026261E1
6.493189542E0,-1.318308563E0,-2.686313782E0,-1.056847275E1,1.098393533E1
6.503270542E0,1.368005219E0,-4.393064575E0,-3.993096313E0,6.092230528E0
6.513350542E0,3.313808899E0,-4.971162415E0,-1.609602814E0,6.187455567E0
6.523431542E0,3.705993347E0,-4.331093445E0,-1.421144714E0,5.874726327E0
6.533511542E0,4.873565369E0,-2.192191315E0,-5.155878296E0,7.425659780E0
6.543591542E0,7.358547821E0,1.507365417E-1,-1.102442459E1,1.325552282E1
6.553672542E0,7.015461273E0,1.391057281E0,-9.817334747E0,1.214626687E1
6.563752542E0,4.824467468E0,1.452878723E0,-3.657943268E0,6.226306440E0
6.573833542E0,2.525997162E0,9.764195251E-1,9.684860229E-1,2.876112294E0
6.583913542E0,9.485774231E-1,1.017134857E0,3.235222321E0,3.521509039E0
6.593993542E0,7.065307617E-2,1.271156616E0,4.512516174E0,4.688670731E0
6.604074542E0,-5.456153870E-1,1.451681213E0,5.391039276E0,5.609668348E0
6.614154542E0,-1.131347351E0,1.401685181E0,5.812712402E0,6.085416473E0
6.624235542E0,-1.730700989E0,1.321751404E0,5.708229675E0,6.109520334E0
6.634315542E0,-2.235750732E0,1.221010895E0,5.416636047E0,5.985766034E0
6.644395542E0,-2.286644897E0,1.009650421E0,4.769382019E0,5.384713892E0
6.654476542E0,-1.950444031E0,8.544232178E-1,4.125121765E0,4.642294748E0
6.664556542E0,-1.449286194E0,6.701564026E-1,3.691772919E0,4.022278876E0
6.674637542E0,-1.108444977E0,5.161267090E-1,3.074905701E0,3.309090829E0
6.684717542E0,-7.574249268E-1,4.845423889E-1,2.304308167E0,2.473521775E0
6.694797542E0,-2.842588806E-1,4.022135925E-1,1.873953094E0,1.937596213E0
6.704878542E0,1.088237000E-1,3.077600098E-1,1.589694214E0,1.622863677E0
6.714958542E0,3.275189209E-1,2.622546387E-1,1.425635376E0,1.486096351E0
6.725039542E0,4.507127380E-1,2.173480225E-1,1.288969574E0,1.382687491E0
6.735119542E0,5.119354248E-1,2.576142883E-1,1.253343658E0,1.378155770E0
6.745200542E0,3.517684937E-1,3.635939026E-1,1.346749420E0,1.438636716E0
6.755280542E0,1.751358032E-2,5.292993164E-1,1.384021912E0,1.481884322E0
6.765360542E0,-1.416055298E-1,6.613247681E-1,1.487307129E0,1.633855890E0
6.775441542E0,-2.552192688E-1,7.804769897E-1,1.720821533E0,1.906700804E0
6.785521542E0,-4.146377563E-1,8.622070313E-1,1.955234070E0,2.176755774E0
6.795602542E0,-5.899232483E-1,8.759783936E-1,2.037263489E0,2.294730944E0
6.805685667E0,-7.539820862E-1,8.463400269E-1,1.925296326E0,2.234176888E0
6.815765667E0,-8.729846191E-1,7.800279236E-1,1.752854919E0,2.107853428E0
6.825846667E0,-9.433383179E-1,7.291337585E-1,1.679357758E0,2.059554733E0
6.835926667E0,-1.033899994E0,6.183641052E-1,1.465452576E0,1.897070008E0
6.846007667E0,-1.102457428E0,2.308200073E-1,9.059161377E-1,1.445466812E0
6.856087667E0,-7.735913086E-1,-2.890489197E-1,2.595602417E-1,8.656583101E-1
6.866167667E0,-3.436853027E-1,-5.947132874E-1,-6.855743408E-2,6.902924042E-1
6.876248667E0,-2.257305908E-1,-7.012916565E-1,-2.555186462E-1,7.797782157E-1
6.886328667E0,-1.297801208E-1,-8.020321655E-1,-3.260220337E-1,8.754363716E-1
6.896409667E0,-4.430786133E-2,-8.592132568E-1,-3.882925415E-1,9.439182725E-1
6.906489667E0,1.052311707E-1,-8.857081604E-1,-5.301974487E-1,1.037623188E0
6.916569667E0,2.226320343E0,-2.768043823E0,-1.179172897E1,1.231517117E1
6.926650667E0,6.981332245E0,-7.982600098E0,-2.809268097E1,3.002764773E1
6.936730667E0,2.775228882E0,-4.010460205E0,3.783532104E0,6.172584677E0
6.946811667E0,3.145409088E0,-3.619173889E0,5.604794769E0,7.376024836E0
6.956891667E0,7.037315826E0,-6.805747375E0,1.664538574E-1,9.791308302E0
6.966971667E0,1.811263458E1,-1.498249374E1,-8.409212952E0,2.496512593E1
6.977052667E0,2.269670197E1,-2.463786530E1,-2.127645538E1,3.968440802E1
6.987132667E0,2.035631882E1,-4.063839203E1,-3.038965439E1,5.467531176E1
6.997213667E0,2.788102112E1,-5.004797470E1,-1.641336823E1,5.959488037E1
7.007293667E0,1.966894821E1,-6.545857819E1,-4.883175385E1,8.400138788E1
7.017374667E0,4.179009705E0,-4.384517349E1,-8.336164856E0,4.482582967E1
7.027454667E0,6.903793488E0,-2.182311859E1,1.954575439E1,3.009895986E1
7.037534667E0,1.259016861E1,-1.608929214E1,1.154309601E1,2.346530913E1
7.047615667E0,1.527214142E1,-1.180654816E1,2.649490356E0,1.948467814E1
7.057695667E0,1.663026718E1,-6.335874481E0,-1.209350143E1,2.151654872E1
7.067776667E0,1.728680191E1,-2.799179077E0,-6.249803467E0,1.859378840E1
7.077856667E0,1.797117874E1,-1.114133148E0,-1.796414337E0,1.809507288E1
7.087936667E0,1.843641129E1,-2.096390533E0,-5.449567566E0,1.933892192E1
7.098017667E0,1.747720596E1,-6.886130219E0,-6.164181519E0,1.977039836E1
7.108097667E0,1.539443710E1,-1.245978973E1,-3.134631500E0,2.005145802E1
7.118178667E0,1.173769135E1,-1.645872391E1,-1.374441833E0,2.026208482E1
7.128258667E0,6.933731232E0,-1.831636093E1,-1.036295013E0,1.961223123E1
7.138338667E0,3.459456024E0,-1.889640472E1,4.146377563E-2,1.921050928E1
7.148419667E0,1.544787598E0,-1.824989914E1,6.854246521E-1,1.832798391E1
7.158499667E0,7.458988953E-1,-1.668625076E1,1.718426514E-1,1.670379776E1
7.168580667E0,5.432203674E-1,-1.415920578E1,-7.063810730E-1,1.418721858E1
7.178660667E0,3.987707520E-1,-1.122635468E1,-1.941313019E0,1.139994534E1
7.188740667E0,3.974235535E-1,-8.570128326E0,-3.097508698E0,9.121381756E0
7.198821667E0,6.063890076E-1,-6.347250824E0,-3.592678986E0,7.318650350E0
7.208901667E0,8.149053955E-1,-4.588558044E0,-3.491788788E0,5.823360256E0
7.218982667E0,9.493258667E-1,-3.145409088E0,-3.002606049E0,4.450894406E0
7.229062667E0,7.066804504E-1,-1.977388000E0,-2.698438568E0,3.419215008E0
7.239142667E0,4.011657715E-1,-1.139131165E0,-2.959495697E0,3.196430598E0
7.249223667E0,2.947370911E-1,-6.364764404E-1,-3.506458282E0,3.575922524E0
7.259303667E0,8.101153564E-1,-6.021977234E-1,-4.141437836E0,4.262679478E0
7.269384667E0,1.588347015E0,-1.279688873E0,-4.686604156E0,5.111233547E0
7.279464667E0,1.621727600E0,-2.413730621E0,-5.301226044E0,6.046411621E0
7.289544667E0,1.118474121E0,-3.344195709E0,-5.361251221E0,6.416980906E0
7.299625667E0,8.411009216E-1,-3.978277130E0,-5.008285217E0,6.451128622E0
7.309705667E0,4.556524658E-1,-4.411625977E0,-5.169499969E0,6.811298911E0
7.319786667E0,1.139131165E-1,-4.860392761E0,-6.117029572E0,7.813734368E0
7.329866667E0,9.819580078E-2,-5.184019775E0,-7.389683075E0,9.027243178E0
7.339946667E0,5.492079163E-1,-5.517526245E0,-8.674910431E0,1.029557168E1
7.350027667E0,1.902094574E0,-5.183870087E0,-9.369166718E0,1.087528197E1
7.360107667E0,2.957549744E0,-5.078339539E0,-1.004231689E1,1.163549576E1
7.370188667E0,3.432212677E0,-5.453010406E0,-1.043375290E1,1.226289549E1
7.380268667E0,4.717290344E0,-4.472998352E0,-8.958869934E0,1.106896079E1
7.390349667E0,2.524350586E0,-4.901108093E0,-6.898105316E0,8.830462240E0
7.400429667E0,3.137325897E0,-3.022514648E0,9.798623657E-1,4.465259101E0
7.410509667E0,1.869462433E0,-3.049458618E0,1.640738068E0,3.935239390E0
7.420590667E0,5.628295898E-2,-5.339097290E0,-9.916129303E0,1.126227100E1
7.430670667E0,4.743934937E0,-5.614823914E0,-9.925410004E0,1.235090806E1
7.440750667E0,7.212900696E0,-4.211342468E0,-3.103047180E-1,8.358087751E0
7.450831667E0,7.880811768E0,-4.003125458E0,-7.250472565E0,1.143247829E1
7.460911667E0,7.027136993E0,-5.879024506E0,-8.123906250E0,1.224505762E1
7.470992667E0,5.483546906E0,-7.415878601E0,-5.873635712E0,1.093453879E1
7.481072667E0,3.059787140E0,-7.553741913E0,-1.140433456E1,1.401713812E1
7.491153667E0,1.112037506E0,-7.312593384E0,-9.747579803E0,1.223625602E1
7.501233667E0,1.800755310E-1,-5.784421234E0,-1.123952728E1,1.264195118E1
7.511313667E0,1.010847931E0,-3.923940125E0,-1.059122543E1,1.133989311E1
7.521394667E0,2.948418732E0,-1.132694550E0,-9.290131073E0,9.812375111E0
7.531474667E0,4.737348633E0,1.088237000E-1,-1.306198746E1,1.389495703E1
7.541555667E0,5.429209900E0,-1.216669922E0,-1.183932999E1,1.308152668E1
7.551635667E0,3.714974670E0,-3.838916931E0,-1.161330002E1,1.278307699E1
7.561715667E0,2.947071533E0,-8.001161499E0,-1.308219543E1,1.561562209E1
7.571796667E0,2.103874969E0,-1.031714539E1,-1.355221802E1,1.716194604E1
7.581876667E0,2.283800812E0,-7.938890991E0,-1.222253311E1,1.475235751E1
7.591957667E0,2.184706879E0,-4.403093719E0,-1.170610703E1,1.269618526E1
7.602037667E0,2.475701752E0,-1.926942902E0,-1.153396500E1,1.195301454E1
7.612117667E0,4.377796326E0,-1.489103394E0,-1.172197403E1,1.260107951E1
7.622198667E0,5.448669434E0,-2.337988129E0,-1.157602753E1,1.300609858E1
7.632278667E0,5.164111176E0,-3.735931091E0,-1.061607376E1,1.238249763E1
7.642359667E0,4.660408630E0,-5.029241638E0,-1.014096176E1,1.224139639E1
7.652439667E0,4.333937531E0,-6.025270386E0,-1.033391052E1,1.272307370E1
7.662519667E0,4.143533478E0,-6.467301178E0,-1.045845154E1,1.297590316E1
7.672600667E0,3.996988220E0,-7.191944275E0,-1.405756714E1,1.628849812E1
7.682680667E0,3.350782013E0,-8.488697662E0,-1.563124466E1,1.810031872E1
7.692761667E0,3.801494751E0,-8.896898804E0,-9.118438110E0,1.329481419E1
7.702841667E0,5.172493744E0,-8.950337677E0,-1.441652069E0,1.043750913E1
7.712921667E0,6.601871338E0,-1.059586578E1,-2.842439117E0,1.280377042E1
7.723002667E0,9.089099121E0,-1.339579330E1,-8.712781677E0,1.838400298E1
7.733082667E0,1.253957382E1,-1.481439331E1,-7.207212524E0,2.070389029E1
7.743163667E0,1.440843750E1,-1.630229919E1,-2.326162720E0,2.188102062E1
7.753243667E0,1.699565735E1,-1.873249557E1,1.228944397E0,2.532329093E1
7.763323667E0,1.904519531E1,-2.152718399E1,3.862418060E0,2.900098944E1
7.773404667E0,1.983106110E1,-2.459370712E1,4.938530273E0,3.197671802E1
7.783484667E0,1.949620743E1,-2.653172699E1,5.073699188E0,3.331331663E1
7.793565667E0,2.033431458E1,-2.906251419E1,5.134472809E0,3.583959949E1
7.803645667E0,2.128214355E1,-2.972907806E1,5.101541290E0,3.691576141E1
7.813721875E0,2.037263489E1,-2.926309708E1,4.385879517E0,3.592504756E1
7.823802875E0,1.663071625E1,-2.608310989E1,-2.350412292E0,3.102311691E1
7.833882875E0,6.105054474E0,-1.863729355E1,-2.168944656E1,2.924128064E1
7.843963875E0,7.864645386E-1,-1.039782761E1,-2.357986542E1,2.578261815E1
7.854043875E0,-7.453001404E-1,-6.337820435E0,-1.617835693E1,1.739145403E1
7.864123875E0,3.589535522E-1,-4.921316071E0,-1.076740906E1,1.184420944E1
7.874204875E0,9.710307312E-1,-3.667523346E0,-1.322035812E1,1.375396296E1
7.884284875E0,4.637356567E0,-2.219135284E0,-1.777538589E1,1.850389097E1
7.894365875E0,1.024783951E1,-1.435963898E0,-1.726539642E1,2.012893739E1
7.904445875E0,9.681716766E0,-2.065255280E0,-8.549321594E0,1.308020713E1
7.914525875E0,8.258027344E0,-2.630030823E0,-1.889221344E0,8.870244361E0
7.924606875E0,7.251969452E0,-2.586920471E0,5.897735596E-2,7.699785502E0
7.934686875E0,5.431754608E0,-1.886826324E0,1.057999878E0,5.846660196E0
7.944767875E0,3.888613586E0,-4.023632813E-1,8.702902222E-1,4.005073895E0
7.954847875E0,2.892135773E0,9.418414307E-1,2.980302429E-1,3.056196432E0
7.964927875E0,1.411265259E0,1.952240295E0,7.972421265E-1,2.537421291E0
7.975008875E0,-4.427792358E-1,2.377056885E0,2.676434326E0,3.606903601E0
7.985088875E0,-1.722767487E0,1.638343048E0,4.832999725E0,5.386091542E0
7.995169875E0,-2.655627594E0,8.821156311E-1,5.856122131E0,6.490350709E0
8.005249875E0,-3.322640533E0,6.960525513E-1,6.210135956E0,7.077444303E0
8.015329875E0,-3.311264191E0,6.171665955E-1,5.905669098E0,6.798697864E0
8.025410875E0,-2.912493439E0,1.996847534E-1,5.133275299E0,5.905337190E0
8.035490875E0,-2.261197815E0,-1.107696533E-2,4.296365662E0,4.855089717E0
8.045571875E0,-1.656605072E0,-1.451980591E-2,3.435056763E0,3.813681443E0
8.055651875E0,-1.163829803E0,-1.916015625E-2,2.769840088E0,3.004476832E0
8.065731875E0,-6.575825500E-1,-3.502716064E-2,2.535427551E0,2.619548545E0
8.075812875E0,6.062393188E-2,8.307723999E-2,2.438878326E0,2.441045796E0
8.085892875E0,7.035369873E-1,3.845503235E-1,2.514022064E0,2.638778161E0
8.095973875E0,6.890171814E-1,4.808001709E-1,2.480042725E0,2.618496782E0
8.106053875E0,3.686833191E-1,5.146298218E-1,2.111060028E0,2.203938676E0
8.116133875E0,5.179229736E-2,7.343728638E-1,1.909279633E0,2.046297794E0
8.126214875E0,-3.790118408E-1,9.734257507E-1,1.927691345E0,2.192533145E0
8.136294875E0,-7.125183105E-1,1.219813385E0,2.185754700E0,2.602527741E0
8.146375875E0,-8.939410400E-1,1.339714050E0,2.553090820E0,3.018648217E0
8.156455875E0,-9.798623657E-1,1.312321014E0,2.769241333E0,3.217299218E0
8.166535875E0,-9.819580078E-1,1.213376770E0,2.945874023E0,3.333871395E0
8.176616875E0,-9.193881226E-1,1.120869141E0,3.008593597E0,3.339649321E0
8.186696875E0,-8.436456299E-1,1.089733887E0,2.944826202E0,3.251347298E0
8.196777875E0,-7.479945374E-1,1.086291046E0,2.700234833E0,3.005127654E0
8.206857875E0,-5.929170227E-1,1.091979218E0,2.326761475E0,2.637761962E0
8.216937875E0,-4.352947998E-1,1.057700500E0,1.680405579E0,2.032725958E0
8.227018875E0,-3.290158081E-1,9.604028320E-1,9.479786682E-1,1.388988321E0
8.237098875E0,-3.064128113E-1,7.616162109E-1,2.969824219E-1,8.730100931E-1
8.247179875E0,-2.748284912E-1,4.834945679E-1,-2.134561157E-1,5.957022831E-1
8.257259875E0,-1.034349060E-1,8.741821289E-2,-5.363346863E-1,5.531687079E-1
8.267339875E0,-1.032852173E-2,-1.862127686E-1,-6.885681152E-1,7.133778262E-1
8.277420875E0,6.047424316E-2,-3.212319946E-1,-7.164102173E-1,7.874583976E-1
8.287500875E0,1.163081360E-1,-4.291575623E-1,-7.065307617E-1,8.347990854E-1
8.297581875E0,1.649569702E-1,-6.460565186E-1,-7.087760925E-1,9.731204327E-1
8.307661875E0,3.059637451E-1,-2.258204041E0,-1.209200455E1,1.230486381E1
8.317741875E0,2.649789734E0,-1.037238052E1,-4.623390610E1,4.745715685E1
8.327822875E0,4.180356903E0,-9.232500916E0,-1.537018753E1,1.841078819E1
8.337902875E0,2.327659607E0,-6.299799500E0,5.990841980E0,8.999758919E0
8.347983875E0,4.155358887E0,-8.518036652E0,7.373666382E0,1.200811858E1
8.358063875E0,6.916217651E0,-9.955796814E0,1.092248657E1,1.631725068E1
8.368143875E0,8.553213501E0,-1.202688995E1,1.136376892E1,1.862629290E1
8.378224875E0,8.648565216E0,-1.899220551E1,2.612517242E0,2.103156667E1
8.388304875E0,6.271059265E0,-4.791820358E1,-6.346292816E1,7.976856317E1
8.398385875E0,3.699257355E1,-8.769663391E1,-8.682035614E1,1.288290508E2
8.408465875E0,3.697446121E1,-6.473124069E1,-4.321812744E0,7.467209900E1
8.418545875E0,2.176234497E1,-3.338597351E1,1.624886032E1,4.303775491E1
8.428626875E0,2.598895569E1,-2.617501877E1,1.378767838E1,3.937838875E1
8.438706875E0,2.976290771E1,-1.834001175E1,1.052641022E1,3.651016322E1
8.448787875E0,2.818159607E1,-9.265432434E0,2.073937225E0,2.973805325E1
8.458867875E0,1.918515427E1,-6.082900543E0,3.801045685E0,2.048218181E1
8.468947875E0,1.356524094E1,-4.995711365E0,6.358926544E0,1.579268313E1
8.479028875E0,1.005054977E1,-2.958447876E0,7.590864716E0,1.293782021E1
8.489108875E0,7.956554260E0,-1.708696747E0,6.992558899E0,1.072950512E1
8.499189875E0,7.085216217E0,-2.253563690E0,4.122127991E0,8.501222107E0
8.509269875E0,9.212592316E0,-6.377487946E0,-2.796185303E-1,1.120813973E1
8.519349875E0,9.689350891E0,-1.180130905E1,-4.907544708E0,1.603865366E1
8.529430875E0,3.994593201E0,-1.935969131E1,-2.487706787E1,3.177456417E1
8.539510875E0,4.826862488E0,-2.465492981E1,-1.998958145E1,3.210525708E1
8.549591875E0,7.200027466E0,-2.274011169E1,-9.943821716E-1,2.387345537E1
8.559671875E0,1.805695038E0,-1.961775467E1,1.460662537E0,1.975475558E1
8.569751875E0,-1.621428223E0,-1.332603836E1,2.517913971E0,1.365841201E1
8.579832875E0,-5.405259705E-1,-8.142916718E0,1.798959045E0,8.356764604E0
8.589912875E0,1.701511688E0,-5.522915039E0,6.403683472E-1,5.814447882E0
8.599993875E0,3.402125244E0,-3.610342255E0,-4.077520752E-1,4.977478190E0
8.610073875E0,4.996459808E0,-1.998943176E0,-1.525777130E0,5.593601728E0
8.620153875E0,6.121969299E0,-7.499404907E-1,-2.384092255E0,6.612474175E0
8.630234875E0,6.651567993E0,3.763174438E-1,-2.617606659E0,7.157991073E0
8.640314875E0,6.528224487E0,1.349593506E0,-2.445165253E0,7.100559886E0
8.650395875E0,5.305267639E0,2.000440063E0,-1.927841034E0,5.988672326E0
8.660475875E0,3.216511230E0,2.220781860E0,-1.671873322E0,4.251232406E0
8.670555875E0,1.095122681E0,1.769021301E0,-1.860181732E0,2.790879096E0
8.680636875E0,-3.176394653E-1,1.505868530E-1,-1.807491302E0,1.841357119E0
8.690716875E0,-4.477189636E-1,-1.752106476E0,-1.457070007E0,2.322365686E0
8.700797875E0,-4.929249573E-1,-2.936743011E0,-1.451531525E0,3.312759921E0
8.710877875E0,-5.355862427E-1,-3.704945526E0,-1.553918610E0,4.053163828E0
8.720957875E0,-7.679031372E-1,-4.197870483E0,-1.642983398E0,4.572875055E0
8.731038875E0,-9.862989807E-1,-4.695735168E0,-2.608026581E0,5.461182756E0
8.741118875E0,-1.453627167E0,-5.446723480E0,-4.601730652E0,7.277070400E0
8.751199875E0,-1.208437042E0,-6.288273468E0,-5.560037842E0,8.480372875E0
8.761279875E0,-3.492237854E-1,-6.872358856E0,-5.012775879E0,8.513471414E0
8.771359875E0,-1.139131165E-1,-7.612569580E0,-5.880222015E0,9.619833822E0
8.781440875E0,1.332229614E-2,-9.031768341E0,-9.088949432E0,1.281335314E1
8.791520875E0,2.338137817E-1,-1.163545395E1,-1.279149994E1,1.729337816E1
8.801601875E0,2.480641479E0,-1.382944153E1,-9.962682495E0,1.722388103E1
8.811681750E0,4.925806732E0,-1.411295197E1,-5.154231720E0,1.581154925E1
8.821761750E0,7.136709137E0,-1.137798935E1,2.580633545E-1,1.343346030E1
8.831842750E0,7.636968842E0,-7.323670349E0,4.042792969E0,1.132711859E1
8.841922750E0,5.329666901E0,-4.869972839E0,-1.268162842E0,7.330090158E0
8.852003750E0,3.981420593E0,-2.642305298E0,-1.837743393E1,1.898851140E1
8.862083750E0,2.588117981E0,-1.089135132E0,-1.967373825E1,1.987311115E1
8.872163750E0,-2.353106689E-1,-3.720213776E0,-4.118236084E0,5.554748427E0
8.882244750E0,1.077758789E0,-6.199508057E0,1.655706940E0,6.506675774E0
8.892324750E0,2.951711884E0,-7.887697449E0,-3.588338013E0,9.154482169E0
8.902405750E0,1.625020752E0,-1.167422333E1,-9.953551483E0,1.542729302E1
8.912485750E0,-6.616241455E-2,-1.505164993E1,-9.452094269E0,1.777353733E1
8.922565750E0,1.743873596E-1,-1.527603333E1,-1.001791763E1,1.826872406E1
8.932646750E0,1.572330322E0,-1.344548996E1,-1.530282761E1,2.043110265E1
8.942726750E0,2.010319519E0,-9.962981873E0,-1.222238342E1,1.589619605E1
8.952807750E0,1.420396271E0,-6.518794098E0,-9.689650269E0,1.176441772E1
8.962887750E0,1.078058167E0,-4.595443726E0,-1.084060684E1,1.182366564E1
8.972967750E0,1.613644409E0,-4.844974823E0,-1.083551743E1,1.197856699E1
8.983048750E0,1.918859711E0,-6.209686890E0,-1.024858795E1,1.213572366E1
8.993128750E0,2.055076447E0,-7.889194336E0,-8.135282593E0,1.151718496E1
9.003209750E0,2.821333008E0,-9.030570831E0,-8.637039185E0,1.281052596E1
9.013289750E0,3.628454590E0,-1.034573593E1,-1.028226791E1,1.503080065E1
9.023369750E0,4.541406097E0,-1.202703964E1,-8.864116974E0,1.561558906E1
9.033450750E0,5.044509888E0,-1.389380768E1,-7.685318298E0,1.665980460E1
9.043530750E0,6.397695923E0,-1.598406097E1,-9.600286102E0,1.971259018E1
9.053611750E0,7.692353668E0,-1.696287552E1,-7.560178528E0,2.010143652E1
9.063691750E0,9.488768005E0,-1.719010300E1,-4.274062042E0,2.009487411E1
9.073771750E0,1.101529358E1,-1.802072571E1,-2.850372620E0,2.131215315E1
9.083852750E0,1.170251450E1,-1.918994431E1,-6.876699829E-1,2.248723411E1
9.093932750E0,1.206056992E1,-2.031096313E1,1.679956512E0,2.368152917E1
9.104013750E0,1.244242584E1,-2.107856689E1,3.138523407E0,2.467732304E1
9.114093750E0,1.375025620E1,-2.265029846E1,3.692671051E0,2.675334344E1
9.124173750E0,1.527139297E1,-2.446677109E1,3.823199615E0,2.909390290E1
9.134254750E0,1.713771194E1,-2.603835297E1,2.946921844E0,3.131104189E1
9.144334750E0,1.806877579E1,-2.664294571E1,2.694396973E-3,3.219203662E1
9.154415750E0,1.625499756E1,-2.526266602E1,-3.948788452E0,3.029884767E1
9.164495750E0,1.128248795E1,-2.174947174E1,-6.287075958E0,2.529548140E1
9.174575750E0,6.125412140E0,-1.557286606E1,-1.008273285E1,1.953705026E1
9.184656750E0,2.953208771E0,-8.734486542E0,-1.309821213E1,1.601798546E1
9.194736750E0,2.221679993E0,-4.320315857E0,-1.345806381E1,1.430805622E1
9.204817750E0,2.425705719E0,-3.867507477E0,-1.058389069E1,1.152650877E1
9.214897750E0,1.820065155E0,-3.658991089E0,-1.103011276E1,1.176283301E1
9.224977750E0,8.750802612E-1,-2.658321991E0,-1.615365829E1,1.639430137E1
9.235058750E0,1.842668152E0,-2.570754089E0,-1.185774170E1,1.227233640E1
9.245138750E0,3.252137146E0,-2.782713318E0,-2.135608978E0,4.783379050E0
9.255218750E0,3.185375977E0,-2.311343536E0,-2.191442871E-1,3.941694214E0
9.265299750E0,2.962788849E0,-9.610015869E-1,-2.626138916E0,4.074094675E0
9.275379750E0,2.041903839E0,-8.906478882E-2,-1.432521057E0,2.495880687E0
9.285460750E0,1.145418091E0,-2.095642090E-1,1.179696808E0,1.657583880E0
9.295540750E0,5.209167480E-1,-6.002517700E-2,2.559826813E0,2.612981169E0
9.305620750E0,2.510279846E-1,3.233276367E-1,2.973267059E0,3.001311849E0
9.315701750E0,7.080276489E-2,6.710545349E-1,2.929707642E0,3.006412162E0
9.325781750E0,-1.913021851E-1,8.979826355E-1,2.930456085E0,3.070918789E0
9.335862750E0,-4.555027771E-1,1.021026764E0,3.031795349E0,3.231371454E0
9.345942750E0,-6.765930176E-1,1.186881866E0,3.161276093E0,3.443854412E0
9.356022750E0,-7.637118530E-1,1.324296112E0,3.260968781E0,3.601518204E0
9.366103750E0,-7.439529419E-1,1.563199310E0,3.266058197E0,3.696511086E0
9.376183750E0,-6.171665955E-1,1.769769745E0,3.284020844E0,3.781239540E0
9.386264750E0,-4.884342957E-1,1.825603638E0,3.556154938E0,4.027112445E0
9.396344750E0,-4.355941772E-1,1.717079315E0,3.816313934E0,4.207416750E0
9.406424750E0,-5.165757751E-1,1.515897675E0,3.659589844E0,3.994670714E0
9.416505750E0,-6.071374512E-1,1.347048798E0,3.025358734E0,3.366890527E0
9.426585750E0,-4.629872131E-1,1.316661987E0,2.447709961E0,2.817665701E0
9.436666750E0,-1.187031555E-1,1.351389771E0,2.068398743E0,2.473584062E0
9.446746750E0,1.701960754E-1,1.398092651E0,1.966161346E0,2.418557464E0
9.456826750E0,2.001338196E-1,1.476080475E0,2.072440338E0,2.552229627E0
9.466907750E0,1.827699280E-1,1.693727875E0,2.279759216E0,2.845948180E0
9.476987750E0,1.571731567E-1,1.832788696E0,2.525548096E0,3.124453711E0
9.487067750E0,1.134640503E-1,1.874551849E0,2.527044983E0,3.148455982E0
9.497148750E0,9.086105347E-2,1.810634766E0,2.231110382E0,2.874805650E0
9.507228750E0,7.200027466E-2,1.693129120E0,1.760039978E0,2.443278736E0
9.517309750E0,8.128097534E-2,1.410965881E0,1.168170776E0,1.833590543E0
9.527389750E0,1.351689148E-1,9.707313538E-1,6.194119263E-1,1.159422758E0
9.537469750E0,1.231938171E-1,5.053491211E-1,2.682421875E-1,5.852421054E-1
9.547550750E0,6.227050781E-2,1.020877075E-1,-4.864883423E-2,1.290977352E-1
9.557630750E0,-1.032852173E-2,-1.772314453E-1,-3.622467041E-1,4.034108801E-1
9.567711750E0,-3.652404785E-2,-2.918930054E-1,-5.090913391E-1,5.879706831E-1
9.577791750E0,2.005828857E-2,-3.138972473E-1,-5.072950745E-1,5.968937170E-1
9.587871750E0,6.182144165E-2,-3.053649902E-1,-4.552033997E-1,5.516156297E-1
9.597952750E0,9.175918579E-2,-3.255729675E-1,-4.511618042E-1,5.638833913E-1
9.608032750E0,7.707472229E-1,-1.795815582E0,-7.654183044E0,7.899716638E0
9.618113750E0,1.588646393E0,-1.574201431E1,-5.677483612E1,5.893824589E1
9.628193750E0,7.596702576E-1,-8.947792969E0,-4.116290131E0,9.878458501E0
9.638273750E0,2.165097656E0,-5.632786560E0,1.387913818E1,1.513427927E1
9.648354750E0,5.206173706E0,-7.807763672E0,1.103520218E1,1.448589332E1
9.658434750E0,9.004225616E0,-1.120435043E1,1.068358337E1,1.790956452E1
9.668515750E0,1.691632233E1,-2.337075027E1,1.215652039E1,3.130710650E1
9.678595750E0,2.058234879E1,-3.635055862E1,3.043171692E0,4.188385235E1
9.688675750E0,1.148591492E1,-7.233482895E1,-9.559346237E1,1.204257604E2
9.698756750E0,3.423021790E1,-7.421132675E1,-4.591641632E1,9.374084554E1
9.708836750E0,2.313828369E1,-3.863435944E1,7.652835846E0,4.567887693E1
9.718917750E0,1.544622940E1,-1.892409714E1,1.255499176E1,2.746516472E1
9.728997750E0,1.107606720E1,-1.104029160E1,1.022882904E1,1.868679338E1
9.739077750E0,1.056877213E1,-6.534810791E0,3.737877045E0,1.297591697E1
9.749158750E0,1.073986633E1,-2.297123108E0,-5.299130402E0,1.219435470E1
9.759238750E0,8.760831757E0,-1.824705505E0,-3.167413330E-1,8.954442937E0
9.769319750E0,6.751110992E0,-2.474803619E0,1.485959930E0,7.342358579E0
9.779399750E0,4.973258057E0,-2.498604126E0,7.538323975E-1,5.616456317E0
9.789479750E0,5.964047699E0,-4.243675232E0,6.494993591E-1,7.348502830E0
9.799560750E0,7.025490417E0,-7.937094727E0,7.418572998E-1,1.062569247E1
9.809641000E0,6.634653168E0,-1.279943344E1,-1.157991943E0,1.446323147E1
9.819722000E0,3.997586975E0,-2.020273819E1,-1.229034210E1,2.398299066E1
9.829802000E0,6.059249725E0,-2.689262650E1,-1.223510696E1,3.016000181E1
9.839882000E0,8.390801239E0,-2.827335526E1,-4.688250732E-1,2.949589734E1
9.849963000E0,5.692063293E0,-2.542373108E1,2.769241333E0,2.619989283E1
9.860043000E0,2.383044434E0,-1.922302551E1,2.684816895E0,1.955535355E1
9.870124000E0,2.213596802E0,-1.346165634E1,1.979483643E0,1.378530224E1
9.880204000E0,3.855233002E0,-9.829010468E0,4.719685364E-1,1.056858659E1
9.890284000E0,5.728587341E0,-7.331753540E0,-1.149759064E0,9.375141002E0
9.900365000E0,6.443051605E0,-5.142256622E0,-2.797682190E0,8.705328414E0
9.910445000E0,6.412365417E0,-3.463497620E0,-3.632496185E0,8.143050690E0
9.920525000E0,6.186934204E0,-2.402953033E0,-3.233426056E0,7.382911498E0
9.930606000E0,5.960904236E0,-1.826950836E0,-2.323468323E0,6.653467796E0
9.940686000E0,5.568121033E0,-1.444496155E0,-1.744921417E0,6.011263738E0
9.950767000E0,4.829706573E0,-1.227297821E0,-1.679956512E0,5.258762156E0
9.960847000E0,3.814966736E0,-1.222358093E0,-1.829794922E0,4.404120793E0
9.970927000E0,2.810705109E0,-1.437011719E0,-1.887724457E0,3.678120378E0
9.981008000E0,2.134411469E0,-1.880838776E0,-1.573228455E0,3.250894429E0
9.991088000E0,1.719324646E0,-2.260449371E0,-1.058598633E0,3.030897501E0
1.000116900E1,1.393751678E0,-2.462229767E0,-8.292755127E-1,2.948358364E0