"Time (s)","Acceleration x (m/s^2)","Acceleration y (m/s^2)","Acceleration z (m/s^2)","Absolute acceleration (m/s^2)"
6.741667166E-4,-2.064207458E0,9.577982483E0,8.894503784E-1,9.838181887E0
1.075316675E-2,-2.108665009E0,9.892927551E0,6.619235229E-1,1.013679567E1
2.083216666E-2,-2.042951660E0,9.911039886E0,3.294648743E-1,1.012476717E1
3.091116669E-2,-2.155218201E0,9.675280151E0,1.962419128E-1,9.914359404E0
4.099016672E-2,-2.143841858E0,9.560917969E0,2.240840149E-1,9.800888937E0
5.106916674E-2,-2.329605560E0,9.511221313E0,3.995191956E-1,9.800510626E0
6.114916666E-2,-2.363435211E0,9.356892242E0,4.956193542E-1,9.663482653E0
7.122816669E-2,-1.048719177E0,1.000908600E1,2.905458069E-1,1.006806989E1
8.130716672E-2,-1.256487122E0,9.986033936E0,4.656816101E-1,1.007553934E1
9.138616675E-2,-1.661544800E0,9.771529999E0,5.545967102E-1,9.927291028E0
1.014651667E-1,-1.855541382E0,9.674831085E0,5.478607178E-1,9.866384430E0
1.115441667E-1,-2.019749908E0,9.632918243E0,5.848338318E-1,9.859743110E0
1.216231667E-1,-2.219434662E0,9.680818634E0,6.315367126E-1,9.952033876E0
1.317021667E-1,-2.317331085E0,9.674681396E0,4.782554626E-1,9.959829907E0
1.417821667E-1,-1.865720215E0,9.809850311E0,1.535806274E-1,9.986874489E0
1.518611667E-1,-1.462159424E0,9.832602997E0,-1.538800049E-1,9.941914852E0
1.619401667E-1,-1.501826935E0,9.756261749E0,-1.184037781E-1,9.871886695E0
1.720191666E-1,-1.705553284E0,9.798024902E0,2.871029663E-1,9.949504113E0
1.820981667E-1,-2.099234619E0,9.749076691E0,4.002676392E-1,9.980555921E0
1.921771667E-1,-2.254761200E0,9.751172333E0,2.109114075E-1,1.001068397E1
2.022561667E-1,-2.392325134E0,9.439969482E0,1.869612122E-1,9.740184694E0
2.123361666E-1,-2.432591400E0,9.134903870E0,3.535647583E-1,9.459861398E0
2.224151667E-1,-2.401755524E0,9.142987061E0,6.203100586E-1,9.473511838E0
2.324941667E-1,-2.498005371E0,8.970845032E0,4.230203247E-1,9.321750780E0
2.425731667E-1,-2.480192413E0,9.338031464E0,-6.960525513E-2,9.662040722E0
2.526521666E-1,-3.178789673E0,9.345665588E0,-3.333567810E-1,9.877109689E0
2.627311667E-1,-2.957849121E0,8.937614136E0,-6.363267517E-1,9.435821618E0
2.728101667E-1,-2.305206299E0,9.257947998E0,-6.923103333E-1,9.565713293E0
2.828891667E-1,-2.297123108E0,1.000699036E1,-4.989125061E-1,1.027937470E1
2.929691667E-1,-2.157762909E0,1.000848724E1,-3.004252625E-1,1.024285180E1
3.030481667E-1,-2.449655914E0,9.784852295E0,-1.511856079E-2,1.008684178E1
3.131271667E-1,-2.481539612E0,9.621092834E0,3.761677551E-1,9.943086460E0
3.232061667E-1,-2.204765167E0,9.438322906E0,8.903485107E-1,9.733223988E0
3.332851666E-1,-1.892813873E0,9.416168976E0,1.010847931E0,9.657577133E0
3.433641667E-1,-1.735940094E0,9.685608673E0,7.899073792E-1,9.871598505E0
3.534431667E-1,-1.952389984E0,9.985884247E0,8.249345398E-1,1.020834109E1
3.635231667E-1,-2.051932983E0,9.862091675E0,1.012045441E0,1.012400697E1
3.736021667E-1,-1.947749634E0,9.539063416E0,7.002438354E-1,9.761034828E0
3.836811667E-1,-2.062860260E0,9.138646088E0,2.987786865E-1,9.373340572E0
3.937601667E-1,-2.158062286E0,8.729097748E0,6.661148071E-2,8.992153102E0
4.038391667E-1,-1.981130219E0,8.790320435E0,-9.744735718E-2,9.011332103E0
4.139181667E-1,-2.013762360E0,9.089847565E0,1.128652954E-1,9.310924023E0
4.239971667E-1,-1.901795197E0,9.430389404E0,8.030799866E-1,9.653704302E0
4.340771667E-1,-1.909129944E0,9.845625916E0,9.087602234E-1,1.007010288E1
4.441561667E-1,-2.571502533E0,9.767488403E0,3.219804382E-1,1.010545033E1
4.542351667E-1,-3.305426331E0,9.178463287E0,-2.757266235E-1,9.759408625E0
4.643141667E-1,-3.668271790E0,8.656498718E0,-9.577084351E-1,9.450311816E0
4.743931667E-1,-3.158731384E0,8.430768127E0,-1.193917236E0,9.081898125E0
4.844721667E-1,-2.275418243E0,8.718769226E0,-6.471043396E-1,9.034002935E0
4.945511667E-1,-2.052382050E0,9.593849487E0,-1.508862305E-1,9.812083709E0
5.046301667E-1,-2.672991486E0,1.009141479E1,2.064207458E-1,1.044146281E1
5.147101667E-1,-2.996768188E0,1.014260834E1,3.903881836E-1,1.058326634E1
5.247891666E-1,-2.752476196E0,1.035890854E1,4.745132446E-2,1.071845898E1
5.348681667E-1,-2.484832764E0,1.030112869E1,-6.156697083E-1,1.061445691E1
5.449471667E-1,-3.053350525E0,1.014874557E1,-4.017645264E-1,1.060572491E1
5.550261667E-1,-3.120111694E0,9.555828552E0,-8.577163696E-1,1.008883708E1
5.651051666E-1,-1.441352692E0,9.102720795E0,-8.494834900E-1,9.255195603E0
5.751841667E-1,-1.532962189E0,9.296417999E0,-5.092410278E-1,9.435713387E0
5.852641667E-1,-3.030448151E0,8.877139893E0,4.989125061E-1,9.393409517E0
5.953431667E-1,-5.936055908E0,8.585546265E0,1.197958832E0,1.050635378E1
6.054221666E-1,-4.230352936E0,9.347910919E0,-1.923200684E0,1.043925406E1
6.155011667E-1,-1.532662811E0,9.748927002E0,-8.030799866E-1,9.901291353E0
6.255801667E-1,-1.581461334E0,9.481283569E0,-8.816665649E-2,9.612675561E0
6.356591667E-1,-1.943708038E0,9.589358826E0,1.916015625E-2,9.784384024E0
6.457381666E-1,-2.182012482E0,8.597072296E0,1.597178650E-1,8.871095780E0
6.558181667E-1,-1.011296997E0,1.021056702E1,-5.092410278E-1,1.027315564E1
6.658971667E-1,-1.381477203E0,1.057969940E1,-2.198927307E-1,1.067177921E1
6.759761667E-1,-2.608026581E0,9.076225891E0,-2.282752991E-1,9.446257920E0
6.860551666E-1,-2.654430084E0,8.353977814E0,-1.010398865E-1,8.766136746E0
6.961341667E-1,-2.137704620E0,9.093889160E0,-9.355545044E-2,9.342234943E0
7.062131667E-1,-2.969075775E0,9.556427307E0,5.837860107E-2,1.000720350E1
7.162921667E-1,-3.466192017E0,9.419013062E0,-1.026864624E-1,1.003707321E1
7.263711666E-1,-3.353027344E0,9.029373322E0,5.014572144E-2,9.631972256E0
7.364511667E-1,-2.887944489E0,8.350684662E0,-1.836680603E-1,8.837866917E0
7.465301667E-1,-2.968477020E0,8.734336853E0,-1.221459961E-1,9.225801631E0
7.566091667E-1,-1.118324432E0,9.661808167E0,-2.700384521E-1,9.730062042E0
7.666881667E-1,-1.226848755E0,1.077279785E1,-6.277944946E-1,1.086059194E1
7.767671667E-1,-2.465373230E0,1.037732025E1,-1.847158813E-1,1.066775331E1
7.868461667E-1,-2.266137543E0,9.551038513E0,3.423381042E-1,9.822164294E0
7.969251667E-1,-1.403930511E0,6.624773712E0,1.080153809E0,6.857505368E0
8.070051667E-1,-1.932780762E0,7.154671783E0,6.119274902E-1,7.436358319E0
8.170841667E-1,-1.692230988E0,8.707243195E0,1.833686829E-1,8.872054657E0
8.271631667E-1,-1.130149841E0,9.354796600E0,-3.817062378E-2,9.422893138E0
8.372421667E-1,-1.237626343E0,9.437275085E0,-2.133064270E-1,9.520471608E0
8.473211667E-1,-1.700014801E0,9.278006287E0,-4.572990417E-1,9.443546653E0
8.574001667E-1,-1.589544525E0,9.239386597E0,-7.141648865E-1,9.402284189E0
8.674791667E-1,-1.530118103E0,9.428742828E0,-1.060544586E0,9.610786001E0
8.775581667E-1,-3.073109436E-1,9.973909149E0,-1.079854431E0,1.003690138E1
8.876381667E-1,-2.206262054E0,1.051997360E1,1.683998108E-1,1.075015327E1
8.977171667E-1,-5.094655609E0,9.594747620E0,6.548881531E-1,1.088317859E1
9.077961667E-1,-5.795647888E0,8.334218903E0,3.002755737E-1,1.015573260E1
9.178751667E-1,-4.112847290E0,7.313042450E0,2.950364685E-1,8.395424303E0
9.279541667E-1,-3.357667694E0,6.375541992E0,-6.691085815E-2,7.205965938E0
9.380331667E-1,-3.811523895E0,5.802084503E0,2.763253784E-1,6.947535873E0
9.481121667E-1,-3.018622742E0,5.920338593E0,3.297642517E-1,6.653663410E0
9.581921666E-1,-2.562521210E0,6.465355225E0,5.595364380E-1,6.977135097E0
9.682711667E-1,-2.398761749E0,7.175628204E0,5.914201355E-1,7.589036555E0
9.783501667E-1,-2.273172913E0,8.181835785E0,2.230361938E-1,8.494674629E0
9.884291667E-1,-2.018402710E0,9.211694183E0,-1.576222229E-1,9.431548335E0
9.985081666E-1,-1.803300018E0,1.097712296E1,-4.043092346E-1,1.113160300E1
1.008587167E0,-1.624571686E0,1.273521698E1,-6.503974915E-1,1.285488240E1
1.018666167E0,-1.280736694E0,1.402179153E1,-9.008267212E-1,1.410894798E1
1.028746167E0,-3.613485718E-1,1.430006287E1,-8.976832581E-1,1.433276686E1
1.038825167E0,4.810995483E-1,1.327469513E1,-1.207239532E0,1.333815635E1
1.048904167E0,4.183799744E-1,1.198392929E1,-1.614692230E0,1.209945594E1
1.058983167E0,-1.989363098E-1,1.132095795E1,-1.411864014E0,1.141039107E1
1.069062167E0,-1.938468933E-1,1.045695465E1,-1.129251709E0,1.051953833E1
1.079141167E0,-4.602928162E-1,1.015218842E1,-4.906796265E-1,1.017445653E1
1.089220167E0,-7.764353943E-1,9.943971405E0,-1.324745178E-1,9.975117479E0
1.099299167E0,-1.210682373E0,9.682914276E0,-8.741821289E-2,9.758699843E0
1.109379167E0,-1.663939819E0,9.286987610E0,-2.854563904E-1,9.439190640E0
1.119458167E0,-1.847308502E0,8.862470398E0,-3.954776001E-1,9.061585556E0
1.129537167E0,-1.681303711E0,8.940458221E0,-6.734495544E-1,9.122067182E0
1.139616167E0,-1.403930511E0,9.267827454E0,-4.484674072E-1,9.384283116E0
1.149695167E0,-1.521585846E0,1.001387604E1,2.743794250E-1,1.013253280E1
1.159774167E0,-1.796713715E0,1.077399536E1,7.262896729E-1,1.094690152E1
1.169853167E0,-2.138153687E0,1.113684082E1,9.705816650E-1,1.138169378E1
1.179933167E0,-2.222578125E0,1.086365891E1,5.713618469E-1,1.110339555E1
1.190012167E0,-2.229014740E0,1.055709641E1,-1.172062683E-1,1.079048324E1
1.200091167E0,-2.274220734E0,1.050201096E1,-6.191125488E-1,1.076325297E1
1.210170167E0,-2.183060303E0,1.023676254E1,-6.854246521E-1,1.048936922E1
1.220249167E0,-1.897903290E0,1.019425095E1,-5.492079163E-1,1.038395005E1
1.230328167E0,-1.703307953E0,1.015218842E1,-2.350112915E-1,1.029676735E1
1.240407167E0,-1.689835968E0,1.002180954E1,1.218466187E-1,1.016400800E1
1.250487167E0,-1.594633942E0,9.973909149E0,5.369334412E-1,1.011484150E1
1.260566167E0,-1.805844727E0,9.685009918E0,8.440946960E-1,9.888022459E0
1.270645167E0,-1.769170990E0,9.147777100E0,7.843688965E-1,9.350242052E0
1.280724167E0,-1.595981140E0,8.658294983E0,6.465055847E-1,8.827864820E0
1.290803167E0,-1.341959381E0,8.420888672E0,7.375163269E-1,8.558980742E0
1.300882167E0,-9.400451660E-1,8.565487976E0,9.367520142E-1,8.667685592E0
1.310961167E0,-7.081773376E-1,8.920399933E0,1.100062408E0,9.015829823E0
1.321041167E0,-6.316864014E-1,9.194030914E0,1.161883850E0,9.288660089E0
1.331120167E0,-7.014413452E-1,9.270671539E0,1.269809418E0,9.383484785E0
1.341199167E0,-7.557783508E-1,9.280700684E0,1.257684631E0,9.395976624E0
1.351278167E0,-7.246430969E-1,9.302106171E0,1.118324432E0,9.397070627E0
1.361357167E0,-6.310876465E-1,9.314380646E0,1.040935364E0,9.393588498E0
1.371436167E0,-5.653742981E-1,9.344318390E0,8.831634521E-1,9.402973570E0
1.381515167E0,-5.366340637E-1,9.300459595E0,8.620573425E-1,9.355729135E0
1.391594167E0,-4.857398987E-1,9.084159393E0,1.027613068E0,9.154992286E0
1.401674167E0,-3.345542908E-1,8.671168213E0,1.136436768E0,8.751718304E0
1.411753167E0,-1.329235840E-1,8.168812866E0,1.123264160E0,8.246750554E0
1.421832167E0,-1.209484863E-1,7.828720093E0,1.027613068E0,7.896801596E0
1.431911167E0,7.514373779E-2,7.794291687E0,9.681866455E-1,7.854553766E0
1.441990167E0,3.403921509E-1,7.971972198E0,1.101259918E0,8.054873119E0
1.452069167E0,5.477110291E-1,8.400531006E0,1.301094360E0,8.518318795E0
1.462148167E0,7.216493225E-1,9.111402740E0,1.618733826E0,9.282173067E0
1.472228167E0,8.663983154E-1,9.868827667E0,1.864822083E0,1.008077214E1
1.482307167E0,9.065148926E-1,1.061682220E1,1.993853760E0,1.084039371E1
1.492386167E0,9.095086670E-1,1.137574402E1,1.956281891E0,1.157850581E1
1.502465167E0,9.731263733E-1,1.198303116E1,1.835034027E0,1.216171701E1
1.512544167E0,8.385562134E-1,1.237835907E1,1.687291260E0,1.252093853E1
1.522623167E0,1.959425354E-1,1.264540375E1,1.265318756E0,1.271006141E1
1.532702167E0,-2.752775574E-1,1.291529251E1,8.458909607E-1,1.294589085E1
1.542781167E0,-6.592291260E-1,1.346629669E1,9.187893677E-1,1.351369319E1
1.552861167E0,-1.018931122E0,1.346884140E1,1.339564362E0,1.357358987E1
1.562940167E0,-1.376537476E0,1.299627411E1,1.577868805E0,1.316387732E1
1.573019167E0,-1.390757904E0,1.218032089E1,1.233884125E0,1.232139986E1
1.583098167E0,-1.091979218E0,1.135134476E1,4.987628174E-1,1.141464895E1
1.593177167E0,-8.605604553E-1,1.072893906E1,-3.367996216E-2,1.076344889E1
1.603256167E0,-5.459147644E-1,1.027777725E1,-3.017724609E-1,1.029668854E1
1.613335167E0,-1.769320679E-1,9.893376617E0,-4.408332825E-1,9.904773588E0
1.623415167E0,1.028361511E-1,9.620643768E0,-4.547543335E-1,9.631934556E0
1.633494167E0,1.559756470E-1,9.295968933E0,-2.748284912E-1,9.301338479E0
1.643573167E0,2.817141724E-1,8.926686859E0,-1.050814819E-1,8.931749172E0
1.653652167E0,3.974235535E-1,8.526868286E0,4.370910645E-2,8.536236802E0
1.663731167E0,5.625302124E-1,8.213270416E0,3.727249146E-2,8.232596213E0
1.673810167E0,1.028810577E0,8.073610840E0,9.654922485E-2,8.139469574E0
1.683889167E0,1.252744904E0,8.069419556E0,2.959346008E-1,8.171442899E0
1.693968875E0,9.366023254E-1,8.140671387E0,5.980064392E-1,8.216164935E0
1.704047875E0,4.414320374E-1,8.100405121E0,1.005908203E0,8.174550549E0
1.714126875E0,2.377056885E-1,7.965834961E0,1.356329498E0,8.083975527E0
1.724205875E0,4.670288086E-2,7.838749237E0,1.545985107E0,7.989883648E0
1.734284875E0,-1.231938171E-1,7.579188995E0,1.623374176E0,7.752072385E0
1.744363875E0,-2.097138977E-1,7.298822021E0,1.531315613E0,7.460677605E0
1.754442875E0,-2.089654541E-1,7.143145752E0,1.360221405E0,7.274503424E0
1.764521875E0,-1.691482544E-1,7.023095398E0,1.224154358E0,7.130991095E0
1.774601875E0,-9.415420532E-2,6.835236053E0,1.165626068E0,6.934551251E0
1.784680875E0,2.080673218E-2,6.581962738E0,1.112486572E0,6.675349637E0
1.794759875E0,9.175918579E-2,6.268065491E0,1.065035248E0,6.358566255E0
1.804838875E0,4.775070190E-2,5.938750305E0,1.038240967E0,6.029011496E0
1.814917875E0,-1.173559570E-1,5.609135742E0,1.027313690E0,5.703643538E0
1.824996875E0,-4.650828552E-1,5.340893555E0,9.812095642E-1,5.450157634E0
1.835075875E0,-7.761360168E-1,5.268593903E0,8.616082764E-1,5.394704593E0
1.845155875E0,-1.014889526E0,5.347779236E0,4.854405212E-1,5.464832660E0
1.855234875E0,-6.979985046E-1,5.713319092E0,6.526428223E-2,5.756168551E0
1.865313875E0,-2.351609802E-1,6.224057007E0,-1.215472412E-1,6.229683784E0
1.875392875E0,9.490264893E-2,6.658753052E0,-2.143542480E-1,6.662878241E0
1.885471875E0,4.403842163E-1,7.066056061E0,-2.817141724E-1,7.085368684E0
1.895550875E0,8.187973022E-1,7.530540161E0,-3.460803223E-1,7.582825049E0
1.905629875E0,1.014590149E0,8.123008118E0,-3.903881836E-1,8.195429030E0
1.915709875E0,1.114133148E0,8.823850708E0,-4.318519592E-1,8.904388250E0
1.925788875E0,1.027762756E0,9.527986450E0,-4.194277954E-1,9.592431483E0
1.935867875E0,1.115031281E0,1.058359131E1,-3.980223083E-1,1.064960664E1
1.945946875E0,1.310075684E0,1.164189056E1,-2.034269714E-1,1.171713688E1
1.956025875E0,1.569486237E0,1.253418503E1,2.080673218E-2,1.263208274E1
1.966104875E0,1.965412903E0,1.315464478E1,1.375639343E-1,1.330137026E1
1.976183875E0,2.494562531E0,1.333591782E1,2.061213684E-1,1.356878890E1
1.986262875E0,3.096610565E0,1.302246964E1,3.367996216E-1,1.338981502E1
1.996342875E0,3.681444397E0,1.232791397E1,5.111869812E-1,1.287601677E1
2.006421875E0,4.147126007E0,1.104133942E1,7.635621643E-1,1.181917330E1
2.016500875E0,1.667532349E0,9.439520416E0,1.253343658E0,9.667268495E0
2.026579875E0,-2.314187622E-1,8.641080780E0,1.778751068E0,8.825292463E0
2.036658875E0,-1.068478088E0,8.270002441E0,2.391427002E0,8.674878034E0
2.046737875E0,-1.804347839E0,8.313711548E0,2.718047791E0,8.930915665E0
2.056816875E0,-2.329904938E0,8.610394592E0,2.615810394E0,9.295688037E0
2.066896875E0,-2.548151093E0,9.271719360E0,2.128124542E0,9.848186024E0
2.076975875E0,-2.802023163E0,1.015263748E1,1.891167297E0,1.070064930E1
2.087054875E0,-2.859803009E0,1.092323502E1,2.094294891E0,1.148397177E1
2.097133875E0,-2.856210480E0,1.178349609E1,2.401456146E0,1.236024717E1
2.107212875E0,-2.929707642E0,1.277099258E1,2.542313232E0,1.334708938E1
2.117291875E0,-3.891906738E0,1.404948395E1,2.935395813E0,1.487116289E1
2.127370875E0,-3.937412109E0,1.645887360E1,3.383264465E0,1.725816365E1
2.137450875E0,-1.941612396E0,1.850317245E1,2.825823669E0,1.881814361E1
2.147529875E0,1.170565796E-1,1.876961838E1,7.738906860E-1,1.878593046E1
2.157608875E0,1.402733002E0,1.738020767E1,-1.263821869E0,1.748246334E1
2.167687875E0,1.069974976E0,1.494432312E1,-2.102976837E0,1.512944650E1
2.177766875E0,3.173400879E-1,1.255559052E1,-1.647024994E0,1.266713264E1
2.187845875E0,5.303471375E-1,1.098326019E1,-8.518785095E-1,1.102900583E1
2.197924875E0,7.903564453E-1,9.765692139E0,-1.350192261E-1,9.798552773E0
2.208004875E0,1.112037506E0,8.844208374E0,4.340972900E-1,8.924409764E0
2.218083875E0,1.409169617E0,8.100704498E0,9.023236084E-1,8.271720515E0
2.228162875E0,1.385818176E0,7.516469421E0,1.319206696E0,7.756165991E0
2.238241875E0,1.234482880E0,7.151228943E0,1.523232422E0,7.415137247E0
2.248320875E0,1.205143890E0,6.848109283E0,1.426383820E0,7.098136611E0
2.258399875E0,1.031804352E0,6.620133362E0,9.343569946E-1,6.764895339E0
2.268478875E0,6.617738342E-1,6.478378143E0,2.442919922E-1,6.516671432E0
2.278557875E0,2.251318359E-1,6.372548218E0,-3.893403625E-1,6.388398943E0
2.288637875E0,-9.864486694E-2,6.234984283E0,-8.677455139E-1,6.295851182E0
2.298716875E0,-2.835104370E-1,6.018085327E0,-1.172062683E0,6.137708050E0
2.308795875E0,-3.968247986E-1,5.799390106E0,-1.375938721E0,5.973575386E0
2.318874875E0,-5.275030518E-1,5.764213257E0,-1.298699341E0,5.932203125E0
2.328953875E0,-5.665718079E-1,5.870492249E0,-9.461824036E-1,5.973185414E0
2.339032875E0,-4.920268250E-1,6.031557312E0,-5.275030518E-1,6.074539775E0
2.349111875E0,-2.155517578E-1,5.901777191E0,-1.773811340E-1,5.908375465E0
2.359191875E0,-1.212478638E-2,5.749244385E0,5.598358154E-2,5.749529734E0
2.369270875E0,-1.495390320E-1,5.719306641E0,2.125579834E-1,5.725208404E0
2.379349875E0,-1.633103943E-1,5.909860382E0,2.465373230E-1,5.917254488E0
2.389428875E0,-3.037184143E-1,6.408323822E0,3.903881836E-1,6.427383761E0
2.399507875E0,-7.123686218E-1,7.162605286E0,4.921765137E-1,7.214750256E0
2.409586875E0,-9.265731812E-1,7.817044373E0,3.849993896E-1,7.881176632E0
2.419665875E0,-1.154100037E0,8.517886963E0,2.679428101E-1,8.599891776E0
2.429745875E0,-1.328188019E0,9.286688232E0,2.125579834E-1,9.383594335E0
2.439824875E0,-1.419947205E0,9.943073273E0,2.079176331E-1,1.004610302E1
2.449903875E0,-1.286125488E0,1.043674667E1,3.254232788E-1,1.052072717E1
2.459982875E0,-1.169368286E0,1.103595062E1,5.640270996E-1,1.111205449E1
2.470061875E0,-1.180145874E0,1.159279266E1,8.244854736E-1,1.168183900E1
2.480140875E0,-1.257235565E0,1.192525131E1,8.767268372E-1,1.202334854E1
2.490219875E0,-1.469494171E0,1.221145615E1,6.466552734E-1,1.231654324E1
2.500299875E0,-1.717977448E0,1.265453476E1,4.477189636E-1,1.277846426E1
2.510378875E0,-1.901495819E0,1.329056213E1,5.119354248E-1,1.343565428E1
2.520457875E0,-2.093995514E0,1.435664520E1,9.026229858E-1,1.453660232E1
2.530536875E0,-1.930385742E0,1.519954239E1,1.525777130E0,1.539741776E1
2.540615875E0,-1.484163666E0,1.579006439E1,1.919159088E0,1.597535749E1
2.550694875E0,-8.643026733E-1,1.537198380E1,1.838925934E0,1.550569423E1
2.560773875E0,-4.062551880E-1,1.434302353E1,1.663640442E0,1.444489760E1
2.570853875E0,8.262817383E-2,1.353171066E1,1.328936462E0,1.359706193E1
2.580932875E0,3.767665100E-1,1.279748749E1,9.077124023E-1,1.283516968E1
2.591011875E0,6.135740662E-1,1.215517319E1,6.268963623E-1,1.218678413E1
2.601090875E0,9.160949707E-1,1.138053406E1,3.933819580E-1,1.142412075E1
2.611169875E0,1.180445251E0,1.067759583E1,1.044827271E-1,1.074315690E1
2.621248875E0,1.381177826E0,1.036025574E1,1.137634277E-2,1.045192234E1
2.631327875E0,1.434017944E0,1.058239380E1,1.841171265E-1,1.068070059E1
2.641406875E0,1.046623535E0,1.147169449E1,5.129832458E-1,1.153075657E1
2.651486875E0,8.054750061E-1,1.231593887E1,9.831555176E-1,1.238134626E1
2.661565875E0,6.776408386E-1,1.312470703E1,1.164578247E0,1.319368691E1
2.671644875E0,9.698332214E-1,1.338980576E1,9.029223633E-1,1.345521250E1
2.681723875E0,1.200054474E0,1.282128799E1,6.179150391E-1,1.289214395E1
2.691803375E0,1.175355835E0,1.173604477E1,4.887336731E-1,1.180487479E1
2.701882375E0,1.041683807E0,1.039423508E1,6.054908752E-1,1.046383520E1
2.711962375E0,8.894503784E-1,9.156159668E0,9.430389404E-1,9.247470156E0
2.722041375E0,6.023474121E-1,8.078101501E0,1.322200470E0,8.207725651E0
2.732120375E0,3.320095825E-1,7.077133026E0,1.542542267E0,7.250895040E0
2.742199375E0,1.167572021E-1,6.242768097E0,1.472338257E0,6.415104496E0
2.752278375E0,-9.445358276E-2,5.490731964E0,1.228046265E0,5.627180165E0
2.762357375E0,-3.218307495E-1,4.841082916E0,9.663903809E-1,4.947076834E0
2.772436375E0,-4.825964355E-1,4.322710876E0,8.430468750E-1,4.430514268E0
2.782515375E0,-4.962181091E-1,4.011208649E0,7.162605286E-1,4.104760210E0
2.792595375E0,-5.120851135E-1,4.158053284E0,4.945715332E-1,4.218558910E0
2.802674375E0,-6.788383484E-1,4.903952179E0,2.897973633E-1,4.959188541E0
2.812753375E0,-7.746391296E-1,5.777385864E0,3.049159241E-1,5.837056358E0
2.822832375E0,-6.848258972E-1,6.535559235E0,5.935157776E-1,6.598089269E0
2.832911375E0,-5.101391602E-1,7.050787811E0,7.747888184E-1,7.111550354E0
2.842990375E0,-4.790039062E-1,7.121590576E0,5.215155029E-1,7.156708426E0
2.853069375E0,-5.352868652E-1,6.804699554E0,4.400848389E-2,6.825862935E0
2.863149375E0,-3.206332397E-1,6.609355774E0,-1.206491089E-1,6.618228285E0
2.873228375E0,1.939965820E-1,6.546785889E0,3.248245239E-2,6.549740091E0
2.883307375E0,7.900570679E-1,6.614295502E0,4.204756165E-1,6.674570765E0
2.893386375E0,1.389261017E0,6.696624298E0,6.334826660E-1,6.868487712E0
2.903465375E0,1.832339630E0,7.064259796E0,5.155279541E-1,7.316215146E0
2.913544375E0,2.180365906E0,7.737260284E0,2.688409424E-1,8.043100624E0
2.923623375E0,2.220332794E0,8.493637390E0,1.523831177E-1,8.780374391E0
2.933703375E0,2.071691895E0,9.293873291E0,5.942642212E-2,9.522159396E0
2.943782375E0,2.313289490E0,1.000010468E1,1.068777466E-1,1.026473695E1
2.953861375E0,2.509232025E0,1.057431061E1,1.493893433E-1,1.086897453E1
2.963940375E0,2.968177643E0,1.089135132E1,2.098635864E-1,1.129051171E1
2.974019375E0,3.444187775E0,1.086530548E1,3.540138245E-1,1.140362304E1
2.984098375E0,3.965703278E0,1.078192886E1,6.219566345E-1,1.150493905E1
2.994177375E0,4.321663055E0,1.066831512E1,9.315129089E-1,1.154804899E1
3.004256375E0,4.661306763E0,1.073028625E1,1.224154358E0,1.176288135E1
3.014336375E0,4.906945953E0,1.101738922E1,1.396595764E0,1.214131227E1
3.024415375E0,3.130140839E0,1.122740250E1,1.294058990E0,1.172718795E1
3.034494375E0,1.551822968E0,1.124776016E1,1.137933655E0,1.141118557E1
3.044573375E0,9.723779297E-1,1.147498764E1,1.097966766E0,1.156833571E1
3.054652375E0,3.297642517E-1,1.210592560E1,1.147663422E0,1.216467469E1
3.064731375E0,-3.350033569E-1,1.268926254E1,1.185684357E0,1.274893951E1
3.074810375E0,-1.162033539E0,1.273297165E1,1.303938446E0,1.285220387E1
3.084890375E0,-2.082170105E0,1.227791794E1,1.419647827E0,1.253387814E1
3.094969375E0,-2.922971649E0,1.181388290E1,1.199156342E0,1.222904610E1
3.105048375E0,-3.614383850E0,1.156674683E1,9.071136475E-1,1.215221206E1
3.115127375E0,-3.857628021E0,1.176014465E1,7.964936829E-1,1.240228602E1
3.125206375E0,-2.492466888E0,1.273476791E1,9.014254761E-1,1.300766208E1
3.135285375E0,-1.226998444E0,1.405577087E1,1.097218323E0,1.415182349E1
3.145364375E0,-6.439608765E-1,1.525507690E1,1.275497589E0,1.532184555E1
3.155444375E0,-2.875520325E-1,1.615710114E1,1.431323547E0,1.622292484E1
3.165523375E0,-2.975811768E-1,1.649554733E1,1.225351868E0,1.654367322E1
3.175602375E0,-5.278024292E-1,1.590472595E1,5.495072937E-1,1.592296584E1
3.185681375E0,-5.189707947E-1,1.437490723E1,-3.603007507E-1,1.438878400E1
3.195760375E0,-3.963757324E-1,1.286035675E1,-1.201551361E0,1.292244617E1
3.205839375E0,-1.639091492E-1,1.155626862E1,-1.548978882E0,1.166076953E1
3.215918375E0,2.535726929E-1,1.027987289E1,-1.418450317E0,1.038037028E1
3.225997375E0,6.906637573E-1,9.028175812E0,-8.741821289E-1,9.096657040E0
3.236077375E0,9.616003418E-1,7.902666321E0,-2.359094238E-1,7.964449978E0
3.246156375E0,9.542655945E-1,6.912625122E0,2.294728088E-1,6.981952927E0
3.256235375E0,7.929011536E-1,6.122717743E0,4.321513367E-1,6.188951412E0
3.266314375E0,4.863386536E-1,5.505700836E0,4.763095093E-1,5.547624513E0
3.276393375E0,7.858657837E-2,4.971461792E0,3.511697388E-1,4.984468716E0
3.286472375E0,-3.953279114E-1,4.617298279E0,1.603166199E-1,4.636963335E0
3.296551375E0,-8.945397949E-1,4.537364502E0,-2.230361938E-2,4.624756807E0
3.306630375E0,-1.188528442E0,4.564458160E0,-2.296224976E-1,4.722245721E0
3.316710375E0,-1.260977783E0,4.659360809E0,-4.104464722E-1,4.844396188E0
3.326789375E0,-9.943821716E-1,4.963528290E0,-6.616241455E-1,5.105208663E0
3.336868375E0,-6.206094360E-1,5.547314301E0,-7.511380005E-1,5.632234043E0
3.346947375E0,-3.453318787E-1,6.377937012E0,-4.992118835E-1,6.406757927E0
3.357026375E0,-1.637594604E-1,7.343728638E0,-1.678010559E-1,7.347470630E0
3.367105375E0,-1.841171265E-2,8.410709839E0,-2.049238586E-1,8.413226062E0
3.377184375E0,1.122665405E-1,9.467063141E0,-3.525169373E-1,9.474289234E0
3.387264375E0,-5.643264771E-2,1.039318726E1,-3.761677551E-1,1.040014558E1
3.397343375E0,-5.402265930E-1,1.124461670E1,-4.912783813E-1,1.126830084E1
3.407422375E0,-8.686436462E-1,1.200398758E1,-7.197033691E-1,1.205687491E1
3.417501375E0,-9.562115479E-1,1.252640121E1,-1.060694275E0,1.260754299E1
3.427580375E0,-9.042695618E-1,1.284538788E1,-1.394500122E0,1.295246400E1
3.437659375E0,-8.125103760E-1,1.292487259E1,-1.650916901E0,1.305519173E1
3.447738375E0,-7.782316589E-1,1.270542892E1,-1.749262390E0,1.284887106E1
3.457817375E0,-7.186555481E-1,1.223690323E1,-1.534459076E0,1.235365659E1
3.467897375E0,-7.592211914E-1,1.163395706E1,-1.263821869E0,1.172700386E1
3.477976375E0,-6.206094360E-1,1.099538498E1,-1.160386963E0,1.107384959E1
3.488055375E0,-2.109114075E-1,1.047057632E1,-1.177900543E0,1.053873341E1
3.498134375E0,3.076103210E-1,9.985734558E0,-1.133143616E0,1.005452800E1
3.508213375E0,7.524851990E-1,9.542057190E0,-9.104067993E-1,9.614880651E0
3.518292375E0,1.115031281E0,9.211095428E0,-5.734574890E-1,9.296043634E0
3.528371375E0,1.381177826E0,9.109756165E0,-2.603086853E-1,9.217541439E0
3.538450375E0,1.429377594E0,9.209598541E0,1.369651794E-1,9.320868257E0
3.548530375E0,1.244811401E0,9.322164459E0,6.497987366E-1,9.427329634E0
3.558609375E0,1.173858948E0,9.375603333E0,1.092577972E0,9.511761630E0
3.568688375E0,1.194965057E0,9.592951355E0,1.374741211E0,9.764352031E0
3.578767375E0,1.178948364E0,1.002659958E1,1.553619232E0,1.021451668E1
3.588846375E0,1.206191711E0,1.051084259E1,1.768572235E0,1.072662846E1
3.598925375E0,1.288670197E0,1.099897751E1,1.868115234E0,1.123067369E1
3.609004375E0,1.385668488E0,1.153860535E1,1.782193909E0,1.175736814E1
3.619084375E0,1.372795258E0,1.217238739E1,1.619332581E0,1.235612478E1
3.629163375E0,1.512155457E0,1.298444870E1,1.460063782E0,1.315349035E1
3.639242375E0,1.761237488E0,1.378962433E1,1.303190002E0,1.396259291E1
3.649321375E0,1.870360565E0,1.447025894E1,1.053808594E0,1.462864160E1
3.659400375E0,2.059118042E0,1.494671814E1,8.428971863E-1,1.511141376E1
3.669479375E0,2.073188782E0,1.494956223E1,5.370831299E-1,1.510218463E1
3.679558375E0,1.491199036E0,1.445753540E1,5.403762817E-2,1.453433605E1
3.689637375E0,8.996292114E-1,1.388931702E1,-2.751278687E-1,1.392114059E1
3.699717375E0,4.291575623E-1,1.361718292E1,-3.986210632E-1,1.362977424E1
3.709796375E0,1.299298096E-1,1.339145233E1,-3.803590393E-1,1.339748298E1
3.719875375E0,2.076182556E-1,1.304402481E1,-4.532574463E-1,1.305354859E1
3.729954375E0,3.772155762E-1,1.260798157E1,-6.788383484E-1,1.263187683E1
3.740033375E0,3.216810608E-1,1.212089447E1,-9.804611206E-1,1.216473861E1
3.750112375E0,2.125579834E-1,1.159054733E1,-1.253044281E0,1.166002094E1
3.760191375E0,1.960922241E-1,1.091320587E1,-1.300645294E0,1.099218780E1
3.770270375E0,2.417472839E-1,1.029469208E1,-1.199605408E0,1.036716836E1
3.780350375E0,1.767823792E-1,9.733808441E0,-1.085093536E0,9.795698380E0
3.790429375E0,3.742218018E-2,9.069040833E0,-9.821076965E-1,9.122139967E0
3.800508375E0,-8.143066406E-2,8.443042603E0,-8.744815063E-1,8.488599251E0
3.810587375E0,-8.831634521E-2,7.867339783E0,-8.150550842E-1,7.909939938E0
3.820666375E0,-2.859054565E-2,7.337741089E0,-6.539900208E-1,7.366882967E0
3.830745375E0,1.606159973E-1,6.900949402E0,-4.760101318E-1,6.919211356E0
3.840824375E0,2.830613708E-1,6.519991608E0,-3.435356140E-1,6.535168783E0
3.850903375E0,3.255729675E-1,6.293512573E0,-1.338217163E-1,6.303348834E0
3.860983375E0,3.049159241E-1,6.202052765E0,1.389111328E-1,6.211097208E0
3.871062375E0,2.395019531E-1,6.402785339E0,4.676275635E-1,6.424305163E0
3.881141375E0,1.136137390E-1,6.972650299E0,8.187973022E-1,7.021480563E0
3.891220375E0,-8.173004150E-2,7.557334442E0,1.155447235E0,7.645589708E0
3.901299375E0,-1.971400452E-1,8.120762787E0,1.427431641E0,8.247618658E0
3.911378375E0,-8.098159790E-2,8.623866577E0,1.606459351E0,8.772590518E0
3.921457375E0,2.507286072E-1,9.020691376E0,1.674268341E0,9.178175865E0
3.931536375E0,6.764433289E-1,9.356892242E0,1.503623199E0,9.501046823E0
3.941616375E0,1.133442993E0,9.711055756E0,1.102158051E0,9.838904882E0
3.951695375E0,1.591789856E0,1.007285339E1,6.649172974E-1,1.021950515E1
3.961774375E0,2.027234344E0,1.036295013E1,2.844085693E-1,1.056320514E1
3.971853375E0,2.561174011E0,1.038944504E1,-1.317260742E-1,1.070128648E1
3.981932375E0,3.023861847E0,1.017658768E1,-6.225553894E-1,1.063457815E1
3.992011375E0,3.553610229E0,1.019544846E1,-1.184786224E0,1.086181538E1
4.002090375E0,3.987408142E0,1.033540741E1,-1.611249390E0,1.119447161E1
4.012170375E0,4.250860291E0,1.073133408E1,-1.676064606E0,1.166364166E1
4.022249375E0,3.351081390E0,1.168170776E1,-1.216220856E0,1.221356770E1
4.032328375E0,1.503922577E0,1.217223770E1,-3.847000122E-1,1.227082507E1
4.042407375E0,4.510121155E-1,1.187690186E1,3.204835510E-1,1.188978214E1
4.052486375E0,-4.183799744E-1,1.120000946E1,7.888595581E-1,1.123554863E1
4.062565375E0,-1.354682922E0,1.054272629E1,1.066532135E0,1.068277746E1
4.072644375E0,-2.075733490E0,1.033870056E1,1.184786224E0,1.061136736E1
4.082723375E0,-2.547103271E0,1.032822235E1,1.278341675E0,1.071419943E1
4.092803375E0,-2.588117981E0,9.771979065E0,1.334325256E0,1.019658538E1
4.102882375E0,-1.913470917E0,9.048982544E0,1.108744354E0,9.315297637E0
4.112961375E0,-2.009271698E0,9.186696167E0,7.976911926E-1,9.437630553E0
4.123040375E0,-2.389181671E0,9.751022644E0,9.363029480E-1,1.008302013E1
4.133119375E0,-3.106789398E0,1.037297928E1,1.629960480E0,1.095023336E1
4.143198375E0,-3.830684052E0,1.117501144E1,2.634072418E0,1.210344408E1
4.153277375E0,-4.700525208E0,1.222971817E1,3.466940460E0,1.355288235E1
4.163356375E0,-4.294270020E0,1.274195297E1,3.501219177E0,1.389448294E1
4.173436375E0,-2.158211975E0,1.256876312E1,2.523452454E0,1.299998068E1
4.183515375E0,-9.867480469E-1,1.234243378E1,1.414408722E0,1.246233908E1
4.193594375E0,1.585203552E-1,1.208047852E1,5.522016907E-1,1.209413149E1
4.203673375E0,1.052611084E0,1.165072220E1,1.805245972E-1,1.169956867E1
4.213752375E0,1.539698181E0,1.117111954E1,2.299218750E-1,1.127907116E1
4.223831375E0,1.778900757E0,1.081785416E1,5.074447632E-1,1.097487843E1
4.233910375E0,1.706900482E0,1.042447220E1,5.742059326E-1,1.057888663E1
4.243989375E0,1.100661163E0,9.878258057E0,3.107537842E-1,9.944244825E0
4.254069375E0,5.571414185E-1,9.239985352E0,-1.107696533E-2,9.256773658E0
4.264148375E0,2.107617188E-1,8.452922058E0,-1.883084106E-1,8.457645765E0
4.274227375E0,-1.362167358E-2,7.821385345E0,-2.116598511E-1,7.824260615E0
4.284306375E0,2.260299683E-2,7.370373230E0,-6.571334839E-2,7.370700828E0
4.294385375E0,2.174977112E-1,7.056026917E0,7.035369873E-2,7.059728801E0
4.304464375E0,3.722758484E-1,6.887926483E0,1.178050232E-1,6.898985329E0
4.314543375E0,4.495152283E-1,6.709347839E0,1.308279419E-1,6.725661924E0
4.324622375E0,4.589456177E-1,6.466103668E0,1.842668152E-1,6.484988974E0
4.334702375E0,3.180885315E-1,6.203998718E0,2.004331970E-1,6.215380429E0
4.344781375E0,1.185534668E-1,5.836213531E0,1.468446350E-1,5.839264222E0
4.354860375E0,2.365081787E-2,5.421575775E0,7.514373779E-2,5.422148082E0
4.364939375E0,-5.254074097E-2,5.049299927E0,5.044509888E-2,5.049825243E0
4.375018375E0,-1.457968140E-1,4.662354584E0,8.981323242E-2,4.665498193E0
4.385097375E0,-1.683998108E-1,4.280199280E0,1.025367737E-1,4.284737817E0
4.395176375E0,-1.618135071E-1,4.032464447E0,3.382965088E-2,4.035851530E0
4.405255375E0,-3.028202820E-1,3.816763000E0,-7.499404907E-2,3.829491354E0
4.415335375E0,-2.336640930E-1,3.649710388E0,-1.477427673E-1,3.660165673E0
4.425414375E0,-2.857557678E-1,3.822600861E0,-9.026229858E-2,3.834329274E0
4.435493375E0,-3.460803223E-1,4.369413757E0,2.158511353E-1,4.388409722E0
4.445572375E0,-4.143383789E-1,5.113815765E0,5.143304443E-1,5.156289730E0
4.455651375E0,-5.336402893E-1,5.956712952E0,7.292834473E-1,6.024869749E0
4.465730375E0,-6.242019653E-1,6.871161346E0,7.150630188E-1,6.936411281E0
4.475809375E0,-7.849676514E-1,7.597600708E0,4.275109863E-1,7.649998456E0
4.485889375E0,-7.294331360E-1,8.116122437E0,-1.210981750E-1,8.149735019E0
4.495968375E0,-6.881190491E-1,8.819958801E0,-7.801776123E-1,8.881095551E0
4.506047375E0,-8.994795227E-1,9.996512146E0,-1.222807159E0,1.011111150E1
4.516126375E0,-1.103954315E0,1.150522476E1,-1.564396820E0,1.166345786E1
4.526205375E0,-7.756869507E-1,1.309806244E1,-1.704206085E0,1.323122248E1
4.536284375E0,2.356100464E-1,1.412597488E1,-1.227148132E0,1.418113434E1
4.546363375E0,1.288670197E0,1.430784668E1,-2.589614868E-1,1.436809690E1
4.556442375E0,2.011217651E0,1.392464355E1,3.757186890E-1,1.407415572E1
4.566521375E0,2.354154510E0,1.321437057E1,5.932164001E-1,1.343553270E1
4.576601375E0,1.940714264E0,1.254705826E1,8.520281982E-1,1.272481807E1
4.586680375E0,1.653611298E0,1.174068512E1,1.109492798E0,1.190836226E1
4.596759375E0,1.439706116E0,1.115255814E1,9.611512756E-1,1.128610289E1
4.606838375E0,9.234297180E-1,1.101424576E1,5.382806396E-1,1.106598744E1
4.616917375E0,6.641688538E-1,1.111229187E1,4.812492371E-1,1.114251999E1
4.626996375E0,8.575666809E-1,1.133577713E1,9.256750488E-1,1.140579406E1
4.637075375E0,1.206491089E0,1.121243362E1,1.287472687E0,1.135041296E1
4.647155375E0,1.312620392E0,1.090392517E1,1.402882690E0,1.107188495E1
4.657234375E0,1.235231323E0,1.079375427E1,1.762734375E0,1.100627822E1
4.667313375E0,1.305135956E0,1.106813370E1,2.357447662E0,1.139142322E1
4.677392375E0,1.249601440E0,1.170999893E1,2.885549469E0,1.212484946E1
4.687471375E0,1.275796967E0,1.231728607E1,3.068768463E0,1.275776367E1
4.697549667E0,1.519490204E0,1.249631378E1,2.893183594E0,1.291654830E1
4.707628667E0,1.691482544E0,1.214529373E1,2.290087738E0,1.247452504E1
4.717707667E0,1.830243988E0,1.159563675E1,1.370549927E0,1.181892515E1
4.727787667E0,1.862127686E0,1.106139771E1,4.918771362E-1,1.122782178E1
4.737866667E0,1.920206909E0,1.071202423E1,2.275268555E-2,1.088279263E1
4.747945667E0,1.925146637E0,1.063658112E1,-4.206253052E-2,1.080947809E1
4.758024667E0,1.854044495E0,1.071950867E1,2.860551453E-1,1.088242503E1
4.768103667E0,1.681453400E0,1.100361786E1,7.586224365E-1,1.115716808E1
4.778182667E0,1.447938995E0,1.141271713E1,9.430389404E-1,1.154278832E1
4.788261667E0,1.302291870E0,1.199874847E1,8.108638000E-1,1.209642216E1
4.798340667E0,1.268162842E0,1.262534546E1,6.069877625E-1,1.270338613E1
4.808420667E0,1.440155182E0,1.286020706E1,5.734574890E-1,1.295329403E1
4.818499667E0,1.737287292E0,1.216669922E1,5.860313416E-1,1.230407127E1
4.828578667E0,1.870659943E0,1.083686462E1,2.038760376E-1,1.099902582E1
4.838657667E0,1.462159424E0,9.420360260E0,-4.405339050E-1,9.543331061E0
4.848736667E0,1.087937622E0,8.282576294E0,-8.054750061E-1,8.392464973E0
4.858815667E0,1.276695099E0,7.413782959E0,-9.125024414E-1,7.578046506E0
4.868894667E0,1.505269775E0,6.705904999E0,-7.330256653E-1,6.911752714E0
4.878973667E0,1.556762695E0,6.248306580E0,-4.767585754E-1,6.456945403E0
4.889053667E0,1.311722260E0,6.108048248E0,-2.835104370E-1,6.253738630E0
4.899132667E0,1.209185486E0,6.181994476E0,3.442840576E-3,6.299142568E0
4.909211667E0,1.095272369E0,6.347250824E0,2.707868958E-1,6.446746476E0
4.919290667E0,8.848100281E-1,6.694079590E0,6.767427063E-1,6.786130785E0
4.929369667E0,7.780819702E-1,6.863976288E0,1.037791901E0,6.985455895E0
4.939448667E0,6.128256226E-1,6.791826324E0,1.032552795E0,6.897146174E0
4.949527667E0,5.272036743E-1,6.561605072E0,8.214916992E-1,6.633811382E0
4.959606667E0,5.610333252E-1,6.390510864E0,7.719447327E-1,6.461368753E0
4.969686667E0,6.966513062E-1,6.501130829E0,9.134005737E-1,6.601842599E0
4.979765667E0,1.006357269E0,6.658603363E0,1.029858398E0,6.812515102E0
4.989844667E0,1.292412415E0,6.817423096E0,9.846524048E-1,7.008361283E0
4.999923667E0,1.488205261E0,7.068151703E0,6.819818115E-1,7.255247934E0
5.010002667E0,1.594933319E0,7.623347168E0,4.836442566E-1,7.803406058E0
5.020081667E0,1.648222504E0,8.279582520E0,7.212002563E-1,8.472794930E0
5.030160667E0,1.833986206E0,8.862620087E0,1.124012604E0,9.119920205E0
5.040239667E0,2.163451080E0,9.179062042E0,1.223256226E0,9.509577086E0
5.050319667E0,2.432142334E0,9.169631653E0,9.437873840E-1,9.533530071E0
5.060398667E0,2.714006195E0,9.128467255E0,5.372328186E-1,9.538519966E0
5.070477667E0,3.096760254E0,9.530830536E0,3.212319946E-1,1.002645724E1
5.080556667E0,3.582051086E0,1.008767258E1,4.474195862E-1,1.071412210E1
5.090635667E0,3.964356079E0,1.025053391E1,6.908134460E-1,1.101212004E1
5.100714667E0,4.374353485E0,1.008707382E1,6.572831726E-1,1.101435644E1
5.110793667E0,4.176315308E0,9.803114319E0,2.314187622E-1,1.065815249E1
5.120873667E0,2.444267120E0,9.438023529E0,-2.686912537E-1,9.753098220E0
5.130952667E0,1.420396271E0,9.195827179E0,-4.221221924E-1,9.314448466E0
5.141031667E0,6.438111877E-1,9.446555786E0,-1.288819885E-1,9.469346315E0
5.151110667E0,-1.450483704E-1,1.041938278E1,2.460882568E-1,1.042329775E1
5.161189667E0,-8.596623230E-1,1.174278076E1,5.715115356E-1,1.178806790E1
5.171268667E0,-1.345102844E0,1.328083237E1,8.315208435E-1,1.337464904E1
5.181347667E0,-1.714085541E0,1.480720825E1,1.036594391E0,1.494208932E1
5.191426667E0,-1.662742310E0,1.608435242E1,1.136586456E0,1.620996402E1
5.201505667E0,-1.076710968E0,1.709789474E1,1.061742096E0,1.716463246E1
5.211585667E0,-9.295669556E-2,1.786055878E1,5.372328186E-1,1.786887853E1
5.221664667E0,8.500822449E-1,1.794213913E1,-1.210981750E-1,1.796267411E1
5.231743667E0,1.737436981E0,1.698458038E1,-6.292913818E-1,1.708480804E1
5.241822667E0,2.464774475E0,1.527259048E1,-9.904902649E-1,1.550187744E1
5.251901667E0,2.360890503E0,1.326795914E1,-1.188079376E0,1.352863911E1
5.261980667E0,1.298100586E0,1.140104141E1,-1.103205872E0,1.152761353E1
5.272059667E0,7.005432129E-1,9.666298828E0,-7.342231750E-1,9.719422694E0
5.282139667E0,4.144880676E-1,8.289012909E0,-2.124082947E-1,8.302087246E0
5.292218667E0,1.136137390E-1,7.402256927E0,2.803669739E-1,7.408435823E0
5.302297667E0,-1.104702759E-1,6.862180023E0,6.113287354E-1,6.890242461E0
5.312376667E0,-8.577163696E-2,6.609655151E0,6.554869080E-1,6.642632090E0
5.322455667E0,3.113525391E-2,6.742279358E0,6.390211487E-1,6.772565863E0
5.332534667E0,1.154100037E-1,7.141349487E0,6.701564026E-1,7.173653293E0
5.342613667E0,1.463955688E-1,7.400610352E0,6.331832886E-1,7.429090544E0
5.352692667E0,3.824546814E-1,7.608078918E0,1.713935852E-1,7.619613650E0
5.362772667E0,3.800596619E-1,7.672894135E0,-4.793032837E-1,7.697238556E0
5.372851667E0,5.060975647E-1,7.477250977E0,-1.231788483E0,7.594914073E0
5.382930667E0,5.225633240E-1,7.182214508E0,-1.733994141E0,7.407024595E0
5.393009667E0,9.011260986E-2,6.951993256E0,-1.715283051E0,7.161042274E0
5.403088667E0,-3.204835510E-1,6.585106201E0,-1.303489380E0,6.720522149E0
5.413167667E0,-4.519102478E-1,6.394552460E0,-1.187630310E0,6.519585093E0
5.423246667E0,-5.791456604E-1,6.289920044E0,-1.196312256E0,6.428815355E0
5.433325667E0,-3.523672485E-1,6.245612183E0,-9.927355957E-1,6.333826504E0
5.443405667E0,-1.107696533E-1,6.409221954E0,-5.161267090E-1,6.430923943E0
5.453484667E0,-2.119592285E-1,6.779402161E0,1.049317932E-1,6.783526447E0
5.463563667E0,-1.597178650E-1,7.355104980E0,6.420149231E-1,7.384799404E0
5.473642667E0,2.424957275E-2,8.166567535E0,8.357121277E-1,8.209252592E0
5.483721667E0,-5.972579956E-2,9.085356903E0,7.734416199E-1,9.118414838E0
5.493800667E0,-3.529660034E-1,1.005114853E1,4.733157349E-1,1.006847553E1
5.503879667E0,-6.279441833E-1,1.100825821E1,6.331832886E-2,1.102633538E1
5.513959667E0,-8.180488586E-1,1.186477707E1,-4.302053833E-1,1.190072332E1
5.524038667E0,-8.080197144E-1,1.265124161E1,-8.966354370E-1,1.270868857E1
5.534117667E0,-7.685018921E-1,1.313668213E1,-1.169517975E0,1.321100998E1
5.544196667E0,-6.224057007E-1,1.329909439E1,-1.056053925E0,1.335546893E1
5.554275667E0,-5.044509888E-1,1.312126419E1,-7.237449646E-1,1.315088786E1
5.564354667E0,-5.397775269E-1,1.274180328E1,-3.811074829E-1,1.275892447E1
5.574433667E0,-3.701802063E-1,1.230501160E1,-3.802093506E-2,1.231063724E1
5.584512667E0,1.573228455E-1,1.174158325E1,3.505709839E-1,1.174786907E1
5.594592667E0,6.794371033E-1,1.112456635E1,7.223977661E-1,1.116868254E1
5.604671667E0,1.226848755E0,1.061831909E1,1.140927429E0,1.074967784E1
5.614750667E0,1.862576752E0,1.032672546E1,1.340911560E0,1.057868115E1
5.624829667E0,2.242037659E0,1.024289978E1,1.301693115E0,1.056589484E1
5.634908667E0,2.367626495E0,1.032433044E1,1.197659454E0,1.065982376E1
5.644987667E0,2.167342987E0,1.049407745E1,1.300495605E0,1.079418019E1
5.655066667E0,2.141297150E0,1.080213684E1,1.538949738E0,1.111933811E1
5.665145667E0,2.210303650E0,1.111319000E1,1.628463593E0,1.144728474E1
5.675225667E0,2.358046417E0,1.124940674E1,1.380429382E0,1.157648998E1
5.685304667E0,2.361638947E0,1.129371460E1,8.205935669E-1,1.156713888E1
5.695385000E0,1.992805939E0,1.166988235E1,2.305206299E-1,1.184105441E1
5.705464000E0,1.695374451E0,1.246278351E1,2.148033142E-1,1.257940411E1
5.715543000E0,1.538350983E0,1.345641724E1,7.562274170E-1,1.356516010E1
5.725622000E0,1.359922028E0,1.440035431E1,1.340312805E0,1.452639083E1
5.735701000E0,1.609602814E0,1.484463043E1,1.582808533E0,1.501529742E1
5.745780000E0,1.780397644E0,1.452878723E1,8.972341919E-1,1.466494130E1
5.755860000E0,1.733545074E0,1.373828110E1,-1.700463867E-1,1.384826566E1
5.765939000E0,1.551373901E0,1.250589386E1,-8.406518555E-1,1.262976000E1
5.776018000E0,1.387614441E0,1.117022141E1,-9.961784363E-1,1.130007485E1
5.786097000E0,1.419947205E0,9.991422729E0,-7.530839539E-1,1.011987716E1
5.796176000E0,1.347946930E0,9.117090912E0,-3.522175598E-1,9.222926045E0
5.806255000E0,1.304237823E0,8.481512604E0,-1.661544800E-2,8.581221849E0
5.816334000E0,1.211879883E0,7.801476746E0,1.115180969E-1,7.895829820E0
5.826413000E0,9.677375793E-1,7.086413727E0,1.323248291E-1,7.153410752E0
5.836493000E0,6.316864014E-1,6.572682037E0,8.098159790E-2,6.603463856E0
5.846572000E0,2.056723022E-1,6.215524750E0,3.188369751E-2,6.219008408E0
5.856651000E0,-7.858657837E-2,5.991440735E0,-6.167175293E-2,5.992273470E0
5.866730000E0,-2.760260010E-1,5.863905945E0,-2.222877502E-1,5.874605955E0
5.876809000E0,-3.996688843E-1,5.894292755E0,-3.712280273E-1,5.919479077E0
5.886888000E0,-1.029858398E-1,6.043382721E0,-3.770658875E-1,6.056010195E0
5.896967000E0,1.616638184E-1,6.355932770E0,-1.528321838E-1,6.359825016E0
5.907046000E0,5.792953491E-2,6.598278809E0,3.320095825E-1,6.606880461E0
5.917126000E0,7.634124756E-2,6.874304810E0,8.711883545E-1,6.929708778E0
5.927205000E0,1.625619507E-1,6.986571350E0,1.372346191E0,7.121933704E0
5.937284000E0,1.327738953E-1,6.604416046E0,1.569785614E0,6.789710383E0
5.947363000E0,2.576142883E-1,5.942043457E0,1.268611908E0,6.081416097E0
5.957442000E0,5.536985779E-1,5.564378815E0,7.289840698E-1,5.639176490E0
5.967521000E0,9.719288635E-1,5.498665466E0,4.746629333E-1,5.604040732E0
5.977600000E0,1.346599731E0,5.590274963E0,6.041436768E-1,5.781824503E0
5.987679000E0,1.695673828E0,5.825136566E0,8.214916992E-1,6.122285060E0
5.997759000E0,2.000440063E0,6.137985992E0,8.000862122E-1,6.505134160E0
6.007838000E0,2.277214508E0,6.504423981E0,5.258564758E-1,6.911567280E0
6.017917000E0,2.572101288E0,6.980883179E0,2.025288391E-1,7.442409080E0
6.027996000E0,2.953657837E0,7.662116547E0,-2.664459229E-2,8.211749785E0
6.038075000E0,3.216062164E0,8.401578827E0,-4.909790039E-2,8.996221053E0
6.048154000E0,3.557951202E0,9.144633636E0,7.035369873E-2,9.812659718E0
6.058233000E0,3.770359497E0,9.846374359E0,1.730401611E-1,1.054498182E1
6.068312000E0,3.556903381E0,1.032657578E1,2.502795410E-1,1.092485097E1
6.078392000E0,3.264561310E0,1.063957489E1,2.811154175E-1,1.113269690E1
6.088471000E0,3.555855560E0,1.089150101E1,3.141966248E-1,1.146157155E1
6.098550000E0,4.195924530E0,1.089120163E1,3.835025024E-1,1.167780501E1
6.108629000E0,4.725972290E0,1.074809921E1,5.239105225E-1,1.175291168E1
6.118708000E0,4.400249634E0,1.064990341E1,7.319778442E-1,1.154636008E1
6.128787000E0,2.483934631E0,1.072205338E1,7.839198303E-1,1.103389732E1
6.138866000E0,1.308129730E0,1.084689377E1,6.191125488E-1,1.094301641E1
6.148945000E0,2.820135498E-1,1.119147720E1,3.978726196E-1,1.120209785E1
6.159025000E0,-6.340814209E-1,1.174801987E1,3.598516846E-1,1.177062119E1
6.169104000E0,-1.504970398E0,1.238359818E1,4.326004028E-1,1.248221065E1
6.179183000E0,-2.367476807E0,1.303100189E1,4.022135925E-1,1.325042386E1
6.189262000E0,-2.935844879E0,1.358814331E1,2.047741699E-1,1.390319230E1
6.199341000E0,-3.155438232E0,1.406340500E1,1.353186035E-1,1.441369008E1
6.209420000E0,-1.884431305E0,1.452953568E1,2.939886475E-1,1.465417748E1
6.219499000E0,-7.694000244E-1,1.545670761E1,6.143225098E-1,1.548803340E1
6.229578000E0,3.661386108E-1,1.696242645E1,8.478369141E-1,1.698754827E1
6.239658000E0,1.718426514E0,1.799093765E1,1.132694550E0,1.810828054E1
6.249737000E0,2.510130157E0,1.753468643E1,1.113534393E0,1.774840670E1
6.259816000E0,1.765129395E0,1.532857407E1,5.394781494E-1,1.543929731E1
6.269895000E0,3.564088440E-1,1.323847046E1,-1.110690308E-1,1.324373300E1
6.279974000E0,-2.504292297E-1,1.207703568E1,-2.712359619E-1,1.208267663E1
6.290053000E0,-5.954617310E-1,1.127934448E1,-1.811233521E-2,1.129506594E1
6.300132000E0,-5.222639465E-1,1.039872574E1,2.097138977E-1,1.041394433E1
6.310211000E0,-3.086581421E-1,9.430389404E0,2.342628479E-1,9.438346955E0
6.320291000E0,-1.646575928E-2,8.673114166E0,5.149291992E-2,8.673282653E0
6.330370000E0,3.842509460E-1,7.979456635E0,-1.163081360E-1,7.989549709E0
6.340449000E0,7.631130981E-1,7.275021515E0,-1.652563477E-1,7.316801849E0
6.350528000E0,8.541238403E-1,6.568640442E0,-3.257226562E-1,6.631942403E0
6.360607000E0,7.896080017E-1,5.847889252E0,-5.574407959E-1,5.927227829E0
6.370686000E0,6.991960144E-1,5.226231995E0,-7.679031372E-1,5.328419199E0
6.380765000E0,5.399272156E-1,4.764142914E0,-1.007854156E0,4.899423344E0
6.390844000E0,3.261717224E-1,4.520599365E0,-1.153650970E0,4.676870447E0
6.400924000E0,7.274871826E-2,4.577630768E0,-1.204844513E0,4.734094013E0
6.411003000E0,-1.764830017E-1,4.844825134E0,-1.031954041E0,4.956652698E0
6.421082000E0,-3.128494263E-2,5.285808105E0,-7.081773376E-1,5.333128652E0
6.431161000E0,1.472937012E-1,5.754333801E0,-4.598437500E-1,5.774557057E0
6.441240000E0,2.785707092E-1,6.190826111E0,-2.058219910E-1,6.200507420E0
6.451319000E0,3.824546814E-1,6.527925110E0,-1.930984497E-2,6.539147551E0
6.461398000E0,8.562194824E-2,6.850504303E0,1.945953369E-2,6.851066997E0
6.471477000E0,-1.916015625E-1,7.112609253E0,5.149291992E-2,7.115375820E0
6.481557000E0,-5.011578369E-1,7.447163544E0,1.420545959E-1,7.465358902E0
6.491636000E0,-8.075706482E-1,7.973918152E0,1.814227295E-1,8.016760895E0
6.501715000E0,-1.168170776E0,8.675958252E0,2.016307068E-1,8.756570647E0
6.511794000E0,-1.534608765E0,9.487720184E0,2.122586060E-1,9.613371525E0
6.521873000E0,-1.602866821E0,1.016521133E1,2.514770508E-1,1.029387897E1
6.531952000E0,-1.185384979E0,1.070588699E1,1.755848694E-1,1.077274264E1
6.542031000E0,-8.385562134E-1,1.122171432E1,4.490661621E-2,1.125309138E1
6.552110000E0,-7.939489746E-1,1.169592819E1,-1.041833496E-1,1.172330778E1
6.562190000E0,-7.914042664E-1,1.223825043E1,-1.951940918E-1,1.226536567E1
6.572269000E0,-6.426136780E-1,1.267384460E1,-1.377136230E-1,1.269087288E1
6.582348000E0,-4.176315308E-1,1.281155823E1,1.225950623E-1,1.281894964E1
6.592427000E0,2.405497742E-1,1.258597733E1,1.411564636E-1,1.258906726E1
6.602506000E0,6.158193970E-1,1.218002151E1,-1.649569702E-1,1.219669498E1
6.612585000E0,1.832189941E-1,1.171598648E1,1.901046753E-2,1.171743444E1
6.622664000E0,7.009922791E-1,1.116797607E1,4.435276794E-1,1.119874085E1
6.632743000E0,1.345402222E0,1.057745407E1,7.138655090E-1,1.068654508E1
6.642822000E0,1.796414337E0,1.019395157E1,6.271957397E-1,1.037001097E1
6.652902000E0,2.191293182E0,1.022344025E1,5.622308350E-1,1.047074972E1
6.662981000E0,2.416425018E0,1.045875092E1,7.438032532E-1,1.076001040E1
6.673060000E0,2.302511902E0,1.093356354E1,1.195563812E0,1.123715914E1
6.683139000E0,1.549128571E0,1.162302979E1,1.760938110E0,1.185729833E1
6.693218500E0,1.294058990E0,1.196581696E1,2.026635590E0,1.220502421E1
6.703297500E0,1.216520233E0,1.203811661E1,1.710043945E0,1.221967361E1
6.713376500E0,1.180145874E0,1.197734299E1,1.204844513E0,1.209550080E1
6.723456500E0,1.414408722E0,1.176912598E1,9.780661011E-1,1.189409482E1
6.733535500E0,1.526076508E0,1.195997910E1,9.699829102E-1,1.209590329E1
6.743614500E0,1.248254242E0,1.267294647E1,1.148112488E0,1.278592481E1
6.753693500E0,1.256187744E0,1.324251205E1,1.341660004E0,1.336944968E1
6.763772500E0,1.525178375E0,1.332618805E1,1.305285645E0,1.347654361E1
6.773851500E0,1.650467834E0,1.276485535E1,8.779243469E-1,1.290102040E1
6.783930500E0,1.830693054E0,1.191761719E1,3.739224243E-1,1.206320250E1
6.794009500E0,1.995051270E0,1.108055786E1,1.796264648E-3,1.125872974E1
6.804089500E0,1.907932434E0,1.025517426E1,-6.900650024E-2,1.043137417E1
6.814168500E0,1.846410370E0,9.503138123E0,1.559756470E-1,9.682106890E0
6.824247500E0,2.004032593E0,8.954828339E0,4.038601685E-1,9.185216396E0
6.834326500E0,2.156715088E0,8.488398285E0,5.093907166E-1,8.772901704E0
6.844405500E0,1.994901581E0,8.263565826E0,4.168830872E-1,8.511165842E0
6.854484500E0,1.558558960E0,8.102201385E0,2.133064270E-1,8.253500648E0
6.864563500E0,1.268312531E0,7.797135773E0,1.571731567E-2,7.899632268E0
6.874642500E0,1.136586456E0,7.405999146E0,-2.119592285E-1,7.495704025E0
6.884721500E0,1.106798401E0,7.001989288E0,-5.327421570E-1,7.108914889E0
6.894801500E0,7.560777283E-1,6.705455933E0,-9.098080444E-1,6.809004588E0
6.904880500E0,2.866539001E-1,6.360273743E0,-1.100361786E0,6.461118216E0
6.914959500E0,-9.041198730E-2,6.231691132E0,-1.275048523E0,6.361438314E0
6.925038500E0,-2.680924988E-1,6.696474609E0,-1.193318481E0,6.807250163E0
6.935117500E0,-6.122268677E-1,6.403533783E0,-7.217990112E-1,6.473102846E0
6.945196500E0,-6.545887756E-1,5.540578308E0,-4.629872131E-1,5.598290062E0
6.955275500E0,4.526586914E-1,5.147944794E0,-5.900729370E-1,5.201386504E0
6.965354500E0,7.650590515E-1,5.432952118E0,-2.615061951E-1,5.492783407E0
6.975434500E0,7.066804504E-1,5.877078552E0,4.162843323E-1,5.934032542E0
6.985513500E0,7.717950439E-1,6.263574829E0,9.389973450E-1,6.380419519E0
6.995592500E0,9.702822876E-1,6.814579010E0,1.184786224E0,6.984529562E0
7.005671500E0,1.396296387E0,7.498955841E0,1.171763306E0,7.717318935E0
7.015750500E0,1.885179749E0,8.196954346E0,8.770262146E-1,8.456544106E0
7.025829500E0,2.243534546E0,9.006021881E0,5.270539856E-1,9.296217687E0
7.035908500E0,2.529739380E0,9.941127319E0,4.197271729E-1,1.026653615E1
7.045987500E0,3.112926636E0,1.071726334E1,3.829037476E-1,1.116676591E1
7.056067500E0,3.566483459E0,1.123937759E1,2.755769348E-1,1.179488684E1
7.066146500E0,4.197720795E0,1.184307220E1,3.906875610E-2,1.256506050E1
7.076225500E0,4.721481628E0,1.219813385E1,-5.942642212E-2,1.308015251E1
7.086304500E0,5.173242188E0,1.208796295E1,4.370910645E-2,1.314850537E1
7.096383500E0,5.398972778E0,1.125943588E1,1.823208618E-1,1.248827628E1
7.106462500E0,4.362528076E0,1.042028091E1,1.324745178E-1,1.129740922E1
7.116541500E0,2.540666656E0,1.039139099E1,9.954299927E-2,1.069793918E1
7.126620500E0,1.687740326E0,1.045979874E1,4.146377563E-1,1.060319676E1
7.136700500E0,7.547305298E-1,1.059272232E1,5.804928589E-1,1.063542930E1
7.146779500E0,7.828720093E-2,1.071591614E1,6.075865173E-1,1.073341273E1
7.156858500E0,-6.587800598E-1,1.094823303E1,6.110293579E-1,1.098504231E1
7.166937500E0,-1.182540894E0,1.134835098E1,5.798941040E-1,1.142452407E1
7.177016500E0,-1.708846436E0,1.189770859E1,5.915698242E-1,1.203435003E1
7.187095500E0,-2.110161896E0,1.253598129E1,6.227050781E-1,1.272758311E1
7.197174500E0,-2.084116058E0,1.302426590E1,6.337820435E-1,1.320517783E1
7.207253500E0,-1.063089294E0,1.313473618E1,4.930746460E-1,1.318690926E1
7.217333500E0,-3.376977539E-1,1.302980438E1,1.907034302E-1,1.303557478E1
7.227412500E0,4.129911804E-1,1.330882416E1,3.501219177E-1,1.331983286E1
7.237491500E0,1.307980042E0,1.400622391E1,8.687933350E-1,1.409396757E1
7.247570500E0,1.916764069E0,1.460587692E1,1.387913818E0,1.479634853E1
7.257649500E0,1.872905273E0,1.465108292E1,1.584006042E0,1.485500185E1
7.267728500E0,1.191522217E0,1.414498535E1,1.103355560E0,1.423789764E1
7.277807500E0,4.704716492E-1,1.337573502E1,3.180885315E-1,1.338778589E1
7.287886500E0,-4.745132446E-2,1.257400223E1,-4.656816101E-1,1.258271207E1
7.297966500E0,-4.613406372E-1,1.172002808E1,-1.111289062E0,1.178163217E1
7.308045500E0,-6.262976074E-1,1.071621552E1,-1.378932495E0,1.082270662E1
7.318124500E0,-4.147874451E-1,9.602381744E0,-1.460812225E0,9.721715700E0
7.328203500E0,1.502874756E-1,8.500972137E0,-1.510658569E0,8.635461940E0
7.338282500E0,7.394622803E-1,7.593110046E0,-1.411265259E0,7.758465974E0
7.348361500E0,1.258582764E0,6.716532898E0,-1.214723969E0,6.940561869E0
7.358440500E0,1.611399078E0,5.838159485E0,-9.952803040E-1,6.137694685E0
7.368519500E0,1.722468109E0,4.980443115E0,-7.914042664E-1,5.328980271E0
7.378598500E0,1.513502655E0,4.387226715E0,-6.626719666E-1,4.688025456E0
7.388678500E0,1.135838013E0,4.118385773E0,-5.813909912E-1,4.311524655E0
7.398757500E0,9.551637268E-1,4.118984528E0,-4.589456177E-1,4.253116782E0
7.408836500E0,1.038390656E0,4.427193604E0,-3.746708679E-1,4.562748800E0
7.418915500E0,1.202000427E0,4.813240814E0,-2.574645996E-1,4.967733908E0
7.428994500E0,1.379381561E0,5.355113983E0,-3.079096985E-1,5.538478821E0
7.439073500E0,1.330882416E0,5.943690033E0,-4.095483398E-1,6.104623580E0
7.449152500E0,1.213526459E0,6.608307953E0,-3.658392334E-1,6.728760570E0
7.459231500E0,9.705816650E-1,7.323670349E0,-2.742297363E-1,7.392792307E0
7.469311500E0,6.457571411E-1,8.139024811E0,-2.254312134E-1,8.167713657E0
7.479390500E0,3.110531616E-1,9.098230133E0,-2.748284912E-1,9.107693249E0
7.489469500E0,-4.864883423E-2,1.009066635E1,-2.939886475E-1,1.009506530E1
7.499548500E0,-4.993615723E-1,1.099179245E1,-1.989363098E-1,1.100492794E1
7.509627500E0,-1.092877350E0,1.168305496E1,-1.627116394E-1,1.173518765E1
7.519706500E0,-1.525178375E0,1.182406174E1,-3.647914124E-1,1.192760151E1
7.529785500E0,-1.472038879E0,1.146675476E1,-8.152047729E-1,1.158956091E1
7.539864500E0,-1.157542877E0,1.109088638E1,-1.113384705E0,1.120657360E1
7.549944500E0,-8.946894836E-1,1.094464050E1,-1.028361511E0,1.102919546E1
7.560023500E0,-6.563850403E-1,1.111917755E1,-6.048921204E-1,1.115494712E1
7.570102500E0,6.616241455E-2,1.145717468E1,-2.498304749E-1,1.146008920E1
7.580181500E0,4.264631653E-1,1.141331589E1,-1.095721436E-1,1.142180618E1
7.590260500E0,3.362008667E-1,1.079016174E1,-8.202941895E-2,1.079570981E1
7.600339500E0,5.647755432E-1,1.037552399E1,-1.109193420E-1,1.039147595E1
7.610418500E0,5.906716919E-1,1.018377274E1,-4.086502075E-2,1.020097006E1
7.620497500E0,6.161187744E-1,1.019904099E1,1.447489929E-1,1.021865899E1
7.630577500E0,4.864883423E-1,1.027328659E1,4.336482239E-1,1.029393700E1
7.640656500E0,3.315605164E-1,1.032388138E1,8.222401428E-1,1.036187907E1
7.650735500E0,5.989045715E-1,1.021191422E1,9.434880066E-1,1.027287926E1
7.660814500E0,7.216493225E-1,1.008168503E1,9.375004578E-1,1.015086488E1
7.670893500E0,9.372010803E-1,9.923014984E0,8.698411560E-1,1.000505851E1
7.680972500E0,1.155896301E0,9.618997192E0,7.517367554E-1,9.717320176E0
7.691051500E0,1.364562378E0,9.193132782E0,6.128256226E-1,9.314036508E0
7.701129000E0,1.501677246E0,9.036259003E0,4.981640625E-1,9.173722186E0
7.711209000E0,1.208137665E0,9.992769928E0,7.232958984E-1,1.009149168E1
7.721288000E0,8.045768738E-1,1.249137405E1,1.516197052E0,1.260875185E1
7.731367000E0,9.407936096E-1,1.578961533E1,2.438279572E0,1.600444476E1
7.741446000E0,1.439556427E0,1.819750809E1,3.067870331E0,1.851036066E1
7.751525000E0,2.181563416E0,1.828238159E1,1.799557800E0,1.849981362E1
7.761604000E0,3.148402863E0,1.658311523E1,-5.754034424E-1,1.688914564E1
7.771683000E0,3.912863159E0,1.387659348E1,-1.746717682E0,1.452313214E1
7.781762000E0,4.187392273E0,1.140882523E1,-1.645977173E0,1.226396298E1
7.791842000E0,3.380570068E0,1.023287064E1,-1.074765015E0,1.083028233E1
7.801921000E0,2.531086578E0,9.810149689E0,-4.152365112E-1,1.013991408E1
7.812000000E0,2.296674042E0,9.838291168E0,4.954696655E-2,1.010292728E1
7.822079000E0,2.093845825E0,9.733808441E0,-6.735992432E-2,9.956693953E0
7.832158000E0,1.900447998E0,9.188941498E0,-6.072871399E-1,9.403039196E0
7.842237000E0,1.593586121E0,8.430618439E0,-1.036145325E0,8.642247458E0
7.852316000E0,1.336121521E0,7.658524017E0,-1.183139648E0,7.863716060E0
7.862395000E0,1.156345367E0,6.913672943E0,-1.155297546E0,7.104274811E0
7.872475000E0,9.078620911E-1,6.238876190E0,-9.139993286E-1,6.370493267E0
7.882554000E0,5.995033264E-1,5.663173370E0,-5.629792786E-1,5.722576564E0
7.892633000E0,1.194515991E-1,5.357808380E0,-2.266287231E-1,5.363929520E0
7.902712000E0,-3.767665100E-1,5.238506470E0,-1.137634277E-2,5.252050310E0
7.912791000E0,-5.602848816E-1,5.087919617E0,1.143621826E-1,5.119953504E0
7.922870000E0,-4.001179504E-1,5.048401794E0,1.889071655E-1,5.067755023E0
7.932949000E0,8.217910767E-2,5.241949310E0,3.158432007E-1,5.252098905E0
7.943028000E0,5.111869812E-1,5.560636597E0,5.044509888E-1,5.606822834E0
7.953108000E0,7.179071045E-1,5.897286530E0,8.523275757E-1,6.001653215E0
7.963187000E0,1.009051666E0,6.214027863E0,1.111588440E0,6.392805050E0
7.973266000E0,1.483415222E0,6.534212036E0,1.132694550E0,6.795545938E0
7.983345000E0,1.993255005E0,6.931186523E0,1.038540344E0,7.286492859E0
7.993424000E0,2.386187897E0,7.260352020E0,8.285270691E-1,7.687201132E0
8.003503000E0,2.676284637E0,7.568710785E0,6.345304871E-1,8.052981519E0
8.013582000E0,2.897374878E0,7.864944763E0,5.554948425E-1,8.400042371E0
8.023661000E0,3.212020569E0,8.135881348E0,5.423222351E-1,8.763775148E0
8.033740000E0,3.497027893E0,8.427474976E0,4.552033997E-1,9.135575991E0
8.043820000E0,3.485501862E0,8.962312775E0,3.459306335E-1,9.622444674E0
8.053899000E0,3.503165131E0,9.732760620E0,4.185296631E-1,1.035248580E1
8.063978000E0,3.397933960E0,1.066592010E1,7.135661316E-1,1.121681700E1
8.074057000E0,3.234024811E0,1.175939621E1,1.209784241E0,1.225585140E1
8.084136000E0,2.908002777E0,1.271740402E1,1.525178375E0,1.313449711E1
8.094215000E0,2.295775909E0,1.306423279E1,1.529369659E0,1.335229332E1
8.104294000E0,1.647623749E0,1.265273849E1,1.247805176E0,1.282043186E1
8.114373000E0,1.234482880E0,1.184696411E1,9.803114319E-1,1.195138139E1
8.124453000E0,9.913883972E-1,1.110660370E1,8.478369141E-1,1.118294792E1
8.134532000E0,5.686674500E-1,1.057490936E1,6.635700989E-1,1.061095735E1
8.144611000E0,-1.272354126E-1,1.011880783E1,4.953199768E-1,1.013172259E1
8.154690000E0,-3.921844482E-1,9.718540192E0,3.670367432E-1,9.733372903E0
8.164769000E0,-6.635700989E-1,9.634714508E0,3.094065857E-1,9.662493538E0
8.174848000E0,-1.006506958E0,9.915081482E0,2.874023438E-1,9.970180397E0
8.184927000E0,-1.179996185E0,1.054227722E1,2.695893860E-1,1.061153516E1
8.195006000E0,-1.256487122E0,1.157707535E1,2.155517578E-1,1.164705525E1
8.205086000E0,-1.087937622E0,1.282428177E1,2.272274780E-1,1.287235190E1
8.215165000E0,-4.129911804E-1,1.410801224E1,4.004173279E-1,1.411973460E1
8.225244000E0,3.544628906E-1,1.558948151E1,8.419990540E-1,1.561622682E1
8.235323000E0,1.066382446E0,1.711121704E1,1.458716583E0,1.720635854E1
8.245402000E0,1.572480011E0,1.831965408E1,1.854194183E0,1.848027205E1
8.255481000E0,1.598825226E0,1.849329300E1,1.614392853E0,1.863234801E1
8.265560000E0,1.032852173E0,1.668849609E1,4.046086121E-1,1.672532193E1
8.275639000E0,4.837939453E-1,1.411310165E1,-6.673123169E-1,1.413714966E1
8.285719000E0,3.092568970E-1,1.202479431E1,-1.214125214E0,1.208988909E1
8.295798000E0,2.670446777E-1,1.056323364E1,-1.361718292E0,1.065398961E1
8.305877000E0,3.796105957E-1,9.216933289E0,-1.046174469E0,9.283880895E0
8.315956000E0,8.716374207E-1,7.873027954E0,-7.442523193E-1,7.956018632E0
8.326035000E0,1.458866272E0,6.728208618E0,-6.117778015E-1,6.911682435E0
8.336114000E0,1.908980255E0,5.770649872E0,-3.418890381E-1,6.087815181E0
8.346193000E0,2.299069061E0,5.059478760E0,-5.912704468E-2,5.557655970E0
8.356272000E0,2.507884827E0,4.533173218E0,5.837860107E-2,5.180980003E0
8.366352000E0,2.435884552E0,4.093537445E0,8.083190918E-3,4.763470132E0
8.376431000E0,2.160157928E0,3.724255371E0,-1.399589539E-1,4.307661646E0
8.386510000E0,1.695973206E0,3.552412720E0,-2.357597351E-1,3.943544586E0
8.396589000E0,1.262175293E0,3.722309418E0,-3.463796997E-1,3.945713214E0
8.406668000E0,1.242266693E0,4.186793518E0,-5.894741821E-1,4.406806816E0
8.416747000E0,1.585652618E0,5.040767670E0,-8.581654358E-1,5.353511076E0
8.426826000E0,1.789229279E0,6.097869415E0,-9.315129089E-1,6.422855215E0
8.436905000E0,1.754351807E0,7.189549255E0,-7.988887024E-1,7.443493260E0
8.446985000E0,1.852098541E0,8.295449524E0,-8.711883545E-1,8.544221495E0
8.457064000E0,1.681902466E0,9.168733521E0,-1.015039215E0,9.376821150E0
8.467143000E0,1.033899994E0,9.513915710E0,-1.081201630E0,9.630811924E0
8.477222000E0,3.152444458E-1,9.385782166E0,-9.786648560E-1,9.441931520E0
8.487301000E0,-4.837939453E-1,8.919052734E0,-8.358618164E-1,8.971188507E0
8.497380000E0,-1.159039764E0,8.639434204E0,-6.908134460E-1,8.744164898E0
8.507459000E0,-1.242117004E0,8.612340546E0,-6.388714600E-1,8.724873699E0
8.517538000E0,-1.004710693E0,8.847052460E0,-6.245013428E-1,8.925793115E0
8.527618000E0,-8.135581970E-1,9.367220764E0,-6.014492798E-1,9.421700644E0
8.537697000E0,-7.300318909E-1,1.004111938E1,-6.355783081E-1,1.008766498E1
8.547776000E0,-7.204518127E-1,1.060993652E1,-5.580395508E-1,1.064900052E1
8.557855000E0,-6.527925110E-1,1.113848740E1,-3.927832031E-1,1.116451155E1
8.567934000E0,-5.017565918E-1,1.136616394E1,-1.640588379E-1,1.137841631E1
8.578013000E0,-3.251239014E-1,1.111363907E1,5.388793945E-3,1.111839503E1
8.588092000E0,-5.987548828E-2,1.081590820E1,1.139131165E-1,1.081667377E1
8.598171000E0,5.538482666E-1,1.049213150E1,2.035766602E-1,1.050871138E1
8.608250000E0,1.089584198E0,1.013392639E1,2.083666992E-1,1.019446293E1
8.618330000E0,1.548679504E0,9.889634399E0,1.972897339E-1,1.001210268E1
8.628409000E0,1.923500061E0,9.651329956E0,3.058140564E-1,9.845889733E0
8.638488000E0,2.200274506E0,9.717941437E0,4.490661621E-1,9.974028980E0
8.648567000E0,2.376907196E0,1.019754410E1,6.149212646E-1,1.048893329E1
8.658646000E0,2.505489807E0,1.099792969E1,8.105644226E-1,1.130879973E1
8.668725000E0,2.460283813E0,1.181433197E1,1.060095520E0,1.211425767E1
8.678804000E0,2.240091705E0,1.246457977E1,1.250200195E0,1.272583044E1
8.688883000E0,1.972298584E0,1.264794846E1,1.203946381E0,1.285729555E1
8.698963500E0,1.851649475E0,1.238554413E1,8.610095215E-1,1.255275454E1
8.709042500E0,1.667232971E0,1.187944656E1,4.839436340E-1,1.200562859E1
8.719121500E0,1.323847046E0,1.183633621E1,5.340893555E-1,1.192210876E1
8.729200500E0,1.239871674E0,1.274330017E1,1.021625519E0,1.284416987E1
8.739279500E0,1.418749695E0,1.412238235E1,1.394949188E0,1.426185182E1
8.749358500E0,1.769769745E0,1.497171616E1,1.204844513E0,1.512402129E1
8.759437500E0,1.881736908E0,1.478116241E1,4.694238281E-1,1.490785212E1
8.769516500E0,1.798659668E0,1.387644379E1,-6.448590088E-1,1.400738062E1
8.779596500E0,1.619182892E0,1.253867569E1,-1.566941528E0,1.273952303E1
8.789675500E0,1.398392029E0,1.103430405E1,-1.908980255E0,1.128519258E1
8.799754500E0,1.276695099E0,9.732012177E0,-1.851350098E0,9.988468780E0
8.809833500E0,9.674382019E-1,8.726403351E0,-1.690434723E0,8.941119710E0
8.819912500E0,7.403604126E-1,8.122708740E0,-1.475332031E0,8.288735454E0
8.829991500E0,5.641767883E-1,8.017327881E0,-1.179696808E0,8.123270669E0
8.840070500E0,4.938230896E-1,8.201445007E0,-8.482859802E-1,8.259972794E0
8.850149500E0,5.569917297E-1,8.504115601E0,-5.858816528E-1,8.542451595E0
8.860229500E0,6.614744568E-1,8.765023041E0,-4.017645264E-1,8.799124507E0
8.870308500E0,7.539820862E-1,9.032516785E0,-3.779640198E-1,9.071808268E0
8.880387500E0,7.545808411E-1,9.200467529E0,-2.613565063E-1,9.235058323E0
8.890466500E0,8.518785095E-1,9.131311340E0,-1.378633118E-1,9.171998151E0
8.900545500E0,7.602690125E-1,8.862171021E0,-1.407073975E-2,8.894733394E0
8.910624500E0,6.872209167E-1,8.337811432E0,1.145118713E-1,8.366868293E0
8.920703500E0,6.613247681E-1,7.839946747E0,1.534309387E-1,7.869285641E0
8.930782500E0,6.813830566E-1,7.463778992E0,1.688488770E-1,7.496718592E0
8.940862500E0,6.994953918E-1,7.164850616E0,1.701960754E-1,7.200926667E0
8.950941500E0,7.328759766E-1,7.041357422E0,5.763015747E-2,7.079628717E0
8.961020500E0,9.232800293E-1,7.131020966E0,-1.977388000E-1,7.193261198E0
8.971099500E0,1.291214905E0,7.355104980E0,-4.155358887E-1,7.479135998E0
8.981178500E0,1.606459351E0,7.583529968E0,-4.736151123E-1,7.766269999E0
8.991257500E0,1.903741150E0,7.866291962E0,-4.264631653E-1,8.104606741E0
9.001336500E0,2.201322327E0,8.215366058E0,-3.610491943E-1,8.512838303E0
9.011415500E0,2.318827972E0,8.507558441E0,-2.832110596E-1,8.822455571E0
9.021495500E0,2.195185089E0,8.749455414E0,-1.158590698E-1,9.021376333E0
9.031574500E0,1.962119751E0,8.916807404E0,1.034349060E-1,9.130721054E0
9.041653500E0,1.637295227E0,9.163045349E0,2.957849121E-1,9.312874124E0
9.051732500E0,1.373693390E0,9.567653961E0,4.200265503E-1,9.674888018E0
9.061811500E0,1.290466461E0,1.006027954E1,3.749702454E-1,1.014963698E1
9.071890500E0,1.453477478E0,1.044797333E1,3.049159241E-1,1.055299565E1
9.081969500E0,1.829196167E0,1.079195801E1,3.606001282E-1,1.095181942E1
9.092048500E0,2.233655090E0,1.123548569E1,5.393284607E-1,1.146805253E1
9.102128500E0,2.648592224E0,1.157767410E1,6.462062073E-1,1.189433314E1
9.112207500E0,2.822680206E0,1.149429749E1,5.352868652E-1,1.184790827E1
9.122286500E0,2.699636078E0,1.108684479E1,2.131567383E-1,1.141278222E1
9.132365500E0,2.259850616E0,1.069585785E1,6.990463257E-2,1.093220868E1
9.142444500E0,1.803599396E0,1.046608566E1,3.794609070E-1,1.062713087E1
9.152523500E0,1.328786774E0,1.029514114E1,4.936734009E-1,1.039227208E1
9.162602500E0,9.228309631E-1,1.010189301E1,3.677851868E-1,1.015062191E1
9.172681500E0,4.565505981E-1,9.914782104E0,1.565744019E-1,9.926522965E0
9.182760500E0,-1.811233521E-2,9.877210236E0,6.301895142E-2,9.877427878E0
9.192840500E0,-3.388952637E-1,1.006132736E1,1.193019104E-1,1.006774013E1
9.202919500E0,-5.498066711E-1,1.041189835E1,2.794688416E-1,1.043014944E1
9.212998500E0,-5.078938293E-1,1.091021210E1,4.927752686E-1,1.093313823E1
9.223077500E0,-5.014572144E-2,1.135388947E1,6.839277649E-1,1.137458033E1
9.233156500E0,5.520520020E-1,1.165266815E1,7.783813477E-1,1.169167712E1
9.243235500E0,1.031355286E0,1.180160843E1,8.050259399E-1,1.187390930E1
9.253314500E0,1.276395721E0,1.176867691E1,8.608598328E-1,1.186895201E1
9.263394500E0,1.316811676E0,1.166075134E1,8.836125183E-1,1.176808761E1
9.273473500E0,1.248403931E0,1.168275558E1,9.491761780E-1,1.178754537E1
9.283552500E0,1.043180695E0,1.194590836E1,1.228944397E0,1.205418005E1
9.293631500E0,9.071136475E-1,1.238539444E1,1.501078491E0,1.250896028E1
9.303710500E0,7.240443420E-1,1.275273056E1,1.549877014E0,1.286695363E1
9.313789500E0,4.754113770E-1,1.293190796E1,1.315314789E0,1.300731765E1
9.323868500E0,1.679507446E-1,1.304222855E1,9.234297180E-1,1.307595715E1
9.333947500E0,-1.657054138E-1,1.318622910E1,5.147795105E-1,1.319731389E1
9.344026500E0,-4.695735168E-1,1.348231339E1,3.794609070E-1,1.349582395E1
9.354106500E0,-5.896238708E-1,1.358395203E1,5.132826233E-1,1.360642745E1
9.364185500E0,-2.859054565E-2,1.297816177E1,4.067042542E-1,1.298456425E1
9.374264500E0,2.477348328E-1,1.186283112E1,-2.251318359E-1,1.186755320E1
9.384343500E0,3.212319946E-1,1.058808197E1,-7.972421265E-1,1.062291226E1
9.394422500E0,3.010240173E-1,9.428892517E0,-1.022373962E0,9.488934507E0
9.404501500E0,3.803590393E-1,8.552015991E0,-9.596543884E-1,8.614092353E0
9.414580500E0,4.059558105E-1,8.017477570E0,-7.207511902E-1,8.060039018E0
9.424659500E0,4.578977966E-1,7.893984375E0,-3.896397400E-1,7.916847784E0
9.434739500E0,4.596940613E-1,8.101602631E0,2.604583740E-2,8.114675730E0
9.444818500E0,5.486091614E-1,8.597371674E0,3.909869385E-1,8.623725558E0
9.454897500E0,7.563771057E-1,9.083560638E0,6.234535217E-1,9.136294352E0
9.464976500E0,9.274713135E-1,9.350605316E0,7.952961731E-1,9.430085833E0
9.475055500E0,1.196162567E0,9.523795166E0,8.228388977E-1,9.633822871E0
9.485134500E0,1.379082184E0,9.704319763E0,5.978567505E-1,9.820036784E0
9.495213500E0,1.372645569E0,9.859696655E0,2.971321106E-1,9.959219923E0
9.505292500E0,1.283131714E0,9.965526581E0,1.088237000E-1,1.004838244E1
9.515372500E0,1.245110779E0,1.020293289E1,-8.053253174E-2,1.027894090E1
9.525451500E0,1.021625519E0,1.054661819E1,-3.216810608E-1,1.060086566E1
9.535530500E0,7.982899475E-1,1.078058167E1,-8.250842285E-1,1.084153918E1
9.545609500E0,7.729925537E-1,1.067550018E1,-1.530118103E0,1.081226540E1
9.555688500E0,7.310797119E-1,1.048808990E1,-2.024539948E0,1.070669274E1
9.565767500E0,7.405101013E-1,1.038345749E1,-2.175126801E0,1.063464721E1
9.575846500E0,9.253756714E-1,1.028660889E1,-1.774709473E0,1.047951508E1
9.585925500E0,1.129551086E0,1.024424698E1,-1.011446686E0,1.035584406E1
9.596005500E0,1.185983734E0,1.020338196E1,-3.507206726E-1,1.027806236E1
9.606084500E0,1.250948639E0,1.018182678E1,-5.343887329E-2,1.025852450E1
9.616163500E0,1.308878174E0,1.017838394E1,5.568420410E-2,1.026234683E1
9.626242500E0,1.261875916E0,1.017344421E1,1.038839722E-1,1.025193103E1
9.636321500E0,1.246757355E0,1.003932312E1,7.334747314E-2,1.011670858E1
9.646400500E0,1.214125214E0,9.679022369E0,-1.841171265E-2,9.754891750E0
9.656479500E0,1.240320740E0,9.143136749E0,3.263214111E-2,9.226939363E0
9.666558500E0,1.281036072E0,8.648565216E0,2.279759216E-1,8.745896566E0
9.676638500E0,1.242117004E0,8.418493652E0,4.131408691E-1,8.519658174E0
9.686717500E0,1.134341125E0,8.382867737E0,5.897735596E-1,8.479801539E0
9.696796625E0,1.117875366E0,8.527616730E0,7.445516968E-1,8.632742881E0
9.706875625E0,1.119671631E0,8.757239227E0,7.828720093E-1,8.863170540E0
9.716954625E0,1.177900543E0,9.026529236E0,6.324348450E-1,9.125001565E0
9.727033625E0,1.229243774E0,9.273515625E0,3.709286499E-1,9.361982716E0
9.737112625E0,1.314865723E0,9.550589447E0,1.351689148E-1,9.641623374E0
9.747191625E0,1.365759888E0,9.837692413E0,-1.707948303E-1,9.933512116E0
9.757271625E0,1.350491638E0,1.007494904E1,-5.376818848E-1,1.017926950E1
9.767350625E0,1.415606232E0,1.029708710E1,-7.689509583E-1,1.042234279E1
9.777429625E0,1.400487671E0,1.051563263E1,-7.735913086E-1,1.063665073E1
9.787508625E0,1.407223663E0,1.071711365E1,-6.767427063E-1,1.083027165E1
9.797587625E0,1.408720551E0,1.074929672E1,-6.183641052E-1,1.085883271E1
9.807666625E0,1.188229065E0,1.065484314E1,-6.589297485E-1,1.074112466E1
9.817745625E0,8.924441528E-1,1.042072998E1,-5.560935974E-1,1.047364836E1
9.827824625E0,7.587721252E-1,1.006162674E1,-2.826123047E-1,1.009415363E1
9.837903625E0,7.568261719E-1,9.657616882E0,-9.759704590E-2,9.687717733E0
9.847983625E0,8.056246948E-1,9.267677765E0,5.837860107E-2,9.302810885E0
9.858062625E0,9.288185120E-1,8.948391724E0,1.124162292E-1,8.997169315E0
9.868141625E0,1.063987427E0,8.794960785E0,1.073268127E-1,8.859736085E0
9.878220625E0,1.164578247E0,8.753347321E0,1.089733887E-1,8.831149812E0
9.888299625E0,1.252445526E0,8.823701019E0,1.353186035E-1,8.913171747E0
9.898378625E0,1.321002960E0,9.067094879E0,9.909393311E-2,9.163355170E0
9.908457625E0,1.324146423E0,9.303153992E0,-2.230361938E-2,9.396942875E0
9.918536625E0,1.288071442E0,9.513616333E0,-2.463876343E-1,9.603579053E0
9.928616625E0,1.269659729E0,9.743687897E0,-4.409829712E-1,9.835952198E0
9.938695625E0,1.312620392E0,9.954599304E0,-5.644761658E-1,1.005662234E1
9.948774625E0,1.276096344E0,1.013138168E1,-6.378236389E-1,1.023133108E1
9.958853625E0,1.258283386E0,1.028047165E1,-6.857240295E-1,1.037986473E1
9.968932625E0,1.232836304E0,1.038181091E1,-6.752458191E-1,1.047653760E1
9.979011625E0,1.115330658E0,1.038046371E1,-5.975573730E-1,1.045729718E1
9.989090625E0,1.014290771E0,1.032403107E1,-4.709207153E-1,1.038441956E1
9.999169625E0,8.339158630E-1,1.028870453E1,-3.484753418E-1,1.032832472E1