Time (s),Acceleration x (m/s^2),Acceleration y (m/s^2),Acceleration z (m/s^2),Absolute acceleration (m/s^2),Action,Placement
0.00167,0.541,9.9,0.312,9.92,0.0,0.0
0.0118,0.901,9.6,0.274,9.65,0.0,0.0
0.0218,1.31,9.59,0.226,9.69,0.0,0.0
0.0319,1.12,9.78,0.122,9.85,0.0,0.0
0.042,0.677,9.54,0.0106,9.56,0.0,0.0
0.0521,1.12,9.42,-0.196,9.49,0.0,0.0
0.0621,1.54,9.32,-0.158,9.45,0.0,0.0
0.0722,1.54,9.25,-0.0277,9.38,0.0,0.0
0.0823,1.7,9.31,0.0409,9.46,0.0,0.0
0.0924,1.89,9.25,0.0695,9.44,0.0,0.0
0.102,1.91,9.03,0.136,9.23,0.0,0.0
0.113,1.86,8.79,0.174,8.98,0.0,0.0
0.123,1.87,8.6,0.235,8.8,0.0,0.0
0.133,2.04,8.49,0.289,8.74,0.0,0.0
0.143,2.28,8.39,0.292,8.7,0.0,0.0
0.153,2.51,8.26,0.243,8.64,0.0,0.0
0.163,2.56,8.06,0.256,8.46,0.0,0.0
0.173,2.4,7.92,0.37,8.29,0.0,0.0
0.183,2.33,7.97,0.56,8.32,0.0,0.0
0.193,2.24,8.28,0.846,8.62,0.0,0.0
0.203,2.23,8.91,1.26,9.27,0.0,0.0
0.213,2.1,9.76,1.79,10.1,0.0,0.0
0.223,1.96,10.7,2.34,11.2,0.0,0.0
0.233,1.82,11.7,2.97,12.2,0.0,0.0
0.244,1.64,12.5,3.51,13.1,0.0,0.0
0.254,1.34,12.9,3.87,13.6,0.0,0.0
0.264,0.91,12.8,3.98,13.4,0.0,0.0
0.274,0.586,12.2,3.8,12.8,0.0,0.0
0.284,0.376,11.6,3.52,12.1,0.0,0.0
0.294,0.349,11.0,3.22,11.5,0.0,0.0
0.304,0.436,10.5,2.96,10.9,0.0,0.0
0.314,0.561,10.0,2.78,10.4,0.0,0.0
0.324,0.635,9.71,2.69,10.1,0.0,0.0
0.334,0.581,9.58,2.66,9.96,0.0,0.0
0.344,0.534,9.6,2.69,9.98,0.0,0.0
0.354,0.561,9.66,2.61,10.0,0.0,0.0
0.365,0.741,9.7,2.38,10.0,0.0,0.0
0.375,1.06,9.73,2.17,10.0,0.0,0.0
0.385,1.46,9.77,1.92,10.1,0.0,0.0
0.395,1.96,9.72,1.56,10.0,0.0,0.0
0.405,2.44,9.57,1.26,9.95,0.0,0.0
0.415,2.8,9.48,1.08,9.94,0.0,0.0
0.425,2.91,9.52,1.06,10.0,0.0,0.0
0.435,3.06,9.76,1.15,10.3,0.0,0.0
0.445,2.91,9.96,1.37,10.5,0.0,0.0
0.455,2.53,9.85,1.74,10.3,0.0,0.0
0.465,2.22,9.86,2.07,10.3,0.0,0.0
0.475,2.04,9.78,2.45,10.3,0.0,0.0
0.485,1.8,9.46,2.74,10.0,0.0,0.0
0.496,1.64,9.28,2.67,9.79,0.0,0.0
0.506,1.64,9.0,2.73,9.55,0.0,0.0
0.516,1.22,8.76,2.89,9.31,0.0,0.0
0.526,0.389,8.62,3.14,9.18,0.0,0.0
0.536,-0.254,8.68,3.28,9.28,0.0,0.0
0.546,-0.208,8.29,3.13,8.86,0.0,0.0
0.556,0.123,7.65,2.96,8.21,0.0,0.0
0.566,0.529,7.13,2.3,7.51,0.0,0.0
0.576,1.26,6.96,1.66,7.27,0.0,0.0
0.586,2.16,6.96,1.42,7.42,0.0,0.0
0.596,3.05,7.11,1.42,7.87,0.0,0.0
0.606,3.5,7.55,1.39,8.44,0.0,0.0
0.616,3.45,8.34,1.27,9.11,0.0,0.0
0.627,2.96,8.93,1.03,9.46,0.0,0.0
0.637,2.25,9.22,0.926,9.54,0.0,0.0
0.647,1.76,9.41,0.888,9.61,0.0,0.0
0.657,1.39,10.1,0.713,10.2,0.0,0.0
0.667,0.885,10.8,0.452,10.9,0.0,0.0
0.677,0.645,11.7,0.309,11.7,0.0,0.0
0.687,0.451,12.3,0.114,12.3,0.0,0.0
0.697,0.326,12.8,-0.305,12.8,0.0,0.0
0.707,0.244,13.0,-0.795,13.0,0.0,0.0
0.717,0.0927,13.3,-1.2,13.3,0.0,0.0
0.727,0.263,13.4,-1.28,13.4,0.0,0.0
0.737,0.665,13.2,-1.03,13.2,0.0,0.0
0.747,0.867,12.8,-0.759,12.9,0.0,0.0
0.758,1.13,12.5,-0.689,12.5,0.0,0.0
0.768,1.48,12.4,-0.673,12.5,0.0,0.0
0.778,1.6,12.3,-0.6,12.4,0.0,0.0
0.788,1.75,11.9,-0.559,12.1,0.0,0.0
0.798,1.65,11.5,-0.586,11.6,0.0,0.0
0.808,1.49,11.0,-0.631,11.1,0.0,0.0
0.818,1.48,10.5,-0.955,10.7,0.0,0.0
0.828,1.49,9.92,-1.29,10.1,0.0,0.0
0.838,1.62,9.35,-1.3,9.58,0.0,0.0
0.848,1.89,8.95,-1.25,9.23,0.0,0.0
0.858,2.01,8.62,-1.23,8.94,0.0,0.0
0.868,2.14,8.44,-1.13,8.78,0.0,0.0
0.879,2.19,8.35,-0.883,8.68,0.0,0.0
0.889,2.04,8.16,-0.54,8.43,0.0,0.0
0.899,1.89,7.92,-0.0928,8.14,0.0,0.0
0.909,1.77,7.74,0.348,7.95,0.0,0.0
0.919,1.67,7.91,0.702,8.11,0.0,0.0
0.929,1.57,8.08,0.776,8.27,0.0,0.0
0.939,1.41,8.26,0.635,8.4,0.0,0.0
0.949,1.36,8.18,0.639,8.32,0.0,0.0
0.959,1.41,8.07,0.884,8.24,0.0,0.0
0.969,1.62,8.12,1.03,8.35,0.0,0.0
0.979,1.8,8.08,0.86,8.32,0.0,0.0
0.989,1.89,8.15,0.553,8.38,0.0,0.0
0.999,1.75,8.24,0.27,8.43,0.0,0.0
1.01,1.46,8.15,0.208,8.29,0.0,0.0
1.02,1.41,8.03,0.447,8.17,0.0,0.0
1.03,1.33,8.16,0.762,8.3,0.0,0.0
1.04,1.06,8.42,1.07,8.55,0.0,0.0
1.05,0.557,8.72,1.43,8.85,0.0,0.0
1.06,0.302,8.98,1.77,9.16,0.0,0.0
1.07,0.0575,9.28,2.13,9.52,0.0,0.0
1.08,-0.277,9.58,2.25,9.84,0.0,0.0
1.09,-0.432,9.72,2.1,9.95,0.0,0.0
1.1,-0.444,9.63,1.88,9.82,0.0,0.0
1.11,-0.351,9.45,1.71,9.61,0.0,0.0
1.12,-0.335,9.25,1.6,9.39,0.0,0.0
1.13,-0.398,9.25,1.34,9.35,0.0,0.0
1.14,-0.502,9.72,1.35,9.83,0.0,0.0
1.15,-0.667,10.1,1.71,10.3,0.0,0.0
1.16,-0.576,10.5,1.9,10.6,0.0,0.0
1.17,-0.324,10.7,1.82,10.8,0.0,0.0
1.18,0.29,10.8,1.52,10.9,0.0,0.0
1.19,0.57,10.4,0.984,10.4,0.0,0.0
1.2,1.02,10.1,0.45,10.1,0.0,0.0
1.21,1.59,9.83,0.0906,9.96,0.0,0.0
1.22,1.99,9.79,-0.0365,9.99,0.0,0.0
1.23,2.31,10.1,-0.00494,10.4,0.0,0.0
1.24,2.57,10.9,0.108,11.2,0.0,0.0
1.25,2.69,11.7,0.219,12.0,0.0,0.0
1.26,2.66,12.4,0.299,12.7,0.0,0.0
1.27,2.58,13.1,0.255,13.4,0.0,0.0
1.28,2.83,13.9,0.245,14.2,0.0,0.0
1.29,3.28,14.7,0.144,15.1,0.0,0.0
1.3,3.7,15.0,-0.276,15.4,0.0,0.0
1.31,3.72,14.6,-1.27,15.1,0.0,0.0
1.32,2.98,13.8,-2.51,14.4,0.0,0.0
1.33,3.04,12.7,-3.46,13.5,0.0,0.0
1.34,3.38,11.4,-4.24,12.7,0.0,0.0
1.35,3.3,10.2,-5.04,11.9,0.0,0.0
1.36,2.8,9.02,-5.22,10.8,0.0,0.0
1.37,1.9,8.17,-4.54,9.54,0.0,0.0
1.38,1.49,7.78,-3.55,8.68,0.0,0.0
1.39,1.43,7.59,-2.98,8.28,0.0,0.0
1.4,1.47,7.38,-2.44,7.91,0.0,0.0
1.41,1.72,7.28,-1.7,7.67,0.0,0.0
1.42,1.84,7.88,-0.993,8.15,0.0,0.0
1.43,1.89,9.02,-0.41,9.22,0.0,0.0
1.44,1.49,9.55,0.288,9.67,0.0,0.0
1.45,0.85,9.27,1.07,9.37,0.0,0.0
1.46,0.0882,8.35,2.06,8.6,0.0,0.0
1.47,-0.197,7.57,2.94,8.13,0.0,0.0
1.48,0.352,7.48,3.19,8.14,0.0,0.0
1.49,0.325,7.9,2.96,8.44,0.0,0.0
1.5,-0.428,8.35,2.36,8.69,0.0,0.0
1.51,-0.707,8.39,1.96,8.64,0.0,0.0
1.52,-0.927,8.88,2.02,9.15,0.0,0.0
1.53,1.17,8.21,1.9,8.51,0.0,0.0
1.54,2.54,7.65,1.63,8.23,0.0,0.0
1.55,3.18,7.52,1.28,8.27,0.0,0.0
1.56,3.93,7.82,0.817,8.79,0.0,0.0
1.57,4.18,7.93,0.496,8.98,0.0,0.0
1.58,4.99,7.9,0.294,9.35,0.0,0.0
1.59,5.7,8.21,0.478,10.0,0.0,0.0
1.6,5.0,8.27,0.731,9.69,0.0,0.0
1.61,4.44,8.0,0.968,9.2,0.0,0.0
1.62,4.02,8.15,1.28,9.18,0.0,0.0
1.63,3.58,8.06,1.34,8.92,0.0,0.0
1.64,3.1,7.94,1.21,8.61,0.0,0.0
1.65,2.57,8.29,1.18,8.76,0.0,0.0
1.66,1.87,8.79,1.3,9.08,0.0,0.0
1.67,1.09,8.91,1.48,9.1,0.0,0.0
1.68,0.52,8.95,1.38,9.07,0.0,0.0
1.69,-0.185,9.11,1.05,9.18,0.0,0.0
1.7,-0.651,9.37,0.745,9.42,0.0,0.0
1.72,-0.845,9.85,0.486,9.9,0.0,0.0
1.73,-0.946,10.6,0.449,10.7,0.0,0.0
1.74,-1.01,11.7,0.676,11.8,0.0,0.0
1.75,-1.09,13.0,0.901,13.0,0.0,0.0
1.76,-1.42,14.3,1.15,14.4,0.0,0.0
1.77,-1.72,15.3,1.15,15.4,0.0,0.0
1.78,-1.89,16.1,0.782,16.3,0.0,0.0
1.79,-2.1,16.8,0.181,16.9,0.0,0.0
1.8,-2.09,16.9,-0.403,17.0,0.0,0.0
1.81,-1.29,16.0,-0.708,16.1,0.0,0.0
1.82,-0.966,14.7,-0.75,14.8,0.0,0.0
1.83,-0.795,13.4,-0.744,13.4,0.0,0.0
1.84,-0.653,12.3,-0.767,12.3,0.0,0.0
1.85,-0.476,11.4,-0.903,11.5,0.0,0.0
1.86,-0.534,10.5,-1.08,10.6,0.0,0.0
1.87,-0.499,9.71,-1.13,9.79,0.0,0.0
1.88,-0.104,9.21,-1.21,9.29,0.0,0.0
1.89,0.1,8.62,-1.22,8.7,0.0,0.0
1.9,0.357,8.04,-1.2,8.14,0.0,0.0
1.91,0.812,7.32,-1.21,7.46,0.0,0.0
1.92,1.37,6.57,-1.08,6.8,0.0,0.0
1.93,1.65,6.08,-0.742,6.35,0.0,0.0
1.94,1.63,5.85,-0.324,6.08,0.0,0.0
1.95,1.7,5.82,0.291,6.08,0.0,0.0
1.96,2.05,6.0,1.09,6.44,0.0,0.0
1.97,2.33,6.5,1.75,7.13,0.0,0.0
1.98,1.79,7.12,2.06,7.63,0.0,0.0
1.99,0.995,7.49,1.9,7.79,0.0,0.0
2.0,0.767,7.9,1.62,8.1,0.0,0.0
2.01,0.488,8.06,1.55,8.22,0.0,0.0
2.02,0.291,8.04,1.59,8.2,0.0,0.0
2.03,0.239,8.13,1.68,8.3,0.0,0.0
2.04,0.236,8.3,1.84,8.51,0.0,0.0
2.05,0.272,8.38,2.06,8.64,0.0,0.0
2.06,0.299,8.53,2.04,8.77,0.0,0.0
2.07,0.244,8.77,1.87,8.97,0.0,0.0
2.08,0.13,9.12,1.69,9.28,0.0,0.0
2.09,0.0352,9.47,1.46,9.58,0.0,0.0
2.1,-0.00165,9.69,1.36,9.78,0.0,0.0
2.11,0.163,9.74,1.4,9.84,0.0,0.0
2.12,0.201,9.86,1.44,9.96,0.0,0.0
2.13,0.18,10.0,1.6,10.2,0.0,0.0
2.14,0.268,10.3,1.9,10.4,0.0,0.0
2.15,0.131,10.4,2.24,10.6,0.0,0.0
2.16,-0.106,10.4,2.62,10.7,0.0,0.0
2.17,-0.189,10.3,2.83,10.7,0.0,0.0
2.18,-0.27,9.98,2.73,10.3,0.0,0.0
2.19,-0.27,9.82,2.45,10.1,0.0,0.0
2.2,-0.165,9.87,2.17,10.1,0.0,0.0
2.21,-0.102,9.92,1.96,10.1,0.0,0.0
2.22,-0.0569,9.85,1.63,9.98,0.0,0.0
2.23,-0.0257,10.0,1.15,10.1,0.0,0.0
2.24,0.0967,10.7,0.67,10.7,0.0,0.0
2.25,0.182,11.7,0.437,11.7,0.0,0.0
2.26,0.311,13.2,0.488,13.2,0.0,0.0
2.27,0.488,14.8,0.556,14.8,0.0,0.0
2.28,0.815,16.0,0.381,16.0,0.0,0.0
2.29,1.83,15.8,0.135,15.9,0.0,0.0
2.3,3.49,14.5,-0.335,14.9,0.0,0.0
2.31,4.52,13.8,-1.36,14.5,0.0,0.0
2.32,4.94,13.4,-3.74,14.8,0.0,0.0
2.33,5.22,13.0,-8.44,16.3,0.0,0.0
2.34,5.1,11.6,-11.3,17.0,0.0,0.0
2.35,4.03,10.7,-8.9,14.5,0.0,0.0
2.36,3.35,10.3,-6.91,12.9,0.0,0.0
2.37,2.31,9.63,-5.38,11.3,0.0,0.0
2.38,1.59,8.81,-3.81,9.73,0.0,0.0
2.39,1.31,8.3,-2.65,8.81,0.0,0.0
2.4,1.08,8.32,-1.84,8.59,0.0,0.0
2.41,0.663,8.14,-1.31,8.27,0.0,0.0
2.42,0.336,7.71,-0.935,7.78,0.0,0.0
2.43,0.0509,7.32,-0.383,7.33,0.0,0.0
2.44,-0.312,6.96,0.329,6.97,0.0,0.0
2.45,-0.738,6.58,1.35,6.76,0.0,0.0
2.46,-1.25,5.87,2.56,6.52,0.0,0.0
2.47,-0.43,5.63,3.38,6.58,0.0,0.0
2.48,-0.182,6.43,3.36,7.26,0.0,0.0
2.49,-0.412,7.08,2.89,7.66,0.0,0.0
2.5,-0.305,7.57,2.4,7.95,0.0,0.0
2.51,0.292,7.74,1.68,7.92,0.0,0.0
2.52,1.07,7.53,1.63,7.78,0.0,0.0
2.53,1.9,7.95,2.13,8.45,0.0,0.0
2.54,3.0,8.39,2.7,9.32,0.0,0.0
2.55,3.97,8.8,2.72,10.0,0.0,0.0
2.56,4.98,9.25,2.31,10.8,0.0,0.0
2.57,5.67,9.37,1.45,11.0,0.0,0.0
2.58,5.89,9.32,0.527,11.0,0.0,0.0
2.59,5.13,9.1,-0.172,10.4,0.0,0.0
2.6,4.32,8.94,-0.0835,9.93,0.0,0.0
2.61,3.69,8.92,0.388,9.66,0.0,0.0
2.62,3.18,8.95,0.776,9.53,0.0,0.0
2.63,3.03,8.91,1.1,9.47,0.0,0.0
2.64,2.9,8.83,1.17,9.36,0.0,0.0
2.65,2.71,8.76,1.12,9.24,0.0,0.0
2.66,2.44,8.47,1.07,8.88,0.0,0.0
2.67,2.12,7.9,0.929,8.24,0.0,0.0
2.68,1.7,7.59,0.731,7.81,0.0,0.0
2.69,1.17,7.7,0.592,7.81,0.0,0.0
2.7,0.655,8.29,0.466,8.33,0.0,0.0
2.71,0.374,9.26,0.374,9.28,0.0,0.0
2.72,0.098,10.5,0.463,10.5,0.0,0.0
2.73,-0.16,12.0,0.632,12.0,0.0,0.0
2.74,-0.384,13.4,0.835,13.4,0.0,0.0
2.75,-0.656,14.3,0.955,14.4,0.0,0.0
2.76,-0.638,15.2,1.04,15.2,0.0,0.0
2.77,-0.179,15.6,0.909,15.7,0.0,0.0
2.78,0.502,15.4,0.452,15.5,0.0,0.0
2.79,0.857,14.9,0.047,14.9,0.0,0.0
2.8,0.954,14.3,-0.299,14.4,0.0,0.0
2.81,0.893,13.8,-0.419,13.8,0.0,0.0
2.82,1.03,13.5,-0.43,13.5,0.0,0.0
2.83,1.19,13.0,-0.481,13.1,0.0,0.0
2.84,1.22,12.4,-0.74,12.5,0.0,0.0
2.85,1.16,11.7,-0.919,11.8,0.0,0.0
2.86,1.24,11.2,-0.941,11.3,0.0,0.0
2.87,1.3,10.6,-1.01,10.8,0.0,0.0
2.88,1.25,9.92,-0.987,10.0,0.0,0.0
2.89,1.27,8.99,-0.855,9.12,0.0,0.0
2.9,1.72,8.02,-1.01,8.27,0.0,0.0
2.91,1.89,7.32,-1.27,7.67,0.0,0.0
2.92,1.36,7.08,-1.09,7.29,0.0,0.0
2.93,1.05,6.98,-0.607,7.08,0.0,0.0
2.94,0.94,6.79,-0.276,6.86,0.0,0.0
2.95,0.705,6.84,-0.14,6.87,0.0,0.0
2.96,0.574,7.12,0.0187,7.15,0.0,0.0
2.97,0.547,7.44,0.309,7.46,0.0,0.0
2.98,0.809,7.71,0.676,7.79,0.0,0.0
3.0,1.33,7.84,0.884,8.0,0.0,0.0
3.01,1.49,7.8,0.889,7.99,0.0,0.0
3.02,1.47,8.02,0.617,8.18,0.0,0.0
3.03,1.18,8.46,0.192,8.55,0.0,0.0
3.04,0.903,8.71,0.0166,8.75,0.0,0.0
3.05,0.832,8.97,0.0516,9.01,0.0,0.0
3.06,0.737,8.8,0.172,8.83,0.0,0.0
3.07,0.642,8.64,0.307,8.67,0.0,0.0
3.08,0.783,8.64,0.248,8.68,0.0,0.0
3.09,0.864,8.6,0.178,8.65,0.0,0.0
3.1,0.587,8.45,0.391,8.47,0.0,0.0
3.11,0.437,8.24,0.834,8.3,0.0,0.0
3.12,0.363,8.1,1.31,8.22,0.0,0.0
3.13,0.363,7.98,1.74,8.18,0.0,0.0
3.14,0.354,7.99,2.07,8.26,0.0,0.0
3.15,0.523,8.07,2.26,8.39,0.0,0.0
3.16,0.425,8.05,2.23,8.36,0.0,0.0
3.17,0.125,8.18,2.15,8.46,0.0,0.0
3.18,0.25,8.41,2.07,8.66,0.0,0.0
3.19,0.532,8.62,1.92,8.85,0.0,0.0
3.2,0.872,8.86,1.53,9.03,0.0,0.0
3.21,1.11,8.75,0.881,8.86,0.0,0.0
3.22,1.3,8.45,0.313,8.56,0.0,0.0
3.23,1.53,8.21,-0.0257,8.35,0.0,0.0
3.24,1.63,8.35,-0.16,8.51,0.0,0.0
3.25,1.8,9.05,-0.0979,9.23,0.0,0.0
3.26,2.3,10.2,0.166,10.5,0.0,0.0
3.27,2.83,11.7,0.229,12.1,0.0,0.0
3.28,3.53,13.0,0.0481,13.5,0.0,0.0
3.29,4.17,14.0,-0.248,14.6,0.0,0.0
3.3,5.08,14.8,-0.957,15.7,0.0,0.0
3.31,6.33,15.5,-2.51,16.9,0.0,0.0
3.32,7.95,15.7,-4.2,18.1,0.0,0.0
3.33,9.18,16.3,-4.56,19.2,0.0,0.0
3.34,7.25,16.7,-3.56,18.6,0.0,0.0
3.35,5.17,16.5,-3.0,17.5,0.0,0.0
3.36,5.84,15.6,-3.07,17.0,0.0,0.0
3.37,5.05,14.4,-3.62,15.7,0.0,0.0
3.38,4.16,12.9,-4.44,14.3,0.0,0.0
3.39,3.31,11.3,-4.51,12.7,0.0,0.0
3.4,2.81,10.0,-3.63,11.0,0.0,0.0
3.41,2.6,9.04,-2.87,9.83,0.0,0.0
3.42,2.4,8.13,-2.53,8.84,0.0,0.0
3.43,1.95,7.45,-2.19,8.0,0.0,0.0
3.44,1.67,6.98,-1.54,7.34,0.0,0.0
3.45,1.34,6.94,-0.872,7.12,0.0,0.0
3.46,0.961,7.31,-0.323,7.38,0.0,0.0
3.47,0.574,7.59,0.322,7.62,0.0,0.0
3.48,0.25,7.39,1.39,7.52,0.0,0.0
3.49,0.225,7.18,2.67,7.67,0.0,0.0
3.5,0.198,7.04,3.83,8.02,0.0,0.0
3.51,0.417,6.88,4.41,8.18,0.0,0.0
3.52,0.986,6.81,4.1,8.01,0.0,0.0
3.53,1.55,6.87,3.4,7.82,0.0,0.0
3.54,2.0,6.83,2.8,7.65,0.0,0.0
3.55,2.17,6.82,2.45,7.56,0.0,0.0
3.56,2.21,6.85,2.34,7.57,0.0,0.0
3.57,2.25,7.16,2.06,7.78,0.0,0.0
3.58,2.4,7.52,1.48,8.03,0.0,0.0
3.59,3.03,7.54,1.3,8.23,0.0,0.0
3.6,3.46,7.73,1.65,8.63,0.0,0.0
3.61,3.76,7.47,2.18,8.64,0.0,0.0
3.62,3.82,7.13,2.63,8.5,0.0,0.0
3.63,3.74,7.35,2.72,8.69,0.0,0.0
3.64,3.92,7.51,2.73,8.9,0.0,0.0
3.65,4.5,7.58,2.76,9.24,0.0,0.0
3.66,5.11,7.86,2.6,9.73,0.0,0.0
3.67,5.76,7.94,2.12,10.0,0.0,0.0
3.68,6.1,7.85,1.76,10.1,0.0,0.0
3.69,5.34,7.57,1.62,9.4,0.0,0.0
3.7,4.47,7.34,1.65,8.76,0.0,0.0
3.71,3.73,7.34,1.59,8.38,0.0,0.0
3.72,3.02,7.5,1.55,8.23,0.0,0.0
3.73,2.68,7.84,1.51,8.42,0.0,0.0
3.74,2.4,8.32,1.37,8.77,0.0,0.0
3.75,2.16,8.73,1.29,9.08,0.0,0.0
3.76,1.97,9.08,1.36,9.39,0.0,0.0
3.77,1.82,9.45,1.46,9.73,0.0,0.0
3.78,1.94,9.98,1.6,10.3,0.0,0.0
3.79,2.19,10.5,1.61,10.8,0.0,0.0
3.8,2.4,10.9,1.52,11.3,0.0,0.0
3.81,2.57,11.5,1.37,11.9,0.0,0.0
3.82,2.72,12.4,1.33,12.8,0.0,0.0
3.83,2.93,13.7,1.49,14.1,0.0,0.0
3.84,3.18,15.4,1.89,15.8,0.0,0.0
3.85,3.44,17.1,2.08,17.6,0.0,0.0
3.86,3.48,17.7,1.05,18.1,0.0,0.0
3.87,3.23,17.0,-0.809,17.3,0.0,0.0
3.88,2.62,15.5,-2.61,15.9,0.0,0.0
3.89,1.8,13.7,-3.34,14.2,0.0,0.0
3.9,1.69,12.1,-3.09,12.6,0.0,0.0
3.91,1.59,10.6,-2.5,11.0,0.0,0.0
3.92,1.46,9.75,-2.08,10.1,0.0,0.0
3.93,1.46,8.98,-1.93,9.3,0.0,0.0
3.94,1.69,8.12,-1.62,8.45,0.0,0.0
3.95,2.18,7.38,-1.21,7.79,0.0,0.0
3.96,2.73,6.77,-0.765,7.34,0.0,0.0
3.97,3.2,6.32,-0.496,7.1,0.0,0.0
3.98,3.65,5.88,-0.27,6.93,0.0,0.0
3.99,3.9,5.6,-0.265,6.83,0.0,0.0
4.0,4.14,5.72,-0.166,7.07,0.0,0.0
4.01,4.44,5.77,0.251,7.29,0.0,0.0
4.02,4.68,5.81,0.563,7.48,0.0,0.0
4.03,5.05,6.2,0.528,8.01,0.0,0.0
4.04,4.4,7.15,0.284,8.4,0.0,0.0
4.05,2.69,8.24,0.178,8.67,0.0,0.0
4.06,2.18,8.95,0.511,9.23,0.0,0.0
4.07,1.91,9.0,1.23,9.28,0.0,0.0
4.08,2.16,8.81,1.81,9.25,0.0,0.0
4.09,2.1,8.62,1.74,9.04,0.0,0.0
4.1,1.88,8.42,1.3,8.73,0.0,0.0
4.11,1.69,8.36,0.935,8.58,0.0,0.0
4.12,1.54,8.45,0.853,8.63,0.0,0.0
4.13,1.44,8.56,0.906,8.72,0.0,0.0
4.14,1.6,8.67,0.982,8.87,0.0,0.0
4.15,1.77,8.71,1.06,8.95,0.0,0.0
4.16,1.85,8.9,1.12,9.16,0.0,0.0
4.17,1.57,9.0,1.21,9.22,0.0,0.0
4.18,1.26,9.02,1.28,9.2,0.0,0.0
4.19,0.982,9.11,1.37,9.27,0.0,0.0
4.2,0.817,9.28,1.49,9.44,0.0,0.0
4.21,0.411,9.48,1.75,9.64,0.0,0.0
4.22,0.243,9.95,2.06,10.2,0.0,0.0
4.23,0.531,10.6,2.27,10.8,0.0,0.0
4.24,1.21,10.8,2.17,11.1,0.0,0.0
4.25,1.79,10.4,1.61,10.7,0.0,0.0
4.26,2.38,9.74,0.989,10.1,0.0,0.0
4.28,2.98,9.42,0.432,9.89,0.0,0.0
4.29,3.35,9.75,0.116,10.3,0.0,0.0
4.3,3.66,10.7,0.299,11.3,0.0,0.0
4.31,3.8,11.7,0.768,12.3,0.0,0.0
4.32,3.76,12.6,1.21,13.2,0.0,0.0
4.33,3.95,13.2,1.3,13.9,0.0,0.0
4.34,4.53,13.8,0.933,14.5,0.0,0.0
4.35,4.97,14.6,0.386,15.4,0.0,0.0
4.36,5.77,15.4,-0.494,16.5,0.0,0.0
4.37,7.42,15.3,-1.91,17.1,0.0,0.0
4.38,8.31,15.6,-3.95,18.1,0.0,0.0
4.39,7.98,15.0,-5.41,17.9,0.0,0.0
4.4,6.47,13.7,-5.22,16.0,0.0,0.0
4.41,6.12,12.1,-4.56,14.3,0.0,0.0
4.42,5.65,10.1,-4.53,12.4,0.0,0.0
4.43,4.39,8.74,-4.57,10.8,0.0,0.0
4.44,3.25,7.93,-3.97,9.45,0.0,0.0
4.45,2.55,7.05,-3.01,8.08,0.0,0.0
4.46,2.13,6.32,-2.1,6.99,0.0,0.0
4.47,1.88,5.91,-1.61,6.41,0.0,0.0
4.48,1.53,6.19,-1.4,6.53,0.0,0.0
4.49,0.829,7.07,-1.13,7.2,0.0,0.0
4.5,0.494,6.91,-0.572,6.95,0.0,0.0
4.51,0.279,6.38,-0.0253,6.38,0.0,0.0
4.52,0.0518,6.07,0.691,6.11,0.0,0.0
4.53,-0.0481,5.78,1.82,6.06,0.0,0.0
4.54,-0.121,5.48,3.1,6.3,0.0,0.0
4.55,-0.306,5.27,4.14,6.71,0.0,0.0
4.56,0.00494,5.41,4.55,7.07,0.0,0.0
4.57,1.52,6.11,3.92,7.41,0.0,0.0
4.58,2.5,6.32,3.24,7.53,0.0,0.0
4.59,3.28,6.54,2.95,7.89,0.0,0.0
4.6,3.77,7.04,2.75,8.44,0.0,0.0
4.61,3.87,7.63,2.49,8.91,0.0,0.0
4.62,4.26,8.19,2.15,9.48,0.0,0.0
4.63,4.93,8.72,1.93,10.2,0.0,0.0
4.64,5.45,8.95,1.64,10.6,0.0,0.0
4.65,5.82,8.79,1.32,10.6,0.0,0.0
4.66,5.79,8.55,0.821,10.4,0.0,0.0
4.67,5.6,8.37,0.313,10.1,0.0,0.0
4.68,5.74,8.46,0.0485,10.2,0.0,0.0
4.69,6.03,8.76,0.0012,10.6,0.0,0.0
4.7,6.07,8.91,-0.00554,10.8,0.0,0.0
4.71,5.97,8.92,-0.0458,10.7,0.0,0.0
4.72,6.19,8.86,-0.094,10.8,0.0,0.0
4.73,5.68,8.66,-0.269,10.4,0.0,0.0
4.74,4.41,8.37,-0.232,9.47,0.0,0.0
4.75,3.37,8.4,-0.054,9.05,0.0,0.0
4.76,2.69,8.84,-0.0883,9.24,0.0,0.0
4.77,1.96,9.33,-0.263,9.54,0.0,0.0
4.78,1.5,9.8,-0.399,9.92,0.0,0.0
4.79,1.2,10.5,-0.428,10.5,0.0,0.0
4.8,1.2,11.6,-0.162,11.6,0.0,0.0
4.81,1.52,12.9,0.305,13.0,0.0,0.0
4.82,1.68,14.6,0.891,14.8,0.0,0.0
4.83,1.6,16.4,1.54,16.5,0.0,0.0
4.84,1.22,18.0,1.94,18.1,0.0,0.0
4.85,0.38,19.0,1.7,19.1,0.0,0.0
4.86,-0.718,19.1,0.683,19.1,0.0,0.0
4.87,-1.93,18.4,-0.672,18.5,0.0,0.0
4.88,-2.94,17.3,-1.62,17.6,0.0,0.0
4.89,-2.94,15.6,-2.09,16.0,0.0,0.0
4.9,-0.824,14.0,-2.26,14.2,0.0,0.0
4.91,0.356,12.9,-2.31,13.1,0.0,0.0
4.92,0.895,11.6,-2.38,11.8,0.0,0.0
4.93,1.32,10.4,-2.53,10.8,0.0,0.0
4.94,1.62,9.23,-2.54,9.71,0.0,0.0
4.95,1.99,7.81,-2.27,8.37,0.0,0.0
4.96,2.66,6.4,-1.88,7.18,0.0,0.0
4.97,2.99,5.76,-1.67,6.7,0.0,0.0
4.98,3.17,5.48,-1.36,6.47,0.0,0.0
4.99,3.58,5.34,-1.31,6.56,0.0,0.0
5.0,3.41,5.06,-1.15,6.21,0.0,0.0
5.01,3.08,4.57,-0.841,5.57,0.0,0.0
5.02,3.03,4.27,-0.447,5.26,0.0,0.0
5.03,3.22,4.15,0.0726,5.26,0.0,0.0
5.04,3.54,4.55,0.451,5.79,0.0,0.0
5.05,1.41,5.46,0.295,5.65,0.0,0.0
5.06,-0.0918,6.07,-0.271,6.08,0.0,0.0
5.07,-0.357,6.54,-0.776,6.6,0.0,0.0
5.08,-0.47,7.23,-0.77,7.28,0.0,0.0
5.09,-0.515,7.86,-0.347,7.88,0.0,0.0
5.1,-0.492,8.31,0.154,8.33,0.0,0.0
5.11,-0.209,8.65,0.503,8.66,0.0,0.0
5.12,0.654,8.87,0.59,8.91,0.0,0.0
5.13,1.19,9.01,0.641,9.11,0.0,0.0
5.14,1.47,9.05,0.525,9.18,0.0,0.0
5.15,1.72,8.99,0.304,9.16,0.0,0.0
5.16,1.71,8.57,0.156,8.74,0.0,0.0
5.17,1.36,8.07,0.0922,8.19,0.0,0.0
5.18,1.47,7.82,0.187,7.96,0.0,0.0
5.19,1.38,7.73,0.421,7.86,0.0,0.0
5.2,1.2,7.89,0.792,8.02,0.0,0.0
5.21,0.853,8.21,1.2,8.34,0.0,0.0
5.22,0.584,8.54,1.54,8.7,0.0,0.0
5.23,0.317,8.64,1.67,8.8,0.0,0.0
5.24,0.447,8.64,1.55,8.79,0.0,0.0
5.25,0.805,8.65,1.04,8.75,0.0,0.0
5.26,1.25,8.72,0.552,8.83,0.0,0.0
5.27,1.74,9.17,0.314,9.34,0.0,0.0
5.28,2.34,10.1,0.336,10.3,0.0,0.0
5.29,2.87,11.3,0.584,11.7,0.0,0.0
5.3,3.5,12.7,0.948,13.2,0.0,0.0
5.31,4.16,14.1,1.13,14.7,0.0,0.0
5.32,4.85,15.0,1.01,15.8,0.0,0.0
5.33,5.5,15.3,0.522,16.3,0.0,0.0
5.34,6.04,15.3,-0.388,16.5,0.0,0.0
5.35,6.92,15.0,-1.56,16.6,0.0,0.0
5.36,7.8,14.8,-2.82,17.0,0.0,0.0
5.37,8.67,15.1,-4.19,17.9,0.0,0.0
5.38,8.45,15.6,-5.24,18.5,0.0,0.0
5.39,5.91,15.4,-4.74,17.1,0.0,0.0
5.4,4.99,14.1,-3.41,15.3,0.0,0.0
5.41,4.08,12.0,-3.06,13.1,0.0,0.0
5.42,3.16,10.2,-3.51,11.2,0.0,0.0
5.43,2.56,8.9,-3.73,9.99,0.0,0.0
5.44,1.84,7.65,-3.39,8.57,0.0,0.0
5.45,1.21,6.54,-2.74,7.19,0.0,0.0
5.46,1.09,5.86,-2.03,6.3,0.0,0.0
5.47,0.934,5.76,-1.29,5.98,0.0,0.0
5.48,0.365,5.98,-0.841,6.05,0.0,0.0
5.49,-0.0832,6.38,-0.571,6.4,0.0,0.0
5.5,0.0313,7.05,-0.0597,7.05,0.0,0.0
5.51,0.275,7.63,0.659,7.66,0.0,0.0
5.52,0.0762,7.64,1.36,7.76,0.0,0.0
5.53,-0.135,7.41,2.13,7.71,0.0,0.0
5.54,0.305,7.25,2.72,7.75,0.0,0.0
5.56,1.55,7.52,2.57,8.1,0.0,0.0
5.57,2.27,7.71,1.93,8.27,0.0,0.0
5.58,2.57,7.86,1.53,8.41,0.0,0.0
5.59,2.61,8.14,1.47,8.68,0.0,0.0
5.6,2.57,8.53,1.63,9.06,0.0,0.0
5.61,2.54,8.52,1.8,9.07,0.0,0.0
5.62,2.7,8.2,1.76,8.82,0.0,0.0
5.63,3.05,7.7,1.39,8.4,0.0,0.0
5.64,3.58,7.18,0.526,8.04,0.0,0.0
5.65,4.26,6.66,-0.0904,7.9,0.0,0.0
5.66,4.38,6.7,0.0751,8.0,0.0,0.0
5.67,4.78,6.91,0.681,8.43,0.0,0.0
5.68,5.15,7.0,1.16,8.77,0.0,0.0
5.69,5.67,7.14,1.33,9.22,0.0,0.0
5.7,6.04,7.38,1.31,9.62,0.0,0.0
5.71,6.1,7.41,1.3,9.68,0.0,0.0
5.72,6.1,7.3,1.24,9.59,0.0,0.0
5.73,6.1,7.43,1.0,9.67,0.0,0.0
5.74,5.33,8.13,0.764,9.75,0.0,0.0
5.75,4.54,8.82,0.666,9.94,0.0,0.0
5.76,4.39,9.73,0.447,10.7,0.0,0.0
5.77,4.43,10.6,0.23,11.5,0.0,0.0
5.78,4.69,10.9,0.073,11.9,0.0,0.0
5.79,4.9,10.6,-0.179,11.6,0.0,0.0
5.8,4.94,9.83,-0.608,11.0,0.0,0.0
5.81,4.52,9.26,-1.04,10.4,0.0,0.0
5.82,3.89,8.9,-1.27,9.8,0.0,0.0
5.83,3.28,8.76,-1.2,9.43,0.0,0.0
5.84,2.67,8.63,-1.05,9.1,0.0,0.0
5.85,2.41,8.82,-1.05,9.2,0.0,0.0
5.86,2.18,9.33,-1.14,9.65,0.0,0.0
5.87,2.16,10.1,-1.24,10.4,0.0,0.0
5.88,2.46,11.1,-1.22,11.5,0.0,0.0
5.89,2.96,12.5,-1.24,12.9,0.0,0.0
5.9,3.61,14.1,-1.35,14.6,0.0,0.0
5.91,4.13,15.4,-1.42,16.0,0.0,0.0
5.92,4.27,16.2,-1.66,16.8,0.0,0.0
5.93,4.02,16.1,-2.15,16.7,0.0,0.0
5.94,3.74,14.8,-2.92,15.6,0.0,0.0
5.95,3.27,13.2,-3.61,14.1,0.0,0.0
5.96,2.5,11.9,-4.35,12.9,0.0,0.0
5.97,2.11,10.5,-4.77,11.7,0.0,0.0
5.98,2.18,9.52,-4.58,10.8,0.0,0.0
5.99,2.52,8.87,-3.85,9.99,0.0,0.0
6.0,2.52,8.46,-3.05,9.34,0.0,0.0
6.01,2.36,8.1,-2.37,8.76,0.0,0.0
6.02,2.08,7.74,-1.91,8.24,0.0,0.0
6.03,1.7,7.46,-1.52,7.8,0.0,0.0
6.04,1.66,7.39,-1.03,7.65,0.0,0.0
6.05,1.88,7.52,-0.492,7.77,0.0,0.0
6.06,1.86,7.86,0.0355,8.07,0.0,0.0
6.07,1.88,7.91,0.406,8.14,0.0,0.0
6.08,1.93,7.87,0.566,8.13,0.0,0.0
6.09,1.94,7.96,0.517,8.21,0.0,0.0
6.1,2.28,7.71,0.262,8.04,0.0,0.0
6.11,2.85,7.71,-0.176,8.22,0.0,0.0
6.12,3.33,7.72,-0.583,8.43,0.0,0.0
6.13,3.52,7.81,-0.97,8.62,0.0,0.0
6.14,3.6,7.56,-1.24,8.47,0.0,0.0
6.15,4.22,7.81,-1.17,8.95,0.0,0.0
6.16,4.57,8.46,-1.02,9.67,0.0,0.0
6.17,4.05,8.65,-0.838,9.58,0.0,0.0
6.18,3.42,8.75,-0.59,9.41,0.0,0.0
6.19,3.28,8.87,-0.402,9.46,0.0,0.0
6.2,3.18,9.01,-0.248,9.55,0.0,0.0
6.21,2.69,9.12,-0.11,9.51,0.0,0.0
6.22,2.3,9.21,0.139,9.5,0.0,0.0
6.23,1.97,9.15,0.4,9.37,0.0,0.0
6.24,1.58,8.86,0.544,9.02,0.0,0.0
6.25,1.19,8.52,0.824,8.64,0.0,0.0
6.26,0.76,8.37,1.11,8.48,0.0,0.0
6.27,0.482,8.43,1.45,8.56,0.0,0.0
6.28,0.531,8.84,1.87,9.05,0.0,0.0
6.29,0.626,9.44,2.2,9.71,0.0,0.0
6.3,0.643,9.72,2.39,10.0,0.0,0.0
6.31,0.92,9.34,2.27,9.65,0.0,0.0
6.32,1.52,8.49,1.75,8.8,0.0,0.0
6.33,2.11,7.83,1.22,8.21,0.0,0.0
6.34,2.76,7.82,1.07,8.36,0.0,0.0
6.35,3.32,8.33,1.26,9.05,0.0,0.0
6.36,3.82,9.22,1.55,10.1,0.0,0.0
6.37,4.25,10.4,1.67,11.3,0.0,0.0
6.38,4.61,11.6,1.53,12.6,0.0,0.0
6.39,4.98,12.6,1.26,13.6,0.0,0.0
6.4,5.13,13.4,0.954,14.3,0.0,0.0
6.41,5.47,14.1,0.533,15.2,0.0,0.0
6.42,6.68,14.8,-0.259,16.2,0.0,0.0
6.43,8.43,15.6,-1.87,17.8,0.0,0.0
6.44,9.33,15.6,-3.54,18.5,0.0,0.0
6.45,9.18,13.4,-4.68,16.9,0.0,0.0
6.46,9.18,11.9,-5.94,16.2,0.0,0.0
6.47,8.99,11.0,-6.35,15.5,0.0,0.0
6.48,6.13,10.2,-5.83,13.2,0.0,0.0
6.49,3.37,9.26,-5.0,11.1,0.0,0.0
6.5,2.82,7.95,-3.95,9.31,0.0,0.0
6.51,2.61,7.25,-2.91,8.24,0.0,0.0
6.52,2.28,6.77,-2.06,7.43,0.0,0.0
6.53,1.76,6.0,-1.42,6.41,0.0,0.0
6.54,1.64,5.85,-1.18,6.19,0.0,0.0
6.55,1.89,6.4,-0.901,6.73,0.0,0.0
6.56,1.53,6.86,-0.195,7.03,0.0,0.0
6.57,1.23,6.79,0.726,6.93,0.0,0.0
6.58,0.786,6.62,1.45,6.82,0.0,0.0
6.59,0.169,6.75,1.89,7.01,0.0,0.0
6.6,-0.513,7.15,2.35,7.54,0.0,0.0
6.61,-1.1,7.66,2.75,8.21,0.0,0.0
6.62,-0.644,8.05,3.09,8.65,0.0,0.0
6.63,1.35,7.98,3.28,8.74,0.0,0.0
6.64,2.19,8.2,3.24,9.09,0.0,0.0
6.65,2.69,8.31,3.13,9.28,0.0,0.0
6.66,3.41,8.37,2.94,9.5,0.0,0.0
6.67,4.16,8.37,2.75,9.74,0.0,0.0
6.68,4.76,8.43,2.45,9.99,0.0,0.0
6.69,5.12,8.36,2.1,10.0,0.0,0.0
6.7,5.48,7.98,1.56,9.8,0.0,0.0
6.71,5.96,7.37,0.932,9.53,0.0,0.0
6.72,6.42,6.83,0.442,9.38,0.0,0.0
6.73,6.64,6.45,0.133,9.26,0.0,0.0
6.74,6.96,6.23,-0.0248,9.34,0.0,0.0
6.75,7.46,6.27,-0.18,9.74,0.0,0.0
6.76,8.07,6.44,-0.41,10.3,0.0,0.0
6.77,8.7,6.72,-0.715,11.0,0.0,0.0
6.78,9.32,7.19,-0.942,11.8,0.0,0.0
6.79,9.99,7.8,-1.17,12.7,0.0,0.0
6.8,10.5,8.57,-1.43,13.7,0.0,0.0
6.81,9.86,9.19,-1.66,13.6,0.0,0.0
6.82,6.84,9.23,-1.75,11.6,0.0,0.0
6.84,5.67,9.17,-1.72,10.9,0.0,0.0
6.85,4.9,9.55,-1.66,10.9,0.0,0.0
6.86,4.2,10.1,-1.63,11.0,0.0,0.0
6.87,3.58,10.5,-1.68,11.2,0.0,0.0
6.88,3.2,10.9,-1.78,11.5,0.0,0.0
6.89,3.01,11.3,-1.8,11.9,0.0,0.0
6.9,3.0,12.0,-1.85,12.5,0.0,0.0
6.91,2.76,12.7,-1.91,13.1,0.0,0.0
6.92,2.47,13.2,-2.02,13.5,0.0,0.0
6.93,2.13,13.5,-2.24,13.9,0.0,0.0
6.94,2.06,13.7,-2.5,14.0,0.0,0.0
6.95,3.55,13.2,-2.63,13.9,0.0,0.0
6.96,4.29,12.8,-2.71,13.8,0.0,0.0
6.97,4.66,12.4,-2.82,13.5,0.0,0.0
6.98,4.99,12.1,-3.0,13.4,0.0,0.0
6.99,4.84,12.0,-3.18,13.3,0.0,0.0
7.0,4.07,11.8,-3.23,12.9,0.0,0.0
7.01,3.03,11.7,-2.81,12.4,0.0,0.0
7.02,2.5,11.0,-1.91,11.5,0.0,0.0
7.03,2.4,10.0,-1.41,10.4,0.0,0.0
7.04,2.14,9.15,-1.3,9.49,0.0,0.0
7.05,1.81,8.52,-1.06,8.78,0.0,0.0
7.06,1.45,7.95,-0.925,8.14,0.0,0.0
7.07,1.1,7.53,-0.916,7.67,0.0,0.0
7.08,1.39,7.32,-0.851,7.5,0.0,0.0
7.09,2.11,6.92,-0.541,7.26,0.0,0.0
7.1,1.92,6.68,-0.582,6.97,0.0,0.0
7.11,2.38,6.66,-0.95,7.13,0.0,0.0
7.12,2.38,6.5,-1.2,7.03,0.0,0.0
7.13,2.49,6.31,-1.46,6.94,0.0,0.0
7.14,2.56,6.19,-1.56,6.88,0.0,0.0
7.15,2.77,6.31,-1.55,7.06,0.0,0.0
7.16,3.03,6.52,-1.41,7.33,0.0,0.0
7.17,3.03,6.97,-1.09,7.68,0.0,0.0
7.18,2.74,7.44,-0.63,7.95,0.0,0.0
7.19,2.91,7.6,-0.107,8.14,0.0,0.0
7.2,3.09,7.75,0.188,8.35,0.0,0.0
7.21,2.87,8.29,0.224,8.77,0.0,0.0
7.22,2.81,8.49,0.109,8.95,0.0,0.0
7.23,2.84,8.54,0.0452,9.0,0.0,0.0
7.24,2.62,8.81,-0.0644,9.19,0.0,0.0
7.25,2.31,9.11,-0.141,9.4,0.0,0.0
7.26,2.07,9.33,0.0157,9.56,0.0,0.0
7.27,1.96,9.36,0.301,9.56,0.0,0.0
7.28,1.79,9.19,0.639,9.39,0.0,0.0
7.29,1.48,8.93,0.902,9.1,0.0,0.0
7.3,1.16,8.62,1.03,8.76,0.0,0.0
7.31,0.819,8.35,1.06,8.45,0.0,0.0
7.32,0.555,8.25,1.07,8.34,0.0,0.0
7.33,0.399,8.41,1.11,8.49,0.0,0.0
7.34,0.417,8.75,1.18,8.84,0.0,0.0
7.35,1.25,9.06,1.36,9.25,0.0,0.0
7.36,1.72,9.48,1.46,9.75,0.0,0.0
7.37,1.92,9.89,1.38,10.2,0.0,0.0
7.38,2.25,10.0,1.1,10.4,0.0,0.0
7.39,2.42,9.94,0.627,10.2,0.0,0.0
7.4,2.44,9.71,0.132,10.0,0.0,0.0
7.41,2.52,9.59,-0.227,9.92,0.0,0.0
7.42,2.69,9.74,-0.396,10.1,0.0,0.0
7.43,3.01,10.2,-0.434,10.7,0.0,0.0
7.44,3.47,10.9,-0.417,11.4,0.0,0.0
7.45,3.9,11.7,-0.517,12.3,0.0,0.0
7.46,4.48,12.2,-0.851,13.0,0.0,0.0
7.47,5.12,12.9,-1.34,14.0,0.0,0.0
7.48,5.74,13.6,-1.87,14.9,0.0,0.0
7.49,6.45,14.0,-2.44,15.6,0.0,0.0
7.5,7.45,14.1,-3.19,16.3,0.0,0.0
7.51,8.54,14.6,-4.18,17.4,0.0,0.0
7.52,8.89,14.5,-4.65,17.6,0.0,0.0
7.53,7.44,12.3,-4.03,14.9,0.0,0.0
7.54,5.07,11.0,-4.11,12.8,0.0,0.0
7.55,4.79,10.2,-4.61,12.2,0.0,0.0
7.56,3.49,9.22,-4.38,10.8,0.0,0.0
7.57,2.12,8.18,-3.82,9.27,0.0,0.0
7.58,1.87,7.51,-3.26,8.4,0.0,0.0
7.59,1.95,7.33,-2.72,8.06,0.0,0.0
7.6,1.9,7.26,-1.89,7.74,0.0,0.0
7.61,1.78,7.13,-1.18,7.44,0.0,0.0
7.62,1.8,7.63,-0.556,7.86,0.0,0.0
7.63,1.59,7.73,0.17,7.89,0.0,0.0
7.64,1.17,7.07,0.73,7.2,0.0,0.0
7.65,0.962,6.7,1.18,6.87,0.0,0.0
7.66,1.13,6.69,1.73,7.0,0.0,0.0
7.67,1.7,6.78,2.23,7.34,0.0,0.0
7.68,1.97,6.97,2.37,7.63,0.0,0.0
7.69,2.4,7.22,2.16,7.91,0.0,0.0
7.7,2.84,7.61,1.91,8.35,0.0,0.0
7.71,3.15,7.74,1.93,8.57,0.0,0.0
7.72,3.44,7.69,2.0,8.66,0.0,0.0
7.73,3.83,7.78,1.88,8.87,0.0,0.0
7.74,4.13,8.0,1.63,9.15,0.0,0.0
7.75,4.42,8.19,1.31,9.4,0.0,0.0
7.76,4.55,8.13,1.01,9.37,0.0,0.0
7.77,4.5,8.0,0.766,9.21,0.0,0.0
7.78,4.18,7.89,0.661,8.95,0.0,0.0
7.79,4.08,7.69,0.517,8.72,0.0,0.0
7.8,4.06,7.38,0.289,8.43,0.0,0.0
7.81,4.09,7.06,-0.0364,8.16,0.0,0.0
7.82,4.15,6.76,-0.323,7.94,0.0,0.0
7.83,4.23,6.65,-0.53,7.9,0.0,0.0
7.84,4.27,6.82,-0.606,8.07,0.0,0.0
7.85,4.48,7.39,-0.399,8.65,0.0,0.0
7.86,4.7,8.23,-0.0304,9.47,0.0,0.0
7.87,4.77,9.22,0.314,10.4,0.0,0.0
7.88,4.83,10.2,0.572,11.3,0.0,0.0
7.89,4.77,11.0,0.611,12.0,0.0,0.0
7.9,4.45,11.8,0.466,12.6,0.0,0.0
7.91,3.83,12.1,0.211,12.7,0.0,0.0
7.92,3.14,12.1,-0.0957,12.5,0.0,0.0
7.93,2.43,11.9,-0.657,12.2,0.0,0.0
7.94,1.89,11.7,-1.26,11.9,0.0,0.0
7.95,1.39,11.5,-1.67,11.7,0.0,0.0
7.96,1.02,11.8,-1.79,11.9,0.0,0.0
7.97,1.01,12.9,-1.67,13.1,0.0,0.0
7.98,1.74,14.8,-1.21,15.0,0.0,0.0
7.99,3.24,16.9,-0.935,17.2,0.0,0.0
8.0,4.73,17.9,-1.28,18.6,0.0,0.0
8.01,4.66,16.8,-2.55,17.6,0.0,0.0
8.02,3.5,14.7,-3.79,15.6,0.0,0.0
8.03,2.81,12.4,-3.91,13.3,0.0,0.0
8.04,2.75,10.6,-3.51,11.5,0.0,0.0
8.05,2.98,8.97,-3.1,9.95,0.0,0.0
8.06,3.37,7.2,-2.9,8.47,0.0,0.0
8.07,3.87,6.04,-2.89,7.73,0.0,0.0
8.08,4.29,5.24,-2.71,7.3,0.0,0.0
8.09,4.51,4.69,-2.36,6.92,0.0,0.0
8.1,4.45,4.56,-1.97,6.67,0.0,0.0
8.12,4.22,4.69,-1.5,6.49,0.0,0.0
8.13,4.15,5.22,-1.17,6.78,0.0,0.0
8.14,3.92,6.25,-0.969,7.45,0.0,0.0
8.15,3.59,7.5,-0.82,8.35,0.0,0.0
8.16,3.45,8.76,-0.846,9.46,0.0,0.0
8.17,3.41,9.53,-0.913,10.2,0.0,0.0
8.18,3.45,9.57,-1.07,10.2,0.0,0.0
8.19,3.39,9.33,-1.24,10.0,0.0,0.0
8.2,3.22,9.23,-1.41,9.88,0.0,0.0
8.21,3.01,9.5,-1.42,10.1,0.0,0.0
8.22,2.85,9.84,-1.23,10.3,0.0,0.0
8.23,2.8,9.99,-1.06,10.4,0.0,0.0
8.24,2.8,10.0,-0.983,10.5,0.0,0.0
8.25,2.84,10.0,-1.06,10.5,0.0,0.0
8.26,2.83,9.99,-1.17,10.5,0.0,0.0
8.27,2.79,9.89,-1.31,10.4,0.0,0.0
8.28,2.61,9.57,-1.25,10.0,0.0,0.0
8.29,2.39,9.07,-1.19,9.45,0.0,0.0
8.3,2.15,8.68,-1.28,9.03,0.0,0.0
8.31,1.86,8.51,-1.49,8.84,0.0,0.0
8.32,1.65,8.23,-1.55,8.54,0.0,0.0
8.33,1.47,7.8,-1.4,8.06,0.0,0.0
8.34,1.42,7.5,-1.15,7.72,0.0,0.0
8.35,1.51,7.41,-1.01,7.63,0.0,0.0
8.36,1.63,7.37,-0.802,7.59,0.0,0.0
8.37,1.85,7.51,-0.437,7.75,0.0,0.0
8.38,2.1,8.01,-0.138,8.28,0.0,0.0
8.39,2.38,8.68,0.0397,9.0,0.0,0.0
8.4,2.69,9.4,0.303,9.78,0.0,0.0
8.41,2.77,9.91,0.446,10.3,0.0,0.0
8.42,2.68,10.1,0.442,10.5,0.0,0.0
8.43,2.63,10.2,0.384,10.6,0.0,0.0
8.44,2.62,10.5,0.375,10.8,0.0,0.0
8.45,2.69,10.9,0.564,11.2,0.0,0.0
8.46,2.9,11.2,0.837,11.6,0.0,0.0
8.47,3.2,11.1,0.899,11.6,0.0,0.0
8.48,3.44,10.7,0.705,11.3,0.0,0.0
8.49,3.51,10.0,0.325,10.6,0.0,0.0
8.5,3.56,9.22,-0.029,9.89,0.0,0.0
8.51,3.64,8.7,-0.0856,9.43,0.0,0.0
8.52,3.67,8.36,0.0286,9.12,0.0,0.0
8.53,3.62,8.32,0.168,9.08,0.0,0.0
8.54,3.58,8.46,0.237,9.19,0.0,0.0
8.55,3.61,8.69,0.185,9.41,0.0,0.0
8.56,3.77,8.97,0.00689,9.73,0.0,0.0
8.57,3.95,9.21,-0.291,10.0,0.0,0.0
8.58,3.98,9.36,-0.541,10.2,0.0,0.0
8.59,3.85,9.46,-0.7,10.2,0.0,0.0
8.6,3.69,9.57,-0.835,10.3,0.0,0.0
8.61,3.47,9.65,-0.908,10.3,0.0,0.0
8.62,3.23,9.64,-0.892,10.2,0.0,0.0
8.63,3.06,9.54,-0.691,10.0,0.0,0.0
8.64,3.07,9.48,-0.318,9.97,0.0,0.0
8.65,3.15,9.46,-0.0141,9.97,0.0,0.0
8.66,3.21,9.39,0.184,9.92,0.0,0.0
8.67,3.28,9.3,0.323,9.86,0.0,0.0
8.68,3.28,9.22,0.406,9.8,0.0,0.0
8.69,3.26,9.17,0.482,9.74,0.0,0.0
8.7,3.28,9.15,0.497,9.73,0.0,0.0
8.71,3.24,9.1,0.467,9.67,0.0,0.0
8.72,3.21,9.08,0.379,9.64,0.0,0.0
8.73,3.14,9.15,0.248,9.68,0.0,0.0
8.74,3.06,9.18,0.0793,9.68,0.0,0.0
8.75,2.99,9.24,-0.0531,9.71,0.0,0.0
8.76,2.9,9.3,-0.0424,9.74,0.0,0.0
8.77,2.81,9.38,0.0457,9.79,0.0,0.0
8.78,2.78,9.45,0.154,9.85,0.0,0.0
8.79,2.76,9.49,0.2,9.89,0.0,0.0
8.8,2.78,9.49,0.215,9.89,0.0,0.0
8.81,2.79,9.47,0.238,9.87,0.0,0.0
8.82,2.79,9.41,0.269,9.82,0.0,0.0
8.83,2.81,9.35,0.3,9.77,0.0,0.0
8.84,2.79,9.32,0.312,9.73,0.0,0.0
8.85,2.82,9.27,0.304,9.69,0.0,0.0
8.86,2.85,9.26,0.298,9.7,0.0,0.0
8.87,2.9,9.26,0.366,9.71,0.0,0.0
8.88,2.86,9.27,0.41,9.71,0.0,0.0
8.89,2.88,9.3,0.494,9.75,0.0,0.0
8.9,2.87,9.33,0.521,9.78,0.0,0.0
8.91,2.95,9.36,0.381,9.82,0.0,0.0
8.92,2.98,9.34,0.383,9.81,0.0,0.0
8.93,2.89,9.36,0.43,9.81,0.0,0.0
8.94,3.01,9.35,0.451,9.83,0.0,0.0
8.95,3.02,9.55,0.504,10.0,0.0,0.0
8.96,2.97,9.57,0.419,10.0,0.0,0.0
8.97,2.88,9.55,0.275,9.97,0.0,0.0
8.98,2.76,9.58,0.0795,9.96,0.0,0.0
8.99,2.89,9.53,-0.0766,9.96,0.0,0.0
9.0,3.05,9.86,-0.0651,10.3,0.0,0.0
9.01,2.65,9.94,0.0253,10.3,0.0,0.0
9.02,2.93,9.87,-0.234,10.3,0.0,0.0
9.03,2.6,9.98,-0.143,10.3,0.0,0.0
9.04,2.34,10.2,0.403,10.5,0.0,0.0
9.05,2.18,10.3,0.77,10.5,0.0,0.0
9.06,1.62,9.82,0.511,9.97,0.0,0.0
9.07,1.78,9.66,0.136,9.82,0.0,0.0
9.08,2.27,9.92,0.0337,10.2,0.0,0.0
9.09,2.06,10.0,0.142,10.2,0.0,0.0
9.1,2.36,9.9,0.063,10.2,0.0,0.0
9.11,2.88,9.21,-0.211,9.66,0.0,0.0
9.12,3.22,8.16,1.25,8.86,0.0,0.0
9.13,3.96,9.21,2.06,10.2,0.0,0.0
9.14,4.27,9.01,0.763,10.0,0.0,0.0
9.15,4.96,8.91,1.7,10.3,0.0,0.0
9.16,4.76,8.62,3.32,10.4,0.0,0.0
9.17,4.45,7.63,4.59,9.95,0.0,0.0
9.18,4.17,7.79,3.03,9.34,0.0,0.0
9.19,3.67,8.17,0.563,8.97,0.0,0.0
9.2,3.21,8.01,-1.39,8.74,0.0,0.0
9.21,3.14,8.19,-2.23,9.05,0.0,0.0
9.22,2.65,8.28,-2.21,8.97,0.0,0.0
9.23,2.54,8.36,-1.65,8.89,0.0,0.0
9.24,3.06,9.03,-0.479,9.55,0.0,0.0
9.25,3.91,9.93,1.29,10.7,0.0,0.0
9.26,3.6,9.99,2.57,10.9,0.0,0.0
9.27,3.09,9.77,3.03,10.7,0.0,0.0
9.28,2.97,9.71,3.06,10.6,0.0,0.0
9.29,2.66,9.6,3.31,10.5,0.0,0.0
9.3,2.52,9.69,3.13,10.5,0.0,0.0
9.31,2.44,9.65,2.6,10.3,0.0,0.0
9.32,2.73,9.56,2.35,10.2,0.0,0.0
9.33,3.17,9.64,2.14,10.4,0.0,0.0
9.34,3.42,9.67,2.09,10.5,0.0,0.0
9.35,3.78,9.71,1.79,10.6,0.0,0.0
9.36,4.07,9.83,1.74,10.8,0.0,0.0
9.37,3.68,9.7,1.96,10.6,0.0,0.0
9.38,4.29,11.0,1.36,11.9,0.0,0.0
9.4,3.67,11.6,2.36,12.4,0.0,0.0
9.41,2.26,10.1,2.54,10.7,0.0,0.0
9.42,1.7,8.69,1.6,9.0,0.0,0.0
9.43,1.68,7.77,1.35,8.06,0.0,0.0
9.44,1.78,7.3,1.35,7.64,0.0,0.0
9.45,1.38,7.38,1.5,7.65,0.0,0.0
9.46,1.18,7.61,1.8,7.91,0.0,0.0
9.47,1.21,8.19,2.21,8.57,0.0,0.0
9.48,1.08,8.75,2.47,9.16,0.0,0.0
9.49,1.22,9.03,2.6,9.48,0.0,0.0
9.5,1.6,8.78,2.48,9.26,0.0,0.0
9.51,2.22,8.44,2.02,8.95,0.0,0.0
9.52,2.64,8.66,2.28,9.33,0.0,0.0
9.53,2.15,8.75,2.57,9.36,0.0,0.0
9.54,1.91,8.15,1.65,8.54,0.0,0.0
9.55,3.87,8.56,1.02,9.45,0.0,0.0
9.56,3.89,10.8,1.93,11.6,0.0,0.0
9.57,3.71,11.8,1.85,12.5,0.0,0.0
9.58,2.9,11.2,2.6,11.8,0.0,0.0
9.59,1.79,10.9,3.13,11.4,0.0,0.0
9.6,2.21,11.0,1.14,11.2,0.0,0.0
9.61,2.89,11.5,0.0951,11.9,0.0,0.0
9.62,2.72,11.3,1.45,11.7,0.0,0.0
9.63,2.41,10.8,1.81,11.2,0.0,0.0
9.64,2.29,10.1,1.32,10.5,0.0,0.0
9.65,2.38,9.8,0.925,10.1,0.0,0.0
9.66,2.21,9.57,0.834,9.85,0.0,0.0
9.67,1.67,9.31,0.929,9.5,0.0,0.0
9.68,1.1,9.27,1.13,9.41,0.0,0.0
9.69,1.04,9.25,1.04,9.37,0.0,0.0
9.7,1.56,8.96,0.437,9.1,0.0,0.0
9.71,1.52,8.44,0.401,8.58,0.0,0.0
9.72,0.929,8.09,0.466,8.16,0.0,0.0
9.73,1.17,8.15,0.33,8.24,0.0,0.0
9.74,1.83,8.26,0.747,8.49,0.0,0.0
9.75,0.914,9.25,3.46,9.92,0.0,0.0
9.76,1.01,9.84,2.71,10.3,0.0,0.0
9.77,1.35,9.6,0.668,9.72,0.0,0.0
9.78,1.8,9.26,0.134,9.43,0.0,0.0
9.79,1.8,9.25,0.767,9.45,0.0,0.0
9.8,1.73,9.58,1.61,9.87,0.0,0.0
9.81,1.53,9.69,1.52,9.93,0.0,0.0
9.82,1.17,9.72,1.13,9.85,0.0,0.0
9.83,1.06,9.85,0.961,9.96,0.0,0.0
9.84,1.22,9.82,0.813,9.93,0.0,0.0
9.85,1.41,9.66,0.635,9.78,0.0,0.0
9.86,1.17,9.38,0.793,9.48,0.0,0.0
9.87,0.771,9.01,0.773,9.07,0.0,0.0
9.88,0.62,8.91,0.647,8.95,0.0,0.0
9.89,0.496,9.17,0.952,9.23,0.0,0.0
9.9,0.679,9.29,0.658,9.34,0.0,0.0
9.91,0.771,9.55,0.356,9.59,0.0,0.0
9.92,1.51,9.88,0.0298,9.99,0.0,0.0
9.93,2.02,10.2,0.109,10.4,0.0,0.0
9.94,2.34,10.6,0.253,10.9,0.0,0.0
9.95,2.52,10.9,0.586,11.2,0.0,0.0
9.96,2.9,10.8,0.47,11.2,0.0,0.0
9.97,2.79,10.4,0.388,10.8,0.0,0.0
9.98,2.05,9.87,0.248,10.1,0.0,0.0
9.99,0.972,10.6,0.136,10.7,0.0,0.0
0.00166,-7.01,1.38,7.2,10.1,0.0,1.0
0.0117,-6.92,1.33,7.09,9.99,0.0,1.0
0.0218,-6.86,1.3,6.91,9.83,0.0,1.0
0.0319,-6.84,1.33,6.71,9.67,0.0,1.0
0.042,-6.85,1.41,6.53,9.57,0.0,1.0
0.0521,-6.9,1.46,6.38,9.51,0.0,1.0
0.0621,-6.85,1.45,6.28,9.41,0.0,1.0
0.0722,-6.85,1.41,6.3,9.41,0.0,1.0
0.0823,-6.97,1.35,6.42,9.57,0.0,1.0
0.0924,-7.04,1.28,6.52,9.68,0.0,1.0
0.102,-7.03,1.32,6.58,9.72,0.0,1.0
0.113,-7.11,1.47,6.63,9.83,0.0,1.0
0.123,-7.13,1.62,6.72,9.93,0.0,1.0
0.133,-7.07,1.76,6.84,9.99,0.0,1.0
0.143,-6.95,1.8,6.9,9.95,0.0,1.0
0.153,-7.0,1.64,7.02,10.0,0.0,1.0
0.163,-7.26,1.41,7.07,10.2,0.0,1.0
0.173,-7.37,1.13,6.92,10.2,0.0,1.0
0.183,-7.5,0.981,6.77,10.2,0.0,1.0
0.193,-7.31,0.835,6.49,9.81,0.0,1.0
0.203,-6.97,0.7,6.39,9.48,0.0,1.0
0.213,-6.61,0.606,6.5,9.3,0.0,1.0
0.223,-6.49,0.474,6.76,9.38,0.0,1.0
0.233,-6.51,0.188,6.83,9.44,0.0,1.0
0.244,-6.57,-0.348,6.56,9.29,0.0,1.0
0.254,-6.64,-1.01,6.28,9.2,0.0,1.0
0.264,-6.61,-1.66,6.1,9.14,0.0,1.0
0.274,-6.46,-2.06,6.04,9.08,0.0,1.0
0.284,-6.29,-2.24,5.93,8.93,0.0,1.0
0.294,-6.41,-2.27,5.89,9.0,0.0,1.0
0.304,-6.73,-2.15,5.82,9.15,0.0,1.0
0.314,-7.16,-2.14,5.71,9.4,0.0,1.0
0.324,-7.59,-2.1,5.67,9.7,0.0,1.0
0.334,-8.06,-2.03,5.73,10.1,0.0,1.0
0.344,-8.3,-2.07,5.66,10.3,0.0,1.0
0.354,-8.29,-2.2,5.67,10.3,0.0,1.0
0.364,-8.12,-2.34,5.76,10.2,0.0,1.0
0.375,-7.82,-2.57,5.87,10.1,0.0,1.0
0.385,-7.43,-2.86,5.91,9.92,0.0,1.0
0.395,-6.76,-3.17,5.88,9.5,0.0,1.0
0.405,-6.33,-3.54,5.7,9.23,0.0,1.0
0.415,-6.09,-3.75,5.6,9.08,0.0,1.0
0.425,-5.98,-3.82,5.6,9.04,0.0,1.0
0.435,-6.0,-3.82,5.71,9.12,0.0,1.0
0.445,-6.06,-3.74,5.82,9.2,0.0,1.0
0.455,-6.09,-3.76,6.04,9.36,0.0,1.0
0.465,-6.02,-3.73,6.22,9.42,0.0,1.0
0.475,-5.78,-3.66,6.17,9.21,0.0,1.0
0.485,-5.72,-3.67,6.26,9.24,0.0,1.0
0.496,-5.73,-3.64,6.51,9.4,0.0,1.0
0.506,-5.62,-3.51,6.67,9.4,0.0,1.0
0.516,-5.79,-3.35,6.82,9.55,0.0,1.0
0.526,-6.08,-3.06,6.9,9.69,0.0,1.0
0.536,-6.54,-2.68,7.03,9.96,0.0,1.0
0.546,-6.63,-2.67,7.02,10.0,0.0,1.0
0.556,-6.83,-2.11,6.97,9.99,0.0,1.0
0.566,-7.4,-1.89,7.07,10.4,0.0,1.0
0.576,-6.77,-2.17,7.33,10.2,0.0,1.0
0.586,-7.17,-1.75,7.33,10.4,0.0,1.0
0.596,-7.26,-1.45,7.56,10.6,0.0,1.0
0.606,-7.35,-1.09,7.71,10.7,0.0,1.0
0.616,-7.66,-0.743,7.84,11.0,0.0,1.0
0.627,-7.76,-0.508,8.02,11.2,0.0,1.0
0.637,-7.96,-0.399,8.12,11.4,0.0,1.0
0.647,-8.27,-0.221,8.22,11.7,0.0,1.0
0.657,-8.47,0.0251,8.1,11.7,0.0,1.0
0.667,-8.65,0.273,7.75,11.6,0.0,1.0
0.677,-8.78,0.66,7.35,11.5,0.0,1.0
0.687,-8.96,1.15,7.03,11.4,0.0,1.0
0.697,-9.27,1.59,7.09,11.8,0.0,1.0
0.707,-9.51,2.1,7.28,12.2,0.0,1.0
0.717,-9.69,2.59,7.27,12.4,0.0,1.0
0.727,-10.0,2.94,7.34,12.8,0.0,1.0
0.737,-10.3,3.14,7.28,13.0,0.0,1.0
0.747,-10.2,3.06,7.06,12.8,0.0,1.0
0.758,-10.2,2.9,6.96,12.7,0.0,1.0
0.768,-10.4,2.8,7.01,12.9,0.0,1.0
0.778,-10.7,2.8,7.06,13.2,0.0,1.0
0.788,-11.2,2.74,7.02,13.5,0.0,1.0
0.798,-11.8,2.55,6.99,14.0,0.0,1.0
0.808,-12.5,2.39,7.1,14.5,0.0,1.0
0.818,-13.0,2.28,7.36,15.1,0.0,1.0
0.828,-13.4,2.19,7.58,15.5,0.0,1.0
0.838,-13.6,2.31,7.7,15.8,0.0,1.0
0.848,-13.7,2.45,7.67,15.9,0.0,1.0
0.858,-13.6,2.59,7.4,15.7,0.0,1.0
0.868,-13.5,2.68,7.13,15.5,0.0,1.0
0.879,-13.2,2.63,6.92,15.1,0.0,1.0
0.889,-13.0,2.45,6.8,14.8,0.0,1.0
0.899,-12.7,2.17,6.77,14.6,0.0,1.0
0.909,-12.5,1.72,6.79,14.3,0.0,1.0
0.919,-12.1,1.37,6.78,13.9,0.0,1.0
0.929,-11.6,1.06,6.71,13.5,0.0,1.0
0.939,-11.4,0.866,6.73,13.3,0.0,1.0
0.949,-11.1,0.868,6.71,13.0,0.0,1.0
0.959,-10.8,0.9,6.56,12.6,0.0,1.0
0.969,-10.8,0.907,6.44,12.6,0.0,1.0
0.979,-10.8,0.89,6.55,12.7,0.0,1.0
0.989,-10.8,0.807,6.53,12.6,0.0,1.0
0.999,-10.7,0.708,6.44,12.5,0.0,1.0
1.01,-10.4,0.612,6.06,12.0,0.0,1.0
1.02,-10.1,0.386,5.62,11.6,0.0,1.0
1.03,-9.97,0.269,5.31,11.3,0.0,1.0
1.04,-9.67,0.201,5.15,11.0,0.0,1.0
1.05,-9.23,0.038,5.0,10.5,0.0,1.0
1.06,-8.93,-0.157,5.0,10.2,0.0,1.0
1.07,-8.58,-0.353,5.18,10.0,0.0,1.0
1.08,-8.35,-0.499,5.48,10.0,0.0,1.0
1.09,-8.31,-0.655,5.77,10.1,0.0,1.0
1.1,-8.33,-0.881,5.86,10.2,0.0,1.0
1.11,-8.28,-1.08,5.65,10.1,0.0,1.0
1.12,-8.03,-1.25,5.19,9.64,0.0,1.0
1.13,-7.82,-1.47,4.76,9.27,0.0,1.0
1.14,-7.64,-1.63,4.5,9.01,0.0,1.0
1.15,-7.42,-1.73,4.45,8.83,0.0,1.0
1.16,-7.25,-1.81,4.56,8.75,0.0,1.0
1.17,-7.03,-1.91,4.7,8.67,0.0,1.0
1.18,-6.88,-2.01,4.74,8.59,0.0,1.0
1.19,-6.78,-2.12,4.67,8.5,0.0,1.0
1.2,-6.58,-2.24,4.38,8.21,0.0,1.0
1.21,-6.34,-2.39,4.05,7.89,0.0,1.0
1.22,-6.05,-2.52,3.74,7.54,0.0,1.0
1.23,-5.78,-2.62,3.52,7.26,0.0,1.0
1.24,-5.55,-2.76,3.3,7.03,0.0,1.0
1.25,-5.38,-2.84,2.99,6.78,0.0,1.0
1.26,-5.39,-3.04,2.61,6.72,0.0,1.0
1.27,-5.45,-3.25,2.27,6.74,0.0,1.0
1.28,-5.44,-3.57,2.05,6.82,0.0,1.0
1.29,-5.31,-3.91,1.95,6.87,0.0,1.0
1.3,-5.36,-3.99,2.1,7.0,0.0,1.0
1.31,-5.65,-3.85,2.33,7.23,0.0,1.0
1.32,-6.09,-3.75,2.51,7.58,0.0,1.0
1.33,-6.52,-3.6,2.44,7.84,0.0,1.0
1.34,-6.85,-3.55,2.2,8.02,0.0,1.0
1.35,-7.21,-3.56,2.06,8.3,0.0,1.0
1.36,-7.46,-3.57,2.01,8.52,0.0,1.0
1.37,-7.67,-3.74,2.05,8.78,0.0,1.0
1.38,-7.73,-3.96,2.3,8.99,0.0,1.0
1.39,-7.77,-4.08,2.64,9.17,0.0,1.0
1.4,-7.92,-4.27,2.94,9.47,0.0,1.0
1.41,-8.21,-4.47,3.33,9.92,0.0,1.0
1.42,-8.61,-4.47,3.68,10.4,0.0,1.0
1.43,-8.82,-4.38,3.85,10.6,0.0,1.0
1.44,-9.29,-4.36,4.1,11.0,0.0,1.0
1.45,-9.9,-4.31,4.52,11.7,0.0,1.0
1.46,-10.4,-4.27,4.93,12.3,0.0,1.0
1.47,-10.8,-4.11,5.41,12.7,0.0,1.0
1.48,-11.0,-3.91,5.94,13.1,0.0,1.0
1.49,-11.1,-3.86,6.24,13.3,0.0,1.0
1.5,-11.0,-3.84,6.46,13.3,0.0,1.0
1.51,-11.0,-3.93,6.57,13.4,0.0,1.0
1.52,-10.9,-4.07,6.57,13.4,0.0,1.0
1.53,-10.8,-4.1,6.51,13.3,0.0,1.0
1.54,-10.8,-4.03,6.58,13.3,0.0,1.0
1.55,-10.9,-3.91,6.89,13.5,0.0,1.0
1.56,-11.2,-3.58,7.6,14.0,0.0,1.0
1.57,-11.5,-3.07,8.18,14.4,0.0,1.0
1.58,-11.9,-2.73,8.03,14.6,0.0,1.0
1.59,-12.2,-2.31,7.78,14.7,0.0,1.0
1.6,-12.4,-1.77,7.81,14.8,0.0,1.0
1.61,-12.5,-1.18,7.49,14.6,0.0,1.0
1.62,-12.6,-0.647,6.67,14.3,0.0,1.0
1.63,-12.9,-0.181,5.97,14.2,0.0,1.0
1.64,-12.7,0.304,5.35,13.8,0.0,1.0
1.65,-12.7,0.64,4.82,13.6,0.0,1.0
1.66,-12.7,0.959,4.61,13.6,0.0,1.0
1.67,-12.6,1.27,4.46,13.4,0.0,1.0
1.68,-12.4,1.48,4.08,13.1,0.0,1.0
1.69,-12.1,1.63,3.48,12.7,0.0,1.0
1.7,-11.8,1.72,2.9,12.3,0.0,1.0
1.72,-11.4,1.6,2.53,11.8,0.0,1.0
1.73,-11.2,1.36,2.78,11.6,0.0,1.0
1.74,-11.1,1.06,3.39,11.6,0.0,1.0
1.75,-10.8,0.775,3.92,11.5,0.0,1.0
1.76,-10.5,0.632,4.3,11.4,0.0,1.0
1.77,-10.4,0.615,4.68,11.4,0.0,1.0
1.78,-10.2,0.83,4.98,11.4,0.0,1.0
1.79,-10.0,1.07,5.11,11.3,0.0,1.0
1.8,-9.88,1.41,5.33,11.3,0.0,1.0
1.81,-9.62,1.88,5.48,11.2,0.0,1.0
1.82,-9.31,2.2,5.24,10.9,0.0,1.0
1.83,-9.15,2.18,4.93,10.6,0.0,1.0
1.84,-9.2,2.09,5.14,10.7,0.0,1.0
1.85,-9.55,2.13,5.84,11.4,0.0,1.0
1.86,-10.3,2.14,6.49,12.3,0.0,1.0
1.87,-11.2,2.0,6.78,13.3,0.0,1.0
1.88,-11.9,1.75,6.59,13.7,0.0,1.0
1.89,-12.5,1.46,6.2,14.0,0.0,1.0
1.9,-13.2,1.07,6.0,14.5,0.0,1.0
1.91,-14.1,0.564,6.14,15.4,0.0,1.0
1.92,-15.0,0.142,6.64,16.4,0.0,1.0
1.93,-15.7,-0.102,7.19,17.3,0.0,1.0
1.94,-16.3,-0.252,7.63,18.0,0.0,1.0
1.95,-16.6,-0.147,7.83,18.4,0.0,1.0
1.96,-16.6,-0.0205,7.43,18.1,0.0,1.0
1.97,-16.2,0.0136,6.45,17.4,0.0,1.0
1.98,-15.6,-0.252,5.52,16.6,0.0,1.0
1.99,-15.2,-0.626,5.27,16.1,0.0,1.0
2.0,-15.0,-1.03,5.72,16.1,0.0,1.0
2.01,-14.8,-1.44,6.41,16.2,0.0,1.0
2.02,-14.5,-1.94,6.64,16.1,0.0,1.0
2.03,-14.3,-2.38,6.19,15.8,0.0,1.0
2.04,-13.9,-2.89,5.39,15.2,0.0,1.0
2.05,-13.3,-3.2,4.89,14.5,0.0,1.0
2.06,-13.1,-3.45,4.4,14.2,0.0,1.0
2.07,-13.0,-3.61,4.19,14.1,0.0,1.0
2.08,-12.7,-3.75,4.06,13.8,0.0,1.0
2.09,-12.1,-3.92,3.78,13.3,0.0,1.0
2.1,-11.4,-4.1,3.56,12.6,0.0,1.0
2.11,-10.7,-4.31,3.49,12.1,0.0,1.0
2.12,-10.2,-4.3,3.59,11.6,0.0,1.0
2.13,-9.65,-4.19,3.64,11.1,0.0,1.0
2.14,-9.05,-4.26,3.48,10.6,0.0,1.0
2.15,-8.39,-4.22,3.07,9.89,0.0,1.0
2.16,-7.85,-4.28,2.6,9.31,0.0,1.0
2.17,-7.51,-4.2,2.35,8.92,0.0,1.0
2.18,-7.17,-4.08,2.12,8.52,0.0,1.0
2.19,-7.0,-4.04,1.59,8.24,0.0,1.0
2.2,-7.04,-4.07,0.967,8.19,0.0,1.0
2.21,-7.08,-3.99,0.523,8.15,0.0,1.0
2.22,-6.94,-3.82,0.328,7.93,0.0,1.0
2.23,-6.62,-3.5,0.405,7.49,0.0,1.0
2.24,-6.13,-3.24,0.658,6.96,0.0,1.0
2.25,-5.9,-3.29,0.94,6.82,0.0,1.0
2.26,-5.81,-3.13,1.38,6.74,0.0,1.0
2.27,-5.3,-3.4,1.82,6.55,0.0,1.0
2.28,-5.21,-3.58,2.05,6.65,0.0,1.0
2.29,-5.1,-3.42,1.98,6.46,0.0,1.0
2.3,-5.0,-3.45,1.96,6.39,0.0,1.0
2.31,-4.98,-3.59,1.67,6.36,0.0,1.0
2.32,-4.94,-3.59,1.36,6.26,0.0,1.0
2.33,-4.96,-3.77,1.27,6.36,0.0,1.0
2.34,-5.03,-4.04,1.35,6.59,0.0,1.0
2.35,-5.22,-4.12,1.6,6.84,0.0,1.0
2.36,-5.45,-4.12,1.89,7.09,0.0,1.0
2.37,-5.61,-4.09,2.39,7.34,0.0,1.0
2.38,-5.66,-3.83,3.05,7.49,0.0,1.0
2.39,-5.81,-3.57,3.42,7.63,0.0,1.0
2.4,-6.19,-3.34,3.39,7.81,0.0,1.0
2.41,-6.74,-3.22,3.08,8.08,0.0,1.0
2.42,-7.23,-3.26,2.59,8.35,0.0,1.0
2.43,-7.78,-3.51,2.08,8.78,0.0,1.0
2.44,-8.28,-3.8,1.72,9.27,0.0,1.0
2.45,-8.84,-4.12,1.7,9.9,0.0,1.0
2.46,-9.41,-4.45,2.05,10.6,0.0,1.0
2.47,-9.88,-4.7,2.65,11.3,0.0,1.0
2.48,-10.2,-4.94,3.5,11.8,0.0,1.0
2.49,-10.6,-5.23,4.29,12.6,0.0,1.0
2.5,-11.1,-5.38,5.07,13.4,0.0,1.0
2.51,-11.9,-5.29,5.78,14.3,0.0,1.0
2.52,-12.6,-4.95,6.38,15.0,0.0,1.0
2.53,-13.0,-4.44,6.76,15.3,0.0,1.0
2.54,-13.2,-3.98,6.95,15.4,0.0,1.0
2.55,-13.1,-3.69,7.02,15.4,0.0,1.0
2.56,-13.0,-3.58,7.07,15.2,0.0,1.0
2.57,-12.8,-3.58,7.4,15.2,0.0,1.0
2.58,-12.3,-3.68,8.0,15.1,0.0,1.0
2.59,-11.6,-3.78,8.5,14.9,0.0,1.0
2.6,-10.9,-4.02,9.15,14.8,0.0,1.0
2.61,-10.4,-4.09,9.89,14.9,0.0,1.0
2.62,-10.2,-3.55,10.0,14.7,0.0,1.0
2.63,-11.0,-3.12,9.72,15.0,0.0,1.0
2.64,-12.1,-2.57,8.95,15.3,0.0,1.0
2.65,-13.0,-1.86,7.67,15.2,0.0,1.0
2.66,-13.8,-0.942,6.26,15.2,0.0,1.0
2.67,-14.4,-0.168,4.98,15.2,0.0,1.0
2.68,-14.6,0.332,4.17,15.2,0.0,1.0
2.69,-14.6,0.573,3.95,15.1,0.0,1.0
2.7,-14.6,0.701,4.25,15.2,0.0,1.0
2.71,-14.2,0.812,4.88,15.1,0.0,1.0
2.72,-13.8,0.879,5.3,14.8,0.0,1.0
2.73,-13.5,0.98,5.26,14.5,0.0,1.0
2.74,-13.5,1.09,5.0,14.4,0.0,1.0
2.75,-13.5,1.23,4.73,14.3,0.0,1.0
2.76,-13.1,1.2,4.49,13.9,0.0,1.0
2.77,-12.7,0.968,4.46,13.5,0.0,1.0
2.78,-12.5,0.567,4.73,13.4,0.0,1.0
2.79,-12.3,0.2,5.16,13.4,0.0,1.0
2.8,-12.0,-0.073,5.53,13.2,0.0,1.0
2.81,-11.5,-0.235,5.76,12.9,0.0,1.0
2.82,-11.1,-0.301,5.89,12.6,0.0,1.0
2.83,-10.7,-0.198,5.9,12.2,0.0,1.0
2.84,-10.2,-0.119,5.58,11.6,0.0,1.0
2.85,-9.97,-0.262,5.14,11.2,0.0,1.0
2.86,-9.92,-0.43,4.84,11.0,0.0,1.0
2.87,-10.0,-0.551,4.68,11.1,0.0,1.0
2.88,-10.0,-0.614,4.55,11.0,0.0,1.0
2.89,-10.2,-0.506,4.52,11.1,0.0,1.0
2.9,-10.3,-0.392,4.59,11.3,0.0,1.0
2.91,-10.5,-0.14,4.6,11.4,0.0,1.0
2.92,-11.0,0.0837,4.44,11.9,0.0,1.0
2.93,-11.5,0.278,4.33,12.3,0.0,1.0
2.94,-12.1,0.453,4.29,12.9,0.0,1.0
2.95,-13.2,0.312,4.41,13.9,0.0,1.0
2.96,-14.7,0.172,4.67,15.4,0.0,1.0
2.97,-16.2,0.192,5.02,16.9,0.0,1.0
2.98,-17.5,-0.249,4.92,18.2,0.0,1.0
3.0,-18.8,-0.605,4.87,19.5,0.0,1.0
3.01,-19.1,-0.681,5.13,19.8,0.0,1.0
3.02,-18.8,-0.467,5.29,19.6,0.0,1.0
3.03,-18.4,-0.149,5.28,19.2,0.0,1.0
3.04,-17.9,0.139,5.2,18.7,0.0,1.0
3.05,-17.2,0.325,4.92,17.9,0.0,1.0
3.06,-16.4,0.123,4.55,17.1,0.0,1.0
3.07,-15.7,-0.49,4.34,16.3,0.0,1.0
3.08,-15.0,-1.21,4.33,15.7,0.0,1.0
3.09,-14.5,-2.29,4.84,15.5,0.0,1.0
3.1,-13.7,-3.44,5.55,15.2,0.0,1.0
3.11,-12.7,-4.36,5.86,14.6,0.0,1.0
3.12,-11.3,-4.8,5.55,13.5,0.0,1.0
3.13,-10.7,-5.06,4.92,12.8,0.0,1.0
3.14,-10.0,-4.93,4.21,11.9,0.0,1.0
3.15,-9.91,-4.72,3.7,11.6,0.0,1.0
3.16,-9.98,-4.26,3.33,11.4,0.0,1.0
3.17,-9.95,-3.66,3.04,11.0,0.0,1.0
3.18,-10.2,-3.51,3.03,11.2,0.0,1.0
3.19,-10.5,-3.73,3.8,11.7,0.0,1.0
3.2,-9.68,-3.62,4.29,11.2,0.0,1.0
3.21,-8.78,-3.43,3.75,10.1,0.0,1.0
3.22,-8.62,-3.46,3.16,9.81,0.0,1.0
3.23,-8.24,-3.38,3.02,9.4,0.0,1.0
3.24,-7.65,-3.3,2.81,8.79,0.0,1.0
3.25,-7.15,-3.22,2.85,8.34,0.0,1.0
3.26,-6.71,-3.05,2.87,7.91,0.0,1.0
3.27,-6.47,-2.91,2.71,7.6,0.0,1.0
3.28,-6.37,-2.8,2.5,7.4,0.0,1.0
3.29,-6.57,-2.75,2.43,7.52,0.0,1.0
3.3,-6.71,-2.67,2.51,7.65,0.0,1.0
3.31,-6.75,-2.62,2.38,7.62,0.0,1.0
3.32,-6.64,-2.53,2.02,7.39,0.0,1.0
3.33,-6.48,-2.47,1.69,7.13,0.0,1.0
3.34,-6.41,-2.45,1.39,7.0,0.0,1.0
3.35,-6.3,-2.39,1.11,6.83,0.0,1.0
3.36,-6.14,-2.45,0.898,6.67,0.0,1.0
3.37,-6.11,-2.55,0.829,6.67,0.0,1.0
3.38,-6.25,-2.6,0.976,6.84,0.0,1.0
3.39,-6.37,-2.67,1.11,7.0,0.0,1.0
3.4,-6.47,-2.81,1.27,7.17,0.0,1.0
3.41,-6.54,-2.99,1.47,7.34,0.0,1.0
3.42,-6.71,-3.11,1.69,7.59,0.0,1.0
3.43,-6.85,-3.36,2.03,7.89,0.0,1.0
3.44,-6.72,-3.6,2.5,8.02,0.0,1.0
3.45,-6.41,-3.71,2.85,7.93,0.0,1.0
3.46,-6.07,-3.73,3.22,7.81,0.0,1.0
3.47,-5.79,-3.54,3.54,7.65,0.0,1.0
3.48,-5.6,-3.34,3.83,7.56,0.0,1.0
3.49,-5.57,-3.22,4.05,7.6,0.0,1.0
3.5,-5.76,-3.2,4.18,7.8,0.0,1.0
3.51,-6.15,-3.34,4.15,8.14,0.0,1.0
3.52,-6.57,-3.52,4.02,8.47,0.0,1.0
3.53,-6.67,-3.82,3.62,8.5,0.0,1.0
3.54,-6.88,-4.25,2.96,8.61,0.0,1.0
3.55,-7.15,-4.62,2.31,8.82,0.0,1.0
3.56,-7.3,-5.07,1.55,9.02,0.0,1.0
3.57,-7.48,-5.46,0.979,9.31,0.0,1.0
3.58,-7.85,-5.66,0.982,9.73,0.0,1.0
3.59,-8.56,-5.75,1.74,10.5,0.0,1.0
3.6,-9.87,-5.65,3.19,11.8,0.0,1.0
3.61,-11.3,-5.27,4.7,13.3,0.0,1.0
3.62,-12.0,-4.7,5.62,14.1,0.0,1.0
3.63,-12.5,-4.79,5.74,14.6,0.0,1.0
3.64,-13.2,-5.1,5.27,15.1,0.0,1.0
3.65,-13.1,-4.74,4.54,14.6,0.0,1.0
3.66,-13.3,-4.82,3.97,14.7,0.0,1.0
3.67,-13.5,-5.04,3.76,14.9,0.0,1.0
3.68,-13.6,-5.33,4.17,15.2,0.0,1.0
3.69,-13.5,-5.59,5.03,15.5,0.0,1.0
3.7,-13.5,-5.66,6.05,15.9,0.0,1.0
3.71,-13.6,-5.7,7.09,16.3,0.0,1.0
3.72,-13.9,-5.56,7.98,17.0,0.0,1.0
3.73,-14.3,-4.94,8.0,17.1,0.0,1.0
3.74,-15.5,-4.75,7.41,17.8,0.0,1.0
3.75,-16.4,-3.97,6.43,18.1,0.0,1.0
3.76,-16.6,-3.04,5.28,17.7,0.0,1.0
3.77,-16.6,-2.49,3.94,17.3,0.0,1.0
3.78,-16.7,-2.17,2.98,17.1,0.0,1.0
3.79,-16.9,-1.8,2.64,17.2,0.0,1.0
3.8,-17.3,-1.47,2.53,17.6,0.0,1.0
3.81,-17.9,-1.17,2.25,18.1,0.0,1.0
3.82,-17.9,-0.709,1.7,18.0,0.0,1.0
3.83,-17.2,-0.0747,1.46,17.2,0.0,1.0
3.84,-16.0,0.421,1.52,16.1,0.0,1.0
3.85,-14.8,0.685,1.55,14.9,0.0,1.0
3.86,-13.8,0.913,1.86,14.0,0.0,1.0
3.87,-13.0,1.07,2.34,13.2,0.0,1.0
3.88,-11.7,1.22,2.22,11.9,0.0,1.0
3.89,-10.4,1.26,1.61,10.6,0.0,1.0
3.9,-9.5,1.06,1.08,9.62,0.0,1.0
3.91,-8.81,0.686,0.847,8.88,0.0,1.0
3.92,-8.42,0.348,1.13,8.5,0.0,1.0
3.93,-8.16,0.201,1.74,8.35,0.0,1.0
3.94,-8.1,0.144,2.3,8.42,0.0,1.0
3.95,-8.18,0.259,2.68,8.61,0.0,1.0
3.96,-8.36,0.567,3.0,8.9,0.0,1.0
3.97,-8.83,0.742,3.31,9.46,0.0,1.0
3.98,-9.59,0.679,3.46,10.2,0.0,1.0
3.99,-10.7,0.519,3.82,11.3,0.0,1.0
4.0,-12.0,0.41,4.35,12.8,0.0,1.0
4.01,-13.3,0.236,4.86,14.2,0.0,1.0
4.02,-14.2,0.244,5.24,15.2,0.0,1.0
4.03,-15.1,0.223,5.28,16.0,0.0,1.0
4.04,-16.0,0.0266,4.82,16.7,0.0,1.0
4.05,-16.6,-0.164,4.29,17.2,0.0,1.0
4.06,-17.1,-0.387,3.96,17.5,0.0,1.0
4.07,-17.5,-0.738,3.84,17.9,0.0,1.0
4.08,-18.0,-1.04,4.08,18.5,0.0,1.0
4.09,-18.3,-1.22,4.46,18.9,0.0,1.0
4.1,-18.0,-1.27,4.46,18.6,0.0,1.0
4.11,-17.6,-1.43,4.4,18.2,0.0,1.0
4.12,-17.3,-1.85,4.39,17.9,0.0,1.0
4.13,-16.9,-2.44,4.27,17.6,0.0,1.0
4.14,-16.8,-3.11,4.02,17.6,0.0,1.0
4.15,-16.7,-3.68,3.83,17.6,0.0,1.0
4.16,-16.4,-4.26,3.73,17.3,0.0,1.0
4.17,-15.8,-4.84,3.77,17.0,0.0,1.0
4.18,-15.1,-5.35,3.87,16.5,0.0,1.0
4.19,-14.4,-5.75,4.0,16.0,0.0,1.0
4.2,-13.7,-5.99,4.09,15.5,0.0,1.0
4.21,-13.0,-6.04,4.03,14.9,0.0,1.0
4.22,-12.4,-5.95,3.83,14.3,0.0,1.0
4.23,-12.1,-5.82,3.44,13.9,0.0,1.0
4.24,-11.8,-5.62,2.96,13.4,0.0,1.0
4.25,-11.6,-5.43,2.44,13.0,0.0,1.0
4.26,-11.4,-5.4,1.96,12.8,0.0,1.0
4.28,-11.2,-5.5,1.84,12.6,0.0,1.0
4.29,-10.9,-5.63,2.07,12.5,0.0,1.0
4.3,-10.7,-5.9,2.31,12.5,0.0,1.0
4.31,-10.6,-6.21,2.58,12.5,0.0,1.0
4.32,-10.3,-6.27,2.82,12.3,0.0,1.0
4.33,-9.89,-6.08,2.81,11.9,0.0,1.0
4.34,-9.59,-5.99,2.68,11.6,0.0,1.0
4.35,-9.21,-5.93,2.58,11.2,0.0,1.0
4.36,-8.95,-6.05,2.5,11.1,0.0,1.0
4.37,-8.66,-6.07,2.43,10.8,0.0,1.0
4.38,-8.3,-5.99,2.23,10.5,0.0,1.0
4.39,-7.94,-6.04,1.85,10.1,0.0,1.0
4.4,-7.41,-5.87,1.54,9.58,0.0,1.0
4.41,-6.95,-5.65,1.36,9.06,0.0,1.0
4.42,-6.83,-5.59,1.31,8.92,0.0,1.0
4.43,-6.71,-5.29,1.46,8.67,0.0,1.0
4.44,-6.36,-4.88,1.53,8.16,0.0,1.0
4.45,-6.11,-4.69,1.6,7.86,0.0,1.0
4.46,-6.09,-4.65,2.06,7.94,0.0,1.0
4.47,-5.93,-4.46,2.39,7.8,0.0,1.0
4.48,-5.58,-4.14,2.02,7.24,0.0,1.0
4.49,-5.36,-3.81,1.41,6.73,0.0,1.0
4.5,-5.3,-3.42,0.65,6.34,0.0,1.0
4.51,-5.37,-3.23,-0.155,6.27,0.0,1.0
4.52,-5.47,-2.91,-0.676,6.24,0.0,1.0
4.53,-5.51,-2.59,-1.06,6.18,0.0,1.0
4.54,-5.53,-2.35,-1.28,6.14,0.0,1.0
4.55,-5.39,-2.22,-1.37,5.99,0.0,1.0
4.56,-5.41,-2.13,-0.921,5.89,0.0,1.0
4.57,-5.27,-1.96,-0.197,5.63,0.0,1.0
4.58,-4.98,-1.9,0.267,5.33,0.0,1.0
4.59,-4.81,-1.88,0.352,5.18,0.0,1.0
4.6,-4.87,-1.82,0.21,5.2,0.0,1.0
4.61,-5.18,-1.84,-0.233,5.5,0.0,1.0
4.62,-5.83,-2.11,-1.1,6.3,0.0,1.0
4.63,-6.68,-2.77,-2.01,7.51,0.0,1.0
4.64,-7.46,-3.52,-2.58,8.64,0.0,1.0
4.65,-7.99,-4.15,-2.83,9.44,0.0,1.0
4.66,-8.55,-4.56,-2.13,9.92,0.0,1.0
4.67,-9.46,-4.62,-0.388,10.5,0.0,1.0
4.68,-10.5,-4.52,1.48,11.6,0.0,1.0
4.69,-11.8,-4.4,3.03,13.0,0.0,1.0
4.7,-13.1,-4.25,4.23,14.4,0.0,1.0
4.71,-14.0,-4.23,5.14,15.5,0.0,1.0
4.72,-14.5,-4.6,5.48,16.2,0.0,1.0
4.73,-14.7,-5.07,5.62,16.5,0.0,1.0
4.74,-15.1,-5.7,6.01,17.2,0.0,1.0
4.75,-16.0,-6.19,6.45,18.3,0.0,1.0
4.76,-17.0,-6.28,6.97,19.4,0.0,1.0
4.77,-17.8,-5.93,7.65,20.2,0.0,1.0
4.78,-17.9,-5.31,8.28,20.4,0.0,1.0
4.79,-18.0,-4.68,8.8,20.6,0.0,1.0
4.8,-18.1,-4.19,9.08,20.7,0.0,1.0
4.81,-18.4,-4.02,9.01,20.9,0.0,1.0
4.82,-18.3,-3.94,8.81,20.7,0.0,1.0
4.83,-17.9,-3.9,8.59,20.2,0.0,1.0
4.84,-17.1,-3.75,7.95,19.2,0.0,1.0
4.85,-16.2,-3.59,7.23,18.1,0.0,1.0
4.86,-15.3,-3.41,6.65,17.0,0.0,1.0
4.87,-14.3,-3.1,6.44,16.0,0.0,1.0
4.88,-13.4,-3.07,6.46,15.2,0.0,1.0
4.89,-12.2,-3.06,6.53,14.2,0.0,1.0
4.9,-11.1,-2.99,6.52,13.2,0.0,1.0
4.91,-10.4,-3.04,6.23,12.5,0.0,1.0
4.92,-10.1,-2.99,6.17,12.2,0.0,1.0
4.93,-9.71,-2.64,5.96,11.7,0.0,1.0
4.94,-9.33,-2.51,5.3,11.0,0.0,1.0
4.95,-8.7,-2.48,4.61,10.1,0.0,1.0
4.96,-7.86,-2.56,4.2,9.28,0.0,1.0
4.97,-7.34,-2.84,3.94,8.8,0.0,1.0
4.98,-6.98,-3.06,4.07,8.64,0.0,1.0
4.99,-6.72,-3.16,4.61,8.74,0.0,1.0
5.0,-6.54,-3.09,5.4,9.02,0.0,1.0
5.01,-6.62,-2.91,6.28,9.58,0.0,1.0
5.02,-6.6,-2.56,7.08,10.0,0.0,1.0
5.03,-6.45,-2.09,7.67,10.2,0.0,1.0
5.04,-6.11,-1.67,7.98,10.2,0.0,1.0
5.05,-5.88,-1.37,8.17,10.2,0.0,1.0
5.06,-5.81,-1.02,8.41,10.3,0.0,1.0
5.07,-5.75,-0.696,8.49,10.3,0.0,1.0
5.08,-5.73,-0.476,8.46,10.2,0.0,1.0
5.09,-5.86,-0.266,8.26,10.1,0.0,1.0
5.1,-5.87,0.0407,7.86,9.81,0.0,1.0
5.11,-6.06,0.252,7.54,9.68,0.0,1.0
5.12,-6.56,0.34,7.27,9.8,0.0,1.0
5.13,-7.09,0.361,7.11,10.0,0.0,1.0
5.14,-7.62,0.361,7.19,10.5,0.0,1.0
5.15,-8.06,0.46,7.17,10.8,0.0,1.0
5.16,-8.73,0.584,6.94,11.2,0.0,1.0
5.17,-9.78,0.766,6.47,11.7,0.0,1.0
5.18,-11.1,0.952,5.98,12.6,0.0,1.0
5.19,-12.3,1.11,5.69,13.6,0.0,1.0
5.2,-13.1,1.21,5.62,14.3,0.0,1.0
5.21,-14.0,1.26,5.74,15.2,0.0,1.0
5.22,-15.2,1.26,5.78,16.3,0.0,1.0
5.23,-16.2,1.24,5.66,17.2,0.0,1.0
5.24,-17.0,1.19,5.26,17.8,0.0,1.0
5.25,-17.7,1.03,4.66,18.4,0.0,1.0
5.26,-18.4,0.992,4.17,18.9,0.0,1.0
5.27,-19.0,1.0,3.67,19.4,0.0,1.0
5.28,-19.7,1.01,3.29,20.0,0.0,1.0
5.29,-20.1,1.21,3.1,20.4,0.0,1.0
5.3,-20.3,1.29,2.8,20.6,0.0,1.0
5.31,-20.6,1.01,2.29,20.7,0.0,1.0
5.32,-20.1,0.975,2.0,20.2,0.0,1.0
5.33,-19.5,0.83,1.73,19.6,0.0,1.0
5.34,-19.1,0.286,1.1,19.1,0.0,1.0
5.35,-18.6,-0.367,0.702,18.6,0.0,1.0
5.36,-17.9,-0.97,0.592,18.0,0.0,1.0
5.37,-17.2,-1.64,0.606,17.2,0.0,1.0
5.38,-16.3,-2.37,0.636,16.5,0.0,1.0
5.39,-15.4,-3.05,0.907,15.7,0.0,1.0
5.4,-14.1,-3.55,1.16,14.6,0.0,1.0
5.41,-13.0,-4.06,1.36,13.7,0.0,1.0
5.42,-12.1,-4.51,1.65,13.0,0.0,1.0
5.43,-11.3,-4.78,1.88,12.4,0.0,1.0
5.44,-10.5,-4.92,1.95,11.8,0.0,1.0
5.45,-9.85,-4.92,1.97,11.2,0.0,1.0
5.46,-9.05,-4.82,1.87,10.4,0.0,1.0
5.47,-8.25,-4.75,1.7,9.67,0.0,1.0
5.48,-7.54,-4.76,1.49,9.04,0.0,1.0
5.49,-6.89,-4.78,1.32,8.49,0.0,1.0
5.5,-6.46,-4.8,1.21,8.14,0.0,1.0
5.51,-6.22,-4.75,1.07,7.9,0.0,1.0
5.52,-5.98,-4.58,0.903,7.59,0.0,1.0
5.53,-5.81,-4.49,0.996,7.42,0.0,1.0
5.54,-5.52,-4.21,1.29,7.06,0.0,1.0
5.56,-5.1,-3.91,1.3,6.55,0.0,1.0
5.57,-4.79,-3.76,1.09,6.18,0.0,1.0
5.58,-4.58,-3.61,1.06,5.92,0.0,1.0
5.59,-4.44,-3.54,1.12,5.79,0.0,1.0
5.6,-4.45,-3.5,1.12,5.77,0.0,1.0
5.61,-4.37,-3.47,1.11,5.69,0.0,1.0
5.62,-4.17,-3.53,1.06,5.56,0.0,1.0
5.63,-3.7,-3.51,1.01,5.2,0.0,1.0
5.64,-3.61,-3.96,1.08,5.47,0.0,1.0
5.65,-3.74,-4.36,1.2,5.87,0.0,1.0
5.66,-3.75,-4.41,1.47,5.98,0.0,1.0
5.67,-3.95,-4.26,1.69,6.05,0.0,1.0
5.68,-4.14,-4.08,1.79,6.08,0.0,1.0
5.69,-4.32,-3.87,1.73,6.06,0.0,1.0
5.7,-4.73,-3.64,1.74,6.22,0.0,1.0
5.71,-5.14,-3.62,1.72,6.52,0.0,1.0
5.72,-5.57,-3.85,1.69,6.97,0.0,1.0
5.73,-6.09,-4.16,1.86,7.61,0.0,1.0
5.74,-6.64,-4.46,2.06,8.26,0.0,1.0
5.75,-7.18,-4.77,2.33,8.93,0.0,1.0
5.76,-7.65,-5.03,2.77,9.57,0.0,1.0
5.77,-8.19,-5.3,3.31,10.3,0.0,1.0
5.78,-8.84,-5.49,3.72,11.1,0.0,1.0
5.79,-9.91,-5.74,4.0,12.1,0.0,1.0
5.8,-11.3,-6.13,4.15,13.5,0.0,1.0
5.81,-12.4,-6.46,4.33,14.6,0.0,1.0
5.82,-13.1,-6.78,4.52,15.4,0.0,1.0
5.83,-13.2,-6.96,4.85,15.7,0.0,1.0
5.84,-13.1,-6.73,5.42,15.7,0.0,1.0
5.85,-13.5,-6.28,6.28,16.2,0.0,1.0
5.86,-14.3,-5.74,6.9,16.8,0.0,1.0
5.87,-14.7,-5.24,7.16,17.2,0.0,1.0
5.88,-15.1,-4.7,7.41,17.5,0.0,1.0
5.89,-14.7,-4.15,7.38,17.0,0.0,1.0
5.9,-14.1,-3.87,6.95,16.2,0.0,1.0
5.91,-13.4,-3.77,6.42,15.4,0.0,1.0
5.92,-12.8,-3.68,6.08,14.7,0.0,1.0
5.93,-12.6,-3.51,6.21,14.5,0.0,1.0
5.94,-12.9,-3.27,6.57,14.8,0.0,1.0
5.95,-13.2,-2.92,6.53,15.0,0.0,1.0
5.96,-13.5,-2.62,6.24,15.1,0.0,1.0
5.97,-13.6,-2.24,5.63,14.9,0.0,1.0
5.98,-14.0,-1.89,4.77,14.9,0.0,1.0
5.99,-13.9,-1.55,3.9,14.5,0.0,1.0
6.0,-13.9,-1.34,3.51,14.4,0.0,1.0
6.01,-14.1,-1.18,3.41,14.6,0.0,1.0
6.02,-14.3,-0.86,3.32,14.7,0.0,1.0
6.03,-14.3,-0.45,3.2,14.6,0.0,1.0
6.04,-14.0,-0.0123,3.04,14.3,0.0,1.0
6.05,-13.7,0.168,3.02,14.0,0.0,1.0
6.06,-13.2,0.274,3.37,13.6,0.0,1.0
6.07,-12.6,0.344,3.85,13.2,0.0,1.0
6.08,-12.2,0.314,4.3,12.9,0.0,1.0
6.09,-12.1,0.0644,4.75,13.0,0.0,1.0
6.1,-11.7,0.177,4.92,12.7,0.0,1.0
6.11,-11.0,0.115,4.73,12.0,0.0,1.0
6.12,-10.5,-0.0741,4.18,11.3,0.0,1.0
6.13,-10.6,-0.414,3.86,11.3,0.0,1.0
6.14,-10.8,-0.783,3.92,11.5,0.0,1.0
6.15,-11.0,-1.11,4.16,11.8,0.0,1.0
6.16,-11.0,-1.35,4.44,11.9,0.0,1.0
6.17,-10.9,-1.26,4.63,11.9,0.0,1.0
6.18,-10.7,-0.95,4.7,11.7,0.0,1.0
6.19,-10.4,-0.486,4.72,11.4,0.0,1.0
6.2,-10.6,-0.244,4.56,11.5,0.0,1.0
6.21,-10.9,-0.224,4.24,11.7,0.0,1.0
6.22,-11.5,-0.45,3.76,12.1,0.0,1.0
6.23,-12.4,-0.986,3.47,12.9,0.0,1.0
6.24,-13.2,-1.45,3.4,13.7,0.0,1.0
6.25,-13.8,-1.74,3.39,14.3,0.0,1.0
6.26,-14.4,-1.88,3.27,14.9,0.0,1.0
6.27,-14.7,-1.59,3.09,15.1,0.0,1.0
6.28,-14.9,-1.04,2.9,15.2,0.0,1.0
6.29,-15.5,-0.688,2.82,15.7,0.0,1.0
6.3,-16.3,-0.596,2.91,16.6,0.0,1.0
6.31,-17.1,-0.698,3.03,17.4,0.0,1.0
6.32,-17.6,-0.951,3.01,17.9,0.0,1.0
6.33,-17.8,-1.43,2.66,18.1,0.0,1.0
6.34,-17.6,-1.84,2.39,17.9,0.0,1.0
6.35,-16.8,-2.0,2.41,17.1,0.0,1.0
6.36,-16.0,-2.17,2.66,16.3,0.0,1.0
6.37,-15.2,-2.43,3.0,15.7,0.0,1.0
6.38,-14.5,-2.77,3.28,15.2,0.0,1.0
6.39,-14.0,-3.19,3.11,14.7,0.0,1.0
6.4,-13.4,-3.54,2.46,14.1,0.0,1.0
6.41,-12.6,-3.72,1.74,13.2,0.0,1.0
6.42,-11.9,-3.94,1.34,12.6,0.0,1.0
6.43,-11.4,-4.13,1.13,12.2,0.0,1.0
6.44,-11.1,-4.27,0.885,11.9,0.0,1.0
6.45,-10.8,-4.42,0.833,11.7,0.0,1.0
6.46,-10.4,-4.57,0.906,11.4,0.0,1.0
6.47,-10.1,-4.75,1.1,11.2,0.0,1.0
6.48,-9.86,-4.88,1.04,11.0,0.0,1.0
6.49,-9.73,-5.06,0.834,11.0,0.0,1.0
6.5,-9.58,-5.33,0.695,11.0,0.0,1.0
6.51,-9.44,-5.64,0.829,11.0,0.0,1.0
6.52,-9.27,-5.91,0.998,11.0,0.0,1.0
6.53,-9.11,-6.23,0.967,11.1,0.0,1.0
6.54,-8.88,-6.5,0.965,11.0,0.0,1.0
6.55,-8.42,-6.62,1.09,10.8,0.0,1.0
6.56,-7.94,-6.65,1.41,10.5,0.0,1.0
6.57,-7.53,-6.69,1.88,10.2,0.0,1.0
6.58,-7.16,-6.68,2.41,10.1,0.0,1.0
6.59,-6.89,-6.65,2.94,10.0,0.0,1.0
6.6,-6.76,-6.62,3.29,10.0,0.0,1.0
6.61,-6.63,-6.59,3.3,9.91,0.0,1.0
6.62,-6.52,-6.6,2.98,9.75,0.0,1.0
6.63,-6.25,-6.57,2.5,9.4,0.0,1.0
6.64,-5.79,-6.54,1.96,8.95,0.0,1.0
6.65,-5.32,-6.58,1.46,8.59,0.0,1.0
6.66,-4.91,-6.72,1.14,8.4,0.0,1.0
6.67,-4.57,-6.73,1.08,8.21,0.0,1.0
6.68,-4.2,-6.51,1.07,7.82,0.0,1.0
6.69,-4.0,-6.15,0.95,7.4,0.0,1.0
6.7,-3.9,-5.66,0.859,6.92,0.0,1.0
6.71,-3.85,-5.13,0.818,6.47,0.0,1.0
6.72,-3.84,-4.66,0.703,6.08,0.0,1.0
6.73,-3.86,-4.25,0.693,5.79,0.0,1.0
6.74,-4.23,-3.9,0.886,5.82,0.0,1.0
6.75,-4.89,-3.52,1.22,6.15,0.0,1.0
6.76,-5.22,-3.31,1.41,6.34,0.0,1.0
6.77,-5.29,-3.4,1.5,6.47,0.0,1.0
6.78,-5.36,-3.77,1.79,6.79,0.0,1.0
6.79,-5.6,-3.97,2.37,7.26,0.0,1.0
6.8,-6.13,-3.93,2.92,7.85,0.0,1.0
6.81,-7.31,-3.83,3.58,9.0,0.0,1.0
6.82,-9.2,-3.49,4.56,10.8,0.0,1.0
6.83,-11.3,-2.78,5.5,12.8,0.0,1.0
6.85,-12.8,-1.92,5.82,14.2,0.0,1.0
6.86,-14.1,-1.15,5.57,15.2,0.0,1.0
6.87,-15.1,-0.734,5.02,15.9,0.0,1.0
6.88,-15.6,-0.652,4.56,16.3,0.0,1.0
6.89,-15.7,-0.561,4.43,16.4,0.0,1.0
6.9,-15.5,-0.67,4.93,16.3,0.0,1.0
6.91,-14.9,-0.824,6.08,16.1,0.0,1.0
6.92,-14.1,-0.968,7.52,16.0,0.0,1.0
6.93,-13.6,-0.837,8.81,16.2,0.0,1.0
6.94,-13.4,-0.39,9.49,16.4,0.0,1.0
6.95,-13.4,0.112,9.43,16.4,0.0,1.0
6.96,-13.6,0.451,8.61,16.1,0.0,1.0
6.97,-13.7,0.541,7.36,15.6,0.0,1.0
6.98,-13.5,0.757,6.13,14.9,0.0,1.0
6.99,-13.2,0.982,5.01,14.1,0.0,1.0
7.0,-12.7,1.34,3.88,13.4,0.0,1.0
7.01,-12.5,1.61,3.17,13.0,0.0,1.0
7.02,-12.5,1.68,3.25,13.0,0.0,1.0
7.03,-12.5,1.94,3.61,13.1,0.0,1.0
7.04,-12.9,1.9,3.85,13.6,0.0,1.0
7.05,-12.7,1.83,4.15,13.5,0.0,1.0
7.06,-11.8,1.31,4.51,12.7,0.0,1.0
7.07,-11.3,1.31,4.51,12.2,0.0,1.0
7.08,-10.3,1.02,4.65,11.4,0.0,1.0
7.09,-9.55,0.351,5.2,10.9,0.0,1.0
7.1,-8.92,0.0398,6.08,10.8,0.0,1.0
7.11,-8.23,0.166,7.14,10.9,0.0,1.0
7.12,-7.92,0.1,7.64,11.0,0.0,1.0
7.13,-8.1,0.0108,7.65,11.1,0.0,1.0
7.14,-8.43,-0.00659,7.26,11.1,0.0,1.0
7.15,-8.77,0.11,6.7,11.0,0.0,1.0
7.16,-9.43,0.261,5.96,11.2,0.0,1.0
7.17,-10.3,0.506,5.28,11.6,0.0,1.0
7.18,-10.7,0.646,4.74,11.7,0.0,1.0
7.19,-10.8,0.608,4.27,11.7,0.0,1.0
7.2,-11.0,0.341,3.81,11.6,0.0,1.0
7.21,-11.0,0.0223,3.44,11.5,0.0,1.0
7.22,-10.7,-0.214,3.2,11.1,0.0,1.0
7.23,-10.5,-0.0612,2.87,10.9,0.0,1.0
7.24,-10.5,0.339,2.25,10.8,0.0,1.0
7.25,-11.2,0.88,1.74,11.4,0.0,1.0
7.26,-12.6,1.4,1.77,12.8,0.0,1.0
7.27,-13.9,1.8,2.07,14.2,0.0,1.0
7.28,-14.8,1.84,2.39,15.1,0.0,1.0
7.29,-15.4,1.24,2.47,15.6,0.0,1.0
7.3,-15.7,0.342,2.4,15.9,0.0,1.0
7.31,-15.4,-0.498,2.37,15.6,0.0,1.0
7.32,-14.7,-1.16,2.48,15.0,0.0,1.0
7.33,-13.9,-1.4,2.58,14.2,0.0,1.0
7.34,-14.0,-1.07,2.61,14.3,0.0,1.0
7.35,-15.2,-0.464,2.86,15.5,0.0,1.0
7.36,-16.1,-0.236,3.03,16.4,0.0,1.0
7.37,-16.7,0.236,2.67,16.9,0.0,1.0
7.38,-17.4,0.597,2.1,17.5,0.0,1.0
7.39,-17.6,0.52,1.81,17.7,0.0,1.0
7.4,-17.0,0.458,1.62,17.1,0.0,1.0
7.41,-16.0,0.264,1.05,16.0,0.0,1.0
7.42,-15.6,-0.156,0.976,15.6,0.0,1.0
7.43,-14.9,-0.746,1.22,15.0,0.0,1.0
7.44,-13.5,-0.848,1.19,13.6,0.0,1.0
7.45,-12.6,-0.77,0.65,12.7,0.0,1.0
7.46,-12.5,-0.735,0.298,12.5,0.0,1.0
7.47,-12.7,-0.717,0.685,12.7,0.0,1.0
7.48,-12.5,-0.819,1.13,12.6,0.0,1.0
7.49,-12.5,-1.01,1.71,12.6,0.0,1.0
7.5,-11.6,-0.876,1.68,11.8,0.0,1.0
7.51,-11.1,-1.06,1.26,11.2,0.0,1.0
7.52,-10.6,-1.24,1.65,10.8,0.0,1.0
7.53,-9.78,-1.33,1.81,10.0,0.0,1.0
7.54,-9.03,-1.62,1.85,9.36,0.0,1.0
7.55,-8.14,-1.83,1.95,8.56,0.0,1.0
7.56,-7.26,-2.02,1.9,7.77,0.0,1.0
7.57,-6.55,-2.17,1.77,7.12,0.0,1.0
7.58,-5.97,-2.13,1.63,6.55,0.0,1.0
7.59,-5.7,-2.07,1.48,6.24,0.0,1.0
7.6,-5.52,-2.13,1.38,6.08,0.0,1.0
7.61,-5.09,-2.12,1.34,5.68,0.0,1.0
7.62,-4.71,-2.14,1.27,5.32,0.0,1.0
7.63,-4.31,-2.09,1.43,5.0,0.0,1.0
7.64,-3.97,-1.95,1.79,4.77,0.0,1.0
7.65,-3.71,-1.8,2.19,4.67,0.0,1.0
7.66,-3.5,-1.67,2.53,4.63,0.0,1.0
7.67,-3.48,-1.62,2.73,4.71,0.0,1.0
7.68,-3.66,-1.73,2.85,4.95,0.0,1.0
7.69,-3.99,-1.96,2.87,5.29,0.0,1.0
7.7,-4.0,-2.18,2.66,5.28,0.0,1.0
7.71,-3.94,-2.38,2.26,5.13,0.0,1.0
7.72,-4.0,-2.57,2.0,5.15,0.0,1.0
7.73,-4.11,-2.64,1.93,5.25,0.0,1.0
7.74,-4.29,-2.72,2.04,5.48,0.0,1.0
7.75,-4.63,-2.79,2.38,5.91,0.0,1.0
7.76,-5.04,-2.82,2.91,6.47,0.0,1.0
7.77,-5.28,-2.81,3.26,6.82,0.0,1.0
7.78,-5.7,-2.85,3.47,7.26,0.0,1.0
7.79,-6.31,-2.78,3.69,7.82,0.0,1.0
7.8,-6.66,-2.67,3.61,8.04,0.0,1.0
7.81,-6.83,-2.75,3.2,8.03,0.0,1.0
7.82,-7.15,-2.86,2.87,8.21,0.0,1.0
7.83,-7.61,-3.0,2.92,8.69,0.0,1.0
7.84,-8.03,-3.29,3.01,9.18,0.0,1.0
7.85,-8.42,-3.6,3.06,9.65,0.0,1.0
7.86,-8.67,-3.97,3.08,10.0,0.0,1.0
7.87,-8.85,-4.41,3.24,10.4,0.0,1.0
7.88,-9.07,-4.74,3.73,10.9,0.0,1.0
7.89,-9.67,-5.04,4.26,11.7,0.0,1.0
7.9,-10.4,-5.37,4.63,12.6,0.0,1.0
7.91,-10.9,-5.67,4.6,13.1,0.0,1.0
7.92,-11.3,-5.87,4.32,13.4,0.0,1.0
7.93,-11.6,-5.96,3.64,13.5,0.0,1.0
7.94,-12.5,-5.94,3.11,14.2,0.0,1.0
7.95,-14.6,-5.39,3.54,15.9,0.0,1.0
7.96,-16.1,-4.32,4.12,17.2,0.0,1.0
7.97,-16.9,-3.72,4.45,17.9,0.0,1.0
7.98,-17.0,-3.16,5.59,18.2,0.0,1.0
7.99,-16.4,-2.69,7.08,18.0,0.0,1.0
8.0,-15.4,-2.73,8.3,17.7,0.0,1.0
8.01,-14.6,-3.04,9.24,17.5,0.0,1.0
8.02,-13.6,-3.19,9.85,17.1,0.0,1.0
8.03,-12.6,-3.31,10.1,16.5,0.0,1.0
8.04,-11.7,-3.34,10.1,15.9,0.0,1.0
8.05,-10.9,-3.06,9.79,14.9,0.0,1.0
8.06,-10.4,-2.92,9.15,14.2,0.0,1.0
8.07,-10.3,-2.71,9.0,14.0,0.0,1.0
8.08,-10.1,-2.37,8.86,13.6,0.0,1.0
8.09,-9.83,-2.25,8.8,13.4,0.0,1.0
8.1,-9.61,-2.22,8.99,13.3,0.0,1.0
8.11,-9.3,-2.33,9.44,13.5,0.0,1.0
8.13,-8.87,-2.56,9.84,13.5,0.0,1.0
8.14,-8.47,-2.78,10.0,13.4,0.0,1.0
8.15,-8.19,-2.96,10.3,13.5,0.0,1.0
8.16,-7.76,-2.95,10.5,13.4,0.0,1.0
8.17,-7.42,-2.86,10.8,13.4,0.0,1.0
8.18,-7.06,-2.78,11.1,13.4,0.0,1.0
8.19,-6.73,-2.69,11.3,13.5,0.0,1.0
8.2,-6.46,-2.72,11.6,13.5,0.0,1.0
8.21,-6.03,-2.69,11.9,13.6,0.0,1.0
8.22,-5.68,-2.43,12.2,13.7,0.0,1.0
8.23,-5.45,-2.07,12.4,13.7,0.0,1.0
8.24,-5.48,-1.55,12.4,13.6,0.0,1.0
8.25,-5.98,-1.06,12.0,13.5,0.0,1.0
8.26,-6.77,-0.774,11.2,13.1,0.0,1.0
8.27,-8.0,-0.58,10.2,13.0,0.0,1.0
8.28,-9.35,-0.0425,9.59,13.4,0.0,1.0
8.29,-10.1,0.567,9.06,13.6,0.0,1.0
8.3,-10.3,0.958,8.62,13.5,0.0,1.0
8.31,-10.6,1.32,8.14,13.4,0.0,1.0
8.32,-11.0,1.63,7.65,13.5,0.0,1.0
8.33,-11.6,1.83,6.99,13.7,0.0,1.0
8.34,-12.2,1.86,6.22,13.8,0.0,1.0
8.35,-12.8,1.82,5.2,14.0,0.0,1.0
8.36,-13.3,1.71,3.97,14.0,0.0,1.0
8.37,-13.9,1.46,2.96,14.3,0.0,1.0
8.38,-14.6,1.11,2.44,14.8,0.0,1.0
8.39,-15.1,0.825,2.39,15.3,0.0,1.0
8.4,-15.9,0.53,2.51,16.1,0.0,1.0
8.41,-16.5,0.175,2.65,16.8,0.0,1.0
8.42,-17.0,-0.0457,2.98,17.2,0.0,1.0
8.43,-17.4,-0.119,3.36,17.7,0.0,1.0
8.44,-17.8,-0.296,3.4,18.1,0.0,1.0
8.45,-17.8,-0.515,3.03,18.1,0.0,1.0
8.46,-17.9,-0.795,2.65,18.1,0.0,1.0
8.47,-17.7,-0.854,2.38,17.9,0.0,1.0
8.48,-17.4,-1.07,1.99,17.6,0.0,1.0
8.49,-17.1,-1.41,1.74,17.2,0.0,1.0
8.5,-16.8,-1.66,2.0,17.0,0.0,1.0
8.51,-16.4,-1.87,2.39,16.7,0.0,1.0
8.52,-15.9,-2.04,2.67,16.2,0.0,1.0
8.53,-15.3,-2.36,2.85,15.8,0.0,1.0
8.54,-14.6,-2.71,3.04,15.1,0.0,1.0
8.55,-13.9,-2.99,3.02,14.6,0.0,1.0
8.56,-13.3,-3.31,2.64,13.9,0.0,1.0
8.57,-12.5,-3.55,2.36,13.2,0.0,1.0
8.58,-12.2,-3.74,2.3,12.9,0.0,1.0
8.59,-11.8,-3.79,2.18,12.6,0.0,1.0
8.6,-11.4,-3.77,2.21,12.2,0.0,1.0
8.61,-11.0,-3.9,2.63,12.0,0.0,1.0
8.62,-10.6,-4.2,3.37,11.9,0.0,1.0
8.63,-10.1,-4.31,3.36,11.5,0.0,1.0
8.64,-9.37,-4.36,3.13,10.8,0.0,1.0
8.65,-8.79,-4.42,3.78,10.5,0.0,1.0
8.66,-7.76,-4.26,3.38,9.48,0.0,1.0
8.67,-6.97,-4.6,3.23,8.96,0.0,1.0
8.68,-6.04,-4.78,3.1,8.3,0.0,1.0
8.69,-5.2,-4.74,3.12,7.7,0.0,1.0
8.7,-4.59,-4.57,3.12,7.2,0.0,1.0
8.71,-4.27,-4.21,3.15,6.77,0.0,1.0
8.72,-4.24,-3.93,3.14,6.57,0.0,1.0
8.73,-4.38,-3.76,3.2,6.61,0.0,1.0
8.74,-4.17,-3.75,2.96,6.34,0.0,1.0
8.75,-3.93,-3.91,2.65,6.14,0.0,1.0
8.76,-3.82,-4.1,2.37,6.09,0.0,1.0
8.77,-3.85,-4.19,2.2,6.1,0.0,1.0
8.78,-3.79,-4.24,2.06,6.05,0.0,1.0
8.79,-3.59,-4.12,2.13,5.87,0.0,1.0
8.8,-3.35,-3.94,2.16,5.61,0.0,1.0
8.81,-3.21,-3.75,2.18,5.4,0.0,1.0
8.82,-3.23,-3.55,2.34,5.34,0.0,1.0
8.83,-3.52,-3.45,2.51,5.53,0.0,1.0
8.84,-3.8,-3.26,2.64,5.66,0.0,1.0
8.85,-4.13,-2.99,2.72,5.78,0.0,1.0
8.86,-4.39,-2.76,2.95,5.97,0.0,1.0
8.87,-4.62,-2.38,3.22,6.11,0.0,1.0
8.88,-4.68,-2.07,3.58,6.24,0.0,1.0
8.89,-4.74,-1.8,4.16,6.56,0.0,1.0
8.9,-4.99,-1.64,4.78,7.11,0.0,1.0
8.91,-5.38,-1.37,5.46,7.78,0.0,1.0
8.92,-5.86,-1.23,6.11,8.56,0.0,1.0
8.93,-6.49,-1.21,7.0,9.62,0.0,1.0
8.94,-6.92,-1.15,7.78,10.5,0.0,1.0
8.95,-6.83,-1.31,8.53,11.0,0.0,1.0
8.96,-6.47,-1.7,9.1,11.3,0.0,1.0
8.97,-5.9,-2.08,9.28,11.2,0.0,1.0
8.98,-5.64,-2.13,9.16,11.0,0.0,1.0
8.99,-5.8,-1.81,8.94,10.8,0.0,1.0
9.0,-6.24,-1.36,9.0,11.0,0.0,1.0
9.01,-6.9,-0.994,9.62,11.9,0.0,1.0
9.02,-7.67,-0.722,10.4,12.9,0.0,1.0
9.03,-7.74,-0.59,10.7,13.2,0.0,1.0
9.04,-7.47,-0.705,10.6,13.0,0.0,1.0
9.05,-7.16,-0.921,10.5,12.7,0.0,1.0
9.06,-6.83,-1.1,10.2,12.3,0.0,1.0
9.07,-6.54,-0.798,9.83,11.8,0.0,1.0
9.08,-6.8,-0.241,9.82,11.9,0.0,1.0
9.09,-7.5,0.428,10.4,12.8,0.0,1.0
9.1,-8.53,1.22,11.5,14.4,0.0,1.0
9.11,-8.84,2.07,12.5,15.5,0.0,1.0
9.12,-9.21,2.49,12.7,15.9,0.0,1.0
9.13,-9.49,2.66,12.6,16.0,0.0,1.0
9.14,-9.6,2.86,12.7,16.2,0.0,1.0
9.15,-9.67,2.86,13.3,16.7,0.0,1.0
9.16,-9.64,2.85,14.2,17.4,0.0,1.0
9.17,-9.97,3.06,15.1,18.3,0.0,1.0
9.18,-10.6,3.52,15.9,19.4,0.0,1.0
9.19,-10.9,3.96,16.2,19.9,0.0,1.0
9.2,-10.9,4.09,15.9,19.7,0.0,1.0
9.21,-10.2,4.32,15.7,19.2,0.0,1.0
9.22,-9.64,3.59,15.9,18.9,0.0,1.0
9.23,-10.7,4.46,15.9,19.7,0.0,1.0
9.24,-8.98,5.55,15.5,18.8,0.0,1.0
9.25,-7.64,3.16,13.8,16.0,0.0,1.0
9.26,-6.13,2.0,11.8,13.5,0.0,1.0
9.27,-5.34,1.97,10.7,12.1,0.0,1.0
9.28,-5.22,2.41,10.5,12.0,0.0,1.0
9.29,-6.46,1.73,11.2,13.1,0.0,1.0
9.3,-6.43,2.0,12.5,14.2,0.0,1.0
9.31,-5.97,2.45,13.4,14.9,0.0,1.0
9.32,-5.65,2.52,13.6,14.9,0.0,1.0
9.33,-4.91,2.76,12.2,13.5,0.0,1.0
9.34,-4.5,3.03,11.8,13.0,0.0,1.0
9.35,-4.17,3.5,11.9,13.1,0.0,1.0
9.36,-4.09,3.63,12.8,13.9,0.0,1.0
9.37,-4.47,3.26,14.0,15.1,0.0,1.0
9.38,-5.05,2.7,14.5,15.6,0.0,1.0
9.39,-4.87,2.4,15.0,16.0,0.0,1.0
9.41,-4.5,2.19,14.7,15.5,0.0,1.0
9.42,-4.42,1.86,13.3,14.1,0.0,1.0
9.43,-4.4,1.87,11.5,12.5,0.0,1.0
9.44,-3.64,1.84,10.4,11.2,0.0,1.0
9.45,-2.87,2.06,9.93,10.5,0.0,1.0
9.46,-2.55,2.39,9.46,10.1,0.0,1.0
9.47,-2.43,2.86,8.84,9.6,0.0,1.0
9.48,-2.9,3.41,8.42,9.53,0.0,1.0
9.49,-3.64,3.68,8.03,9.55,0.0,1.0
9.5,-4.0,3.9,7.6,9.43,0.0,1.0
9.51,-3.8,4.2,7.02,9.02,0.0,1.0
9.52,-3.68,3.92,6.21,8.22,0.0,1.0
9.53,-3.7,3.69,5.55,7.62,0.0,1.0
9.54,-4.02,3.82,5.07,7.51,0.0,1.0
9.55,-4.23,4.11,4.68,7.53,0.0,1.0
9.56,-4.01,4.28,4.52,7.4,0.0,1.0
9.57,-3.75,4.35,4.31,7.18,0.0,1.0
9.58,-3.17,4.28,4.18,6.77,0.0,1.0
9.59,-2.54,4.2,4.22,6.47,0.0,1.0
9.6,-1.97,4.06,4.22,6.18,0.0,1.0
9.61,-1.4,4.0,3.87,5.74,0.0,1.0
9.62,-0.987,4.05,3.35,5.35,0.0,1.0
9.63,-1.15,4.39,2.96,5.42,0.0,1.0
9.64,-1.76,4.87,2.73,5.85,0.0,1.0
9.65,-2.41,5.38,2.58,6.43,0.0,1.0
9.66,-2.76,5.75,2.32,6.78,0.0,1.0
9.67,-2.75,5.9,1.98,6.81,0.0,1.0
9.68,-2.55,5.97,1.58,6.68,0.0,1.0
9.69,-2.15,5.92,1.32,6.44,0.0,1.0
9.7,-2.04,6.0,1.68,6.56,0.0,1.0
9.71,-2.23,6.21,2.77,7.16,0.0,1.0
9.72,-2.48,6.34,3.78,7.79,0.0,1.0
9.73,-2.84,6.35,4.53,8.3,0.0,1.0
9.74,-3.17,6.39,4.8,8.6,0.0,1.0
9.75,-3.31,6.4,4.93,8.73,0.0,1.0
9.76,-3.39,6.34,4.74,8.61,0.0,1.0
9.77,-3.58,6.31,4.61,8.6,0.0,1.0
9.78,-3.87,6.58,4.6,8.91,0.0,1.0
9.79,-3.62,7.25,4.26,9.15,0.0,1.0
9.8,-3.35,7.56,4.57,9.45,0.0,1.0
9.81,-2.31,7.43,4.65,9.06,0.0,1.0
9.82,-1.51,7.44,4.42,8.79,0.0,1.0
9.83,-1.96,7.08,4.05,8.39,0.0,1.0
9.84,-1.28,7.37,3.52,8.27,0.0,1.0
9.85,-0.859,7.58,3.2,8.27,0.0,1.0
9.86,-1.23,7.41,2.73,7.99,0.0,1.0
9.87,-0.883,7.88,2.78,8.4,0.0,1.0
9.88,-0.932,7.95,3.34,8.67,0.0,1.0
9.89,-1.14,7.89,4.31,9.06,0.0,1.0
9.9,-1.23,7.89,5.35,9.61,0.0,1.0
9.91,-1.37,7.89,5.8,9.89,0.0,1.0
9.92,-1.63,7.98,5.54,9.85,0.0,1.0
9.93,-1.74,8.04,5.0,9.62,0.0,1.0
9.94,-1.64,8.11,4.61,9.48,0.0,1.0
9.95,-1.47,8.04,4.42,9.29,0.0,1.0
9.96,-1.35,7.94,4.14,9.06,0.0,1.0
9.97,-1.09,7.93,3.89,8.9,0.0,1.0
9.98,-0.833,8.1,3.83,9.0,0.0,1.0
9.99,-0.709,8.27,4.02,9.23,0.0,1.0
10.0,-0.345,8.34,4.4,9.44,0.0,1.0
10.0,0.0437,8.47,4.64,9.66,0.0,1.0
0.000779,3.38,-9.33,1.11,9.99,0.0,0.0
0.0109,3.11,-9.24,1.09,9.82,0.0,0.0
0.0209,2.94,-9.2,1.03,9.72,0.0,0.0
0.031,2.85,-9.25,0.935,9.73,0.0,0.0
0.0411,2.79,-9.29,0.857,9.73,0.0,0.0
0.0512,2.71,-9.31,0.852,9.73,0.0,0.0
0.0613,2.7,-9.28,0.914,9.71,0.0,0.0
0.0713,2.75,-9.26,1.03,9.72,0.0,0.0
0.0814,2.89,-9.28,1.14,9.79,0.0,0.0
0.0915,3.11,-9.26,1.26,9.85,0.0,0.0
0.102,3.28,-9.23,1.31,9.88,0.0,0.0
0.112,3.38,-9.18,1.33,9.87,0.0,0.0
0.122,3.44,-9.15,1.27,9.86,0.0,0.0
0.132,3.44,-9.14,1.18,9.84,0.0,0.0
0.142,3.4,-9.14,1.07,9.82,0.0,0.0
0.152,3.36,-9.15,0.994,9.8,0.0,0.0
0.162,3.27,-9.17,0.906,9.78,0.0,0.0
0.172,3.17,-9.18,0.799,9.75,0.0,0.0
0.182,3.13,-9.18,0.733,9.73,0.0,0.0
0.192,3.09,-9.21,0.68,9.74,0.0,0.0
0.202,3.05,-9.27,0.671,9.78,0.0,0.0
0.212,3.02,-9.3,0.729,9.8,0.0,0.0
0.223,2.97,-9.31,0.854,9.81,0.0,0.0
0.233,2.94,-9.34,0.958,9.84,0.0,0.0
0.243,2.9,-9.35,1.04,9.84,0.0,0.0
0.253,2.88,-9.33,1.07,9.83,0.0,0.0
0.263,2.85,-9.27,1.06,9.76,0.0,0.0
0.273,2.86,-9.24,1.01,9.73,0.0,0.0
0.283,2.88,-9.23,0.931,9.72,0.0,0.0
0.293,2.91,-9.26,0.832,9.74,0.0,0.0
0.303,2.98,-9.28,0.786,9.78,0.0,0.0
0.313,3.02,-9.29,0.752,9.8,0.0,0.0
0.323,3.05,-9.29,0.738,9.8,0.0,0.0
0.333,3.09,-9.3,0.738,9.82,0.0,0.0
0.343,3.07,-9.33,0.715,9.85,0.0,0.0
0.354,3.1,-9.34,0.708,9.87,0.0,0.0
0.364,3.14,-9.38,0.733,9.92,0.0,0.0
0.374,3.21,-9.37,0.744,9.94,0.0,0.0
0.384,3.3,-9.34,0.759,9.94,0.0,0.0
0.394,3.33,-9.3,0.731,9.91,0.0,0.0
0.404,3.33,-9.24,0.684,9.84,0.0,0.0
0.414,3.34,-9.18,0.634,9.79,0.0,0.0
0.424,3.38,-9.13,0.652,9.75,0.0,0.0
0.434,3.42,-9.05,0.721,9.7,0.0,0.0
0.444,3.45,-8.98,0.78,9.65,0.0,0.0
0.454,3.38,-8.96,0.761,9.6,0.0,0.0
0.464,3.1,-8.97,0.691,9.52,0.0,0.0
0.474,2.77,-8.97,0.617,9.41,0.0,0.0
0.485,2.53,-9.06,0.596,9.42,0.0,0.0
0.495,2.38,-9.27,0.598,9.58,0.0,0.0
0.505,2.26,-9.41,0.69,9.7,0.0,0.0
0.515,2.16,-9.44,0.832,9.72,0.0,0.0
0.525,2.13,-9.48,1.02,9.77,0.0,0.0
0.535,2.18,-9.47,1.17,9.78,0.0,0.0
0.545,2.44,-9.41,1.26,9.8,0.0,0.0
0.555,2.86,-9.3,1.23,9.81,0.0,0.0
0.565,3.21,-9.27,1.02,9.87,0.0,0.0
0.575,3.49,-9.37,0.746,10.0,0.0,0.0
0.585,3.77,-9.56,0.572,10.3,0.0,0.0
0.595,3.94,-9.65,0.459,10.4,0.0,0.0
0.606,4.01,-9.56,0.453,10.4,0.0,0.0
0.616,4.01,-9.39,0.464,10.2,0.0,0.0
0.626,3.94,-9.28,0.419,10.1,0.0,0.0
0.636,3.86,-9.27,0.35,10.0,0.0,0.0
0.646,3.83,-9.34,0.289,10.1,0.0,0.0
0.656,3.74,-9.44,0.19,10.2,0.0,0.0
0.666,3.52,-9.49,0.405,10.1,0.0,0.0
0.676,3.39,-9.5,0.823,10.1,0.0,0.0
0.686,3.37,-9.4,1.18,10.1,0.0,0.0
0.696,3.28,-9.26,1.32,9.91,0.0,0.0
0.706,3.01,-9.18,1.27,9.74,0.0,0.0
0.716,2.86,-9.09,1.21,9.61,0.0,0.0
0.726,2.88,-9.05,1.2,9.58,0.0,0.0
0.737,3.07,-9.05,1.21,9.63,0.0,0.0
0.747,3.25,-9.06,1.26,9.7,0.0,0.0
0.757,3.33,-9.03,1.31,9.71,0.0,0.0
0.767,3.32,-8.93,1.4,9.63,0.0,0.0
0.777,3.32,-8.87,1.54,9.59,0.0,0.0
0.787,3.27,-8.8,1.69,9.54,0.0,0.0
0.797,3.19,-8.74,1.84,9.48,0.0,0.0
0.807,3.17,-8.63,2.1,9.43,0.0,0.0
0.817,3.14,-8.44,2.42,9.33,0.0,0.0
0.827,3.22,-8.24,2.72,9.26,0.0,0.0
0.837,3.35,-8.11,2.97,9.26,0.0,0.0
0.847,3.37,-8.02,3.12,9.24,0.0,0.0
0.857,3.23,-7.97,3.17,9.16,0.0,0.0
0.868,2.91,-7.91,3.05,8.97,0.0,0.0
0.878,2.6,-7.9,2.78,8.77,0.0,0.0
0.888,2.44,-8.09,2.44,8.79,0.0,0.0
0.898,2.4,-8.66,1.95,9.2,0.0,0.0
0.908,2.19,-9.57,0.909,9.86,0.0,0.0
0.918,1.85,-10.5,-0.705,10.7,0.0,0.0
0.928,1.36,-11.7,-5.1,12.9,0.0,0.0
0.938,0.217,-13.6,-12.7,18.7,0.0,0.0
0.948,1.19,-13.6,-8.27,15.9,0.0,0.0
0.958,2.84,-12.3,-4.2,13.3,0.0,0.0
0.968,3.82,-11.3,-2.35,12.2,0.0,0.0
0.978,4.32,-10.4,-1.39,11.4,0.0,0.0
0.988,4.43,-9.38,-1.27,10.5,0.0,0.0
0.999,4.39,-8.42,-1.31,9.59,0.0,0.0
1.01,4.46,-7.89,-1.05,9.12,0.0,0.0
1.02,4.71,-7.82,-0.641,9.15,0.0,0.0
1.03,4.69,-8.0,-0.165,9.28,0.0,0.0
1.04,4.41,-8.45,0.399,9.54,0.0,0.0
1.05,3.93,-9.16,1.07,10.0,0.0,0.0
1.06,3.25,-9.96,1.45,10.6,0.0,0.0
1.07,2.41,-10.9,1.27,11.2,0.0,0.0
1.08,1.72,-10.9,1.09,11.1,0.0,0.0
1.09,0.996,-10.4,1.22,10.5,0.0,0.0
1.1,0.347,-10.0,1.32,10.1,0.0,0.0
1.11,-0.00269,-9.71,1.19,9.78,0.0,0.0
1.12,-0.178,-9.36,1.05,9.42,0.0,0.0
1.13,0.0102,-9.02,0.972,9.07,0.0,0.0
1.14,0.691,-8.69,0.886,8.77,0.0,0.0
1.15,1.49,-8.56,0.938,8.74,0.0,0.0
1.16,1.99,-8.67,1.03,8.95,0.0,0.0
1.17,2.4,-8.94,1.06,9.32,0.0,0.0
1.18,2.7,-9.39,1.12,9.83,0.0,0.0
1.19,2.96,-9.83,1.07,10.3,0.0,0.0
1.2,3.48,-10.1,0.988,10.8,0.0,0.0
1.21,4.2,-10.4,1.26,11.3,0.0,0.0
1.22,5.1,-10.6,1.79,11.9,0.0,0.0
1.23,6.13,-10.5,2.5,12.4,0.0,0.0
1.24,7.14,-10.1,3.19,12.7,0.0,0.0
1.25,7.62,-9.79,3.62,12.9,0.0,0.0
1.26,7.26,-9.55,3.56,12.5,0.0,0.0
1.27,6.21,-9.53,2.95,11.7,0.0,0.0
1.28,4.92,-9.66,2.06,11.0,0.0,0.0
1.29,4.38,-9.71,0.71,10.7,0.0,0.0
1.3,4.48,-9.63,-1.03,10.7,0.0,0.0
1.31,4.88,-9.18,-3.51,11.0,0.0,0.0
1.32,4.97,-8.36,-7.06,12.0,0.0,0.0
1.33,4.35,-7.62,-11.6,14.5,0.0,0.0
1.34,2.5,-7.98,-15.7,17.8,0.0,0.0
1.35,0.677,-9.09,-15.2,17.7,0.0,0.0
1.36,0.762,-10.0,-12.2,15.8,0.0,0.0
1.37,2.71,-10.6,-8.68,14.0,0.0,0.0
1.38,4.72,-10.9,-4.53,12.7,0.0,0.0
1.39,5.81,-10.8,-0.812,12.3,0.0,0.0
1.4,5.67,-10.3,0.814,11.8,0.0,0.0
1.41,5.05,-9.66,1.18,11.0,0.0,0.0
1.42,5.04,-8.91,1.18,10.3,0.0,0.0
1.43,5.13,-7.88,1.38,9.51,0.0,0.0
1.44,4.78,-6.77,2.28,8.6,0.0,0.0
1.45,4.52,-6.05,3.16,8.18,0.0,0.0
1.46,5.04,-5.64,3.19,8.21,0.0,0.0
1.47,5.34,-4.89,2.47,7.65,0.0,0.0
1.48,5.55,-3.91,1.49,6.95,0.0,0.0
1.49,5.68,-3.24,0.688,6.57,0.0,0.0
1.5,5.76,-2.61,0.0177,6.33,0.0,0.0
1.51,5.53,-2.1,-0.213,5.92,0.0,0.0
1.52,5.06,-2.05,-0.0256,5.46,0.0,0.0
1.53,4.66,-2.67,0.167,5.38,0.0,0.0
1.54,4.16,-3.87,0.182,5.69,0.0,0.0
1.55,3.76,-5.47,0.135,6.63,0.0,0.0
1.56,3.17,-7.09,0.0021,7.77,0.0,0.0
1.57,2.71,-8.74,0.389,9.16,0.0,0.0
1.58,2.43,-10.4,1.64,10.8,0.0,0.0
1.59,2.3,-12.2,2.83,12.7,0.0,0.0
1.6,2.09,-13.3,2.77,13.7,0.0,0.0
1.61,2.12,-13.5,1.88,13.8,0.0,0.0
1.62,2.12,-12.9,0.374,13.1,0.0,0.0
1.63,2.28,-11.8,-1.28,12.1,0.0,0.0
1.64,3.53,-11.2,-2.11,11.9,0.0,0.0
1.65,4.67,-11.5,-1.89,12.5,0.0,0.0
1.66,5.19,-12.1,-0.645,13.1,0.0,0.0
1.67,5.61,-12.5,0.537,13.7,0.0,0.0
1.68,5.52,-12.6,0.982,13.8,0.0,0.0
1.69,5.44,-12.3,0.76,13.5,0.0,0.0
1.7,5.27,-11.7,0.0714,12.8,0.0,0.0
1.71,4.67,-11.3,-0.839,12.2,0.0,0.0
1.72,4.32,-11.0,-1.52,11.9,0.0,0.0
1.73,4.5,-10.6,-2.07,11.7,0.0,0.0
1.74,4.93,-11.0,-3.49,12.5,0.0,0.0
1.75,5.96,-13.0,-8.31,16.5,0.0,0.0
1.76,6.69,-14.5,-12.1,20.0,0.0,0.0
1.77,6.92,-13.2,-8.78,17.3,0.0,0.0
1.78,6.09,-10.1,-1.84,12.0,0.0,0.0
1.79,4.2,-8.43,1.86,9.6,0.0,0.0
1.8,2.57,-7.73,2.3,8.47,0.0,0.0
1.81,0.979,-7.75,2.18,8.11,0.0,0.0
1.83,-0.494,-8.49,1.83,8.7,0.0,0.0
1.84,-1.29,-9.8,1.47,10.0,0.0,0.0
1.85,-1.47,-11.4,0.896,11.6,0.0,0.0
1.86,-1.59,-13.1,0.333,13.2,0.0,0.0
1.87,-1.91,-14.5,-0.329,14.7,0.0,0.0
1.88,-1.91,-15.4,-0.53,15.5,0.0,0.0
1.89,-1.08,-15.7,0.122,15.7,0.0,0.0
1.9,0.13,-15.3,-0.0537,15.3,0.0,0.0
1.91,1.94,-13.2,-1.65,13.5,0.0,0.0
1.92,3.25,-10.3,-3.03,11.2,0.0,0.0
1.93,3.99,-8.63,-3.07,9.99,0.0,0.0
1.94,4.28,-7.94,-2.4,9.33,0.0,0.0
1.95,4.0,-7.48,-1.54,8.62,0.0,0.0
1.96,4.33,-7.22,-0.698,8.45,0.0,0.0
1.97,5.11,-6.89,0.124,8.58,0.0,0.0
1.98,5.31,-6.71,0.779,8.59,0.0,0.0
1.99,4.79,-6.71,1.47,8.38,0.0,0.0
2.0,3.57,-6.93,1.86,8.02,0.0,0.0
2.01,2.11,-7.05,1.91,7.61,0.0,0.0
2.02,0.984,-6.96,1.82,7.27,0.0,0.0
2.03,0.353,-6.91,1.75,7.14,0.0,0.0
2.04,-0.179,-7.14,1.79,7.36,0.0,0.0
2.05,-0.422,-7.46,1.83,7.69,0.0,0.0
2.06,-0.195,-7.53,1.82,7.75,0.0,0.0
2.07,0.191,-7.32,1.81,7.54,0.0,0.0
2.08,0.351,-6.99,1.73,7.21,0.0,0.0
2.09,0.81,-7.07,1.68,7.31,0.0,0.0
2.1,2.13,-8.09,1.8,8.56,0.0,0.0
2.11,3.54,-9.74,1.78,10.5,0.0,0.0
2.12,4.58,-11.3,1.76,12.3,0.0,0.0
2.13,5.22,-13.8,0.984,14.8,0.0,0.0
2.14,5.1,-15.3,-0.779,16.1,0.0,0.0
2.15,4.33,-13.5,-3.08,14.5,0.0,0.0
2.16,4.16,-10.7,-4.61,12.4,0.0,0.0
2.17,5.34,-7.83,-4.08,10.3,0.0,0.0
2.18,7.01,-5.72,-1.27,9.14,0.0,0.0
2.19,7.13,-6.12,1.97,9.6,0.0,0.0
2.2,5.47,-7.19,4.03,9.89,0.0,0.0
2.21,3.35,-8.52,5.13,10.5,0.0,0.0
2.22,2.22,-9.35,5.0,10.8,0.0,0.0
2.23,2.02,-9.68,3.91,10.6,0.0,0.0
2.24,1.99,-9.8,2.23,10.2,0.0,0.0
2.25,2.03,-10.0,-0.0702,10.2,0.0,0.0
2.26,2.74,-10.2,-2.56,10.8,0.0,0.0
2.27,3.92,-10.4,-5.6,12.5,0.0,0.0
2.28,5.15,-11.1,-9.53,15.5,0.0,0.0
2.29,6.52,-12.1,-13.3,19.1,0.0,0.0
2.3,7.78,-12.8,-15.1,21.3,0.0,0.0
2.31,7.94,-13.1,-14.7,21.2,0.0,0.0
2.32,6.34,-13.0,-12.4,19.1,0.0,0.0
2.33,3.92,-12.6,-9.53,16.3,0.0,0.0
2.34,2.06,-12.0,-8.14,14.7,0.0,0.0
2.35,0.976,-11.2,-7.46,13.5,0.0,0.0
2.36,0.00853,-10.4,-5.36,11.7,0.0,0.0
2.37,-0.671,-9.54,-2.65,9.92,0.0,0.0
2.38,-1.68,-8.37,-0.564,8.56,0.0,0.0
2.39,-1.81,-7.28,1.75,7.7,0.0,0.0
2.4,-0.787,-6.31,3.41,7.21,0.0,0.0
2.41,0.397,-5.31,4.2,6.78,0.0,0.0
2.42,1.45,-4.47,4.53,6.52,0.0,0.0
2.43,2.39,-3.45,4.75,6.34,0.0,0.0
2.44,3.32,-2.44,4.64,6.21,0.0,0.0
2.45,3.97,-1.61,4.2,6.0,0.0,0.0
2.46,4.73,-1.17,3.29,5.88,0.0,0.0
2.47,5.45,-1.39,2.33,6.09,0.0,0.0
2.48,6.09,-1.98,1.62,6.6,0.0,0.0
2.49,7.01,-2.62,0.358,7.5,0.0,0.0
2.5,8.23,-3.24,-2.27,9.13,0.0,0.0
2.51,8.5,-4.58,-2.53,9.98,0.0,0.0
2.52,7.51,-6.51,-2.02,10.1,0.0,0.0
2.53,6.46,-8.34,-1.78,10.7,0.0,0.0
2.54,5.93,-9.79,-1.22,11.5,0.0,0.0
2.55,5.25,-11.0,0.0326,12.2,0.0,0.0
2.56,4.14,-12.2,2.12,13.0,0.0,0.0
2.57,3.24,-13.5,4.43,14.6,0.0,0.0
2.58,2.51,-14.5,5.88,15.9,0.0,0.0
2.59,2.18,-14.8,6.03,16.1,0.0,0.0
2.6,2.56,-14.4,5.43,15.6,0.0,0.0
2.61,2.32,-13.4,4.67,14.4,0.0,0.0
2.62,2.45,-12.1,3.6,12.9,0.0,0.0
2.63,2.76,-10.8,2.64,11.5,0.0,0.0
2.64,2.99,-10.0,1.8,10.6,0.0,0.0
2.65,3.54,-9.69,0.776,10.3,0.0,0.0
2.66,4.02,-9.65,-0.00763,10.5,0.0,0.0
2.67,4.4,-9.72,-0.272,10.7,0.0,0.0
2.68,4.87,-9.86,-0.241,11.0,0.0,0.0
2.69,5.47,-9.74,0.0121,11.2,0.0,0.0
2.7,6.11,-9.44,0.273,11.2,0.0,0.0
2.71,6.96,-9.67,-0.0835,11.9,0.0,0.0
2.72,7.33,-10.4,-1.17,12.8,0.0,0.0
2.73,7.58,-11.0,-3.14,13.8,0.0,0.0
2.74,8.7,-11.4,-5.88,15.5,0.0,0.0
2.75,9.63,-10.4,-8.12,16.3,0.0,0.0
2.76,9.04,-8.79,-7.84,14.9,0.0,0.0
2.77,7.23,-8.45,-5.65,12.5,0.0,0.0
2.78,4.67,-9.61,-2.86,11.1,0.0,0.0
2.79,2.78,-11.7,-1.52,12.1,0.0,0.0
2.8,1.53,-13.8,-1.09,14.0,0.0,0.0
2.81,0.457,-15.2,0.229,15.2,0.0,0.0
2.82,-0.646,-15.7,1.17,15.7,0.0,0.0
2.83,-1.54,-15.6,1.13,15.8,0.0,0.0
2.84,-2.16,-15.6,0.697,15.8,0.0,0.0
2.85,-2.54,-15.6,0.423,15.8,0.0,0.0
2.86,-2.16,-15.3,0.156,15.5,0.0,0.0
2.87,-1.07,-14.7,0.000599,14.7,0.0,0.0
2.88,0.392,-13.7,0.253,13.7,0.0,0.0
2.89,1.49,-12.6,0.93,12.7,0.0,0.0
2.9,1.94,-11.6,1.63,11.8,0.0,0.0
2.91,2.22,-10.5,1.97,10.9,0.0,0.0
2.92,2.2,-9.59,2.22,10.1,0.0,0.0
2.93,2.17,-8.65,2.36,9.23,0.0,0.0
2.94,2.37,-7.64,2.77,8.46,0.0,0.0
2.95,2.86,-6.82,3.22,8.07,0.0,0.0
2.96,3.54,-6.28,3.34,7.95,0.0,0.0
2.97,3.93,-5.83,3.41,7.81,0.0,0.0
2.98,4.08,-5.49,3.24,7.56,0.0,0.0
2.99,4.23,-5.28,2.8,7.32,0.0,0.0
3.0,4.52,-5.38,2.54,7.47,0.0,0.0
3.01,4.52,-5.88,2.43,7.8,0.0,0.0
3.02,4.21,-6.35,2.07,7.89,0.0,0.0
3.03,3.98,-6.62,1.61,7.89,0.0,0.0
3.04,3.83,-6.7,1.15,7.8,0.0,0.0
3.05,3.88,-6.64,0.792,7.73,0.0,0.0
3.06,4.17,-6.66,0.528,7.88,0.0,0.0
3.07,4.72,-6.87,0.589,8.36,0.0,0.0
3.08,5.07,-7.07,1.05,8.76,0.0,0.0
3.09,5.4,-7.93,1.62,9.73,0.0,0.0
3.11,5.48,-9.4,1.92,11.0,0.0,0.0
3.12,5.45,-10.8,1.87,12.2,0.0,0.0
3.13,5.05,-11.8,1.83,13.0,0.0,0.0
3.14,4.04,-12.3,1.77,13.1,0.0,0.0
3.15,3.04,-12.2,1.65,12.7,0.0,0.0
3.16,2.06,-12.0,0.71,12.2,0.0,0.0
3.17,1.25,-12.5,-1.75,12.7,0.0,0.0
3.18,2.27,-12.5,-2.29,12.9,0.0,0.0
3.19,4.67,-12.0,-1.55,13.0,0.0,0.0
3.2,6.3,-10.6,-2.22,12.5,0.0,0.0
3.21,7.55,-8.19,-3.77,11.8,0.0,0.0
3.22,8.33,-6.18,-7.15,12.6,0.0,0.0
3.23,7.41,-5.79,-11.9,15.2,0.0,0.0
3.24,4.29,-7.11,-15.4,17.5,0.0,0.0
3.25,2.26,-8.43,-14.0,16.5,0.0,0.0
3.26,2.78,-8.65,-9.18,12.9,0.0,0.0
3.27,3.54,-8.58,-5.15,10.6,0.0,0.0
3.28,3.85,-8.66,-2.77,9.87,0.0,0.0
3.29,4.38,-8.63,-0.882,9.72,0.0,0.0
3.3,4.3,-8.38,1.68,9.56,0.0,0.0
3.31,3.55,-7.76,3.92,9.39,0.0,0.0
3.32,2.89,-7.02,5.27,9.24,0.0,0.0
3.33,2.24,-6.34,6.12,9.09,0.0,0.0
3.34,2.04,-5.73,6.36,8.8,0.0,0.0
3.35,2.12,-5.33,6.14,8.41,0.0,0.0
3.36,2.11,-5.22,5.85,8.12,0.0,0.0
3.37,2.29,-5.17,5.66,8.0,0.0,0.0
3.38,2.79,-5.38,5.23,8.01,0.0,0.0
3.39,3.95,-5.63,4.37,8.14,0.0,0.0
3.4,5.85,-5.53,1.61,8.21,0.0,0.0
3.41,8.08,-4.97,-4.17,10.4,0.0,0.0
3.42,8.77,-4.84,-6.1,11.7,0.0,0.0
3.43,7.84,-5.72,-4.45,10.7,0.0,0.0
3.44,6.65,-7.11,-2.84,10.1,0.0,0.0
3.45,5.63,-8.42,-0.871,10.2,0.0,0.0
3.46,4.76,-9.88,1.55,11.1,0.0,0.0
3.47,4.1,-11.4,4.14,12.8,0.0,0.0
3.48,3.79,-12.0,5.71,13.8,0.0,0.0
3.49,4.27,-11.6,5.77,13.7,0.0,0.0
3.5,5.07,-11.0,4.59,13.0,0.0,0.0
3.51,5.66,-10.6,2.74,12.3,0.0,0.0
3.52,5.25,-10.2,0.378,11.4,0.0,0.0
3.53,4.1,-9.73,-1.04,10.6,0.0,0.0
3.54,3.31,-9.85,-1.24,10.5,0.0,0.0
3.55,3.32,-10.1,-0.71,10.7,0.0,0.0
3.56,3.63,-10.2,-0.215,10.9,0.0,0.0
3.57,4.12,-10.2,0.0494,11.0,0.0,0.0
3.58,5.16,-10.1,0.27,11.4,0.0,0.0
3.59,6.16,-10.2,0.355,11.9,0.0,0.0
3.6,7.09,-10.6,0.105,12.8,0.0,0.0
3.61,8.48,-12.0,-0.765,14.7,0.0,0.0
3.62,10.3,-14.3,-2.78,17.8,0.0,0.0
3.63,11.5,-16.5,-6.24,21.0,0.0,0.0
3.64,10.8,-16.5,-10.3,22.2,0.0,0.0
3.65,9.08,-12.6,-8.71,17.8,0.0,0.0
3.66,7.13,-9.31,-1.52,11.8,0.0,0.0
3.67,5.53,-8.62,2.71,10.6,0.0,0.0
3.68,3.73,-8.77,4.02,10.3,0.0,0.0
3.69,1.63,-9.32,4.21,10.4,0.0,0.0
3.7,0.169,-10.5,3.19,10.9,0.0,0.0
3.71,-0.364,-11.6,1.93,11.8,0.0,0.0
3.72,-0.871,-12.2,0.881,12.3,0.0,0.0
3.73,-1.73,-12.5,0.201,12.7,0.0,0.0
3.74,-2.73,-12.6,-0.059,12.9,0.0,0.0
3.75,-3.47,-12.3,-0.116,12.8,0.0,0.0
3.76,-3.79,-12.0,-0.22,12.6,0.0,0.0
3.77,-3.32,-11.9,-0.471,12.4,0.0,0.0
3.78,-1.56,-12.0,-0.776,12.1,0.0,0.0
3.79,1.01,-12.3,-0.938,12.4,0.0,0.0
3.8,2.75,-12.7,-0.995,13.0,0.0,0.0
3.81,3.93,-12.5,-1.71,13.2,0.0,0.0
3.82,4.5,-11.1,-2.43,12.2,0.0,0.0
3.83,4.5,-8.93,-1.22,10.1,0.0,0.0
3.84,4.33,-7.25,0.232,8.44,0.0,0.0
3.85,4.39,-6.08,1.05,7.57,0.0,0.0
3.86,4.52,-5.63,1.63,7.4,0.0,0.0
3.87,4.28,-5.93,2.05,7.59,0.0,0.0
3.88,3.95,-6.7,2.12,8.07,0.0,0.0
3.89,3.83,-7.63,2.01,8.77,0.0,0.0
3.9,3.84,-8.21,1.86,9.25,0.0,0.0
3.91,3.71,-8.27,1.69,9.22,0.0,0.0
3.92,3.4,-7.96,1.45,8.78,0.0,0.0
3.93,3.19,-7.78,1.11,8.48,0.0,0.0
3.94,2.91,-8.06,0.668,8.59,0.0,0.0
3.95,2.63,-8.62,0.248,9.02,0.0,0.0
3.96,2.5,-9.15,-0.066,9.49,0.0,0.0
3.97,2.24,-9.55,-0.51,9.83,0.0,0.0
3.98,1.83,-9.95,-1.19,10.2,0.0,0.0
3.99,1.76,-9.98,-2.03,10.3,0.0,0.0
4.0,2.46,-9.46,-1.65,9.92,0.0,0.0
4.01,3.42,-8.61,-0.201,9.27,0.0,0.0
4.02,3.9,-8.24,0.884,9.16,0.0,0.0
4.03,3.92,-8.29,1.85,9.36,0.0,0.0
4.04,4.43,-8.25,3.01,9.84,0.0,0.0
4.05,5.2,-8.68,3.98,10.9,0.0,0.0
4.06,5.31,-9.36,5.36,12.0,0.0,0.0
4.07,5.29,-9.84,6.62,13.0,0.0,0.0
4.08,5.17,-10.2,7.17,13.5,0.0,0.0
4.09,5.17,-10.2,6.89,13.3,0.0,0.0
4.1,5.69,-9.77,6.52,13.0,0.0,0.0
4.11,6.08,-8.82,5.96,12.3,0.0,0.0
4.12,5.97,-7.67,5.12,11.0,0.0,0.0
4.13,5.92,-6.34,3.28,9.28,0.0,0.0
4.14,6.38,-5.17,-2.07,8.47,0.0,0.0
4.15,6.75,-5.01,-11.3,14.1,0.0,0.0
4.16,6.73,-7.17,-18.3,20.7,0.0,0.0
4.17,6.83,-9.64,-14.9,19.0,0.0,0.0
4.18,6.82,-11.4,-10.9,17.1,0.0,0.0
4.19,6.36,-13.3,-9.79,17.7,0.0,0.0
4.2,4.57,-14.4,-10.3,18.2,0.0,0.0
4.21,2.58,-14.3,-10.0,17.7,0.0,0.0
4.22,2.12,-13.7,-8.74,16.4,0.0,0.0
4.23,1.66,-12.7,-7.4,14.8,0.0,0.0
4.24,0.973,-11.7,-6.38,13.3,0.0,0.0
4.25,1.14,-10.5,-4.07,11.3,0.0,0.0
4.26,1.68,-8.76,-0.272,8.92,0.0,0.0
4.27,2.6,-7.03,2.87,8.02,0.0,0.0
4.28,3.46,-5.08,5.21,8.06,0.0,0.0
4.29,4.87,-3.62,6.43,8.84,0.0,0.0
4.3,5.75,-2.88,6.8,9.36,0.0,0.0
4.31,6.62,-2.68,7.39,10.3,0.0,0.0
4.32,6.97,-2.73,6.63,10.0,0.0,0.0
4.33,7.53,-2.74,4.96,9.43,0.0,0.0
4.34,8.68,-2.49,3.79,9.79,0.0,0.0
4.35,9.86,-2.16,1.5,10.2,0.0,0.0
4.36,11.1,-1.31,-2.0,11.4,0.0,0.0
4.37,10.8,-1.35,-2.19,11.1,0.0,0.0
4.39,9.28,-2.73,-2.38,9.96,0.0,0.0
4.4,8.22,-4.96,-3.29,10.1,0.0,0.0
4.41,7.27,-6.96,-2.34,10.3,0.0,0.0
4.42,5.7,-8.57,-0.46,10.3,0.0,0.0
4.43,3.82,-10.0,1.31,10.8,0.0,0.0
4.44,2.93,-11.4,3.18,12.2,0.0,0.0
4.45,2.6,-12.8,5.21,14.1,0.0,0.0
4.46,2.15,-14.2,6.44,15.8,0.0,0.0
4.47,1.37,-15.4,6.81,16.9,0.0,0.0
4.48,1.49,-16.4,6.39,17.6,0.0,0.0
4.49,1.06,-16.4,5.82,17.4,0.0,0.0
4.5,-0.196,-15.8,5.42,16.7,0.0,0.0
4.51,-1.09,-15.0,4.73,15.8,0.0,0.0
4.52,-1.44,-14.4,3.58,14.9,0.0,0.0
4.53,-1.4,-13.4,0.688,13.5,0.0,0.0
4.54,-1.37,-11.6,-4.86,12.7,0.0,0.0
4.55,-0.786,-10.5,-3.96,11.3,0.0,0.0
4.56,-0.257,-10.5,-1.28,10.6,0.0,0.0
4.57,0.182,-11.0,0.252,11.0,0.0,0.0
4.58,0.601,-11.4,0.783,11.5,0.0,0.0
4.59,0.709,-11.7,0.628,11.7,0.0,0.0
4.6,1.04,-11.3,0.45,11.4,0.0,0.0
4.61,2.08,-10.8,-0.155,11.0,0.0,0.0
4.62,3.14,-11.7,-2.21,12.3,0.0,0.0
4.63,2.91,-13.1,-6.13,14.7,0.0,0.0
4.64,2.91,-13.1,-9.28,16.3,0.0,0.0
4.65,4.45,-11.3,-8.63,14.9,0.0,0.0
4.66,4.6,-9.43,-3.81,11.2,0.0,0.0
4.67,3.61,-8.83,0.759,9.57,0.0,0.0
4.68,3.35,-8.73,2.15,9.6,0.0,0.0
4.69,3.34,-8.88,2.54,9.83,0.0,0.0
4.7,2.9,-9.72,2.92,10.6,0.0,0.0
4.71,1.99,-11.0,2.27,11.4,0.0,0.0
4.72,0.951,-12.0,0.968,12.1,0.0,0.0
4.73,-0.163,-12.4,0.0717,12.4,0.0,0.0
4.74,-1.43,-12.6,-1.28,12.8,0.0,0.0
4.75,-2.39,-12.9,-2.31,13.3,0.0,0.0
4.76,-1.62,-12.8,-1.01,12.9,0.0,0.0
4.77,-0.0262,-12.7,0.463,12.7,0.0,0.0
4.78,1.41,-12.8,1.18,12.9,0.0,0.0
4.79,2.75,-12.8,1.32,13.2,0.0,0.0
4.8,4.42,-12.8,1.23,13.6,0.0,0.0
4.81,6.13,-12.3,1.29,13.8,0.0,0.0
4.82,7.46,-11.4,1.44,13.7,0.0,0.0
4.83,7.95,-10.2,1.5,13.0,0.0,0.0
4.84,8.02,-8.94,1.4,12.1,0.0,0.0
4.85,7.89,-8.06,1.21,11.3,0.0,0.0
4.86,7.59,-7.44,1.2,10.7,0.0,0.0
4.87,7.0,-7.03,1.15,9.99,0.0,0.0
4.88,6.17,-6.92,1.06,9.34,0.0,0.0
4.89,5.51,-7.35,0.812,9.22,0.0,0.0
4.9,5.48,-7.93,0.525,9.65,0.0,0.0
4.91,5.01,-8.14,0.103,9.55,0.0,0.0
4.92,4.01,-8.18,-0.167,9.11,0.0,0.0
4.93,3.07,-8.07,-0.0301,8.64,0.0,0.0
4.94,2.32,-7.9,0.165,8.23,0.0,0.0
4.95,1.65,-7.87,0.213,8.04,0.0,0.0
4.96,0.945,-7.86,0.0536,7.92,0.0,0.0
4.97,0.239,-7.77,-0.385,7.79,0.0,0.0
4.98,-0.249,-7.51,-0.854,7.57,0.0,0.0
4.99,-0.498,-7.21,-1.06,7.3,0.0,0.0
5.0,-0.479,-7.05,-0.92,7.13,0.0,0.0
5.01,-0.194,-7.22,-0.548,7.24,0.0,0.0
5.02,0.173,-7.78,0.0964,7.78,0.0,0.0
5.03,0.486,-8.63,0.759,8.67,0.0,0.0
5.04,0.758,-9.45,1.2,9.55,0.0,0.0
5.05,1.02,-10.1,1.62,10.3,0.0,0.0
5.06,1.34,-10.5,2.03,10.7,0.0,0.0
5.07,1.97,-10.6,2.76,11.1,0.0,0.0
5.08,2.63,-10.7,3.63,11.6,0.0,0.0
5.09,3.1,-11.1,4.02,12.2,0.0,0.0
5.1,4.17,-11.4,3.88,12.8,0.0,0.0
5.11,5.61,-11.7,3.79,13.6,0.0,0.0
5.12,7.05,-12.1,3.81,14.5,0.0,0.0
5.13,8.59,-12.2,3.8,15.4,0.0,0.0
5.14,10.1,-11.2,1.79,15.2,0.0,0.0
5.15,11.6,-9.08,-5.9,15.8,0.0,0.0
5.16,13.1,-6.1,-18.2,23.3,0.0,0.0
5.17,10.9,-3.91,-16.4,20.1,0.0,0.0
5.18,7.12,-3.38,-13.7,15.8,0.0,0.0
5.19,4.82,-4.23,-9.3,11.3,0.0,0.0
5.2,4.53,-5.82,-3.72,8.26,0.0,0.0
5.21,5.61,-7.53,-0.401,9.4,0.0,0.0
5.22,7.51,-8.86,1.1,11.7,0.0,0.0
5.23,8.58,-9.46,1.66,12.9,0.0,0.0
5.24,8.53,-9.33,2.96,13.0,0.0,0.0
5.25,6.93,-8.41,4.18,11.7,0.0,0.0
5.26,5.0,-7.31,5.07,10.2,0.0,0.0
5.27,3.06,-6.28,6.41,9.48,0.0,0.0
5.28,1.47,-5.48,7.68,9.55,0.0,0.0
5.29,1.17,-4.99,8.37,9.81,0.0,0.0
5.3,1.72,-4.39,8.03,9.31,0.0,0.0
5.31,2.3,-3.82,7.29,8.55,0.0,0.0
5.32,3.15,-3.8,6.26,7.97,0.0,0.0
5.33,4.16,-4.39,4.96,7.83,0.0,0.0
5.34,5.03,-5.08,3.44,7.93,0.0,0.0
5.35,5.74,-5.84,-1.14,8.27,0.0,0.0
5.36,5.2,-6.53,-8.38,11.8,0.0,0.0
5.37,4.21,-8.37,-5.02,10.6,0.0,0.0
5.38,3.2,-10.1,-3.2,11.1,0.0,0.0
5.39,2.36,-11.4,-0.379,11.7,0.0,0.0
5.4,2.27,-12.6,3.28,13.2,0.0,0.0
5.41,2.91,-13.6,6.4,15.3,0.0,0.0
5.42,3.63,-14.4,7.24,16.5,0.0,0.0
5.43,3.29,-14.6,6.62,16.3,0.0,0.0
5.44,2.66,-14.3,5.71,15.6,0.0,0.0
5.45,2.6,-13.6,4.82,14.7,0.0,0.0
5.46,2.38,-13.0,3.74,13.8,0.0,0.0
5.47,2.57,-12.6,2.1,13.1,0.0,0.0
5.48,3.22,-11.8,0.101,12.3,0.0,0.0
5.49,3.76,-10.9,-1.87,11.7,0.0,0.0
5.5,4.15,-10.2,-3.44,11.5,0.0,0.0
5.51,4.37,-9.57,-4.82,11.6,0.0,0.0
5.52,5.77,-9.08,-6.03,12.3,0.0,0.0
5.53,8.98,-9.04,-8.3,15.2,0.0,0.0
5.54,12.4,-10.1,-10.9,19.3,0.0,0.0
5.55,12.6,-11.1,-7.51,18.4,0.0,0.0
5.56,9.95,-10.8,-1.76,14.8,0.0,0.0
5.57,7.33,-10.0,1.64,12.5,0.0,0.0
5.58,5.38,-9.79,2.96,11.6,0.0,0.0
5.59,3.54,-10.3,3.4,11.4,0.0,0.0
5.6,1.67,-11.9,2.51,12.3,0.0,0.0
5.61,0.0974,-13.6,0.45,13.6,0.0,0.0
5.62,-1.4,-14.8,-1.18,14.9,0.0,0.0
5.63,-2.55,-14.9,-1.53,15.2,0.0,0.0
5.64,-2.89,-14.0,-0.623,14.3,0.0,0.0
5.65,-3.15,-13.1,0.245,13.5,0.0,0.0
5.67,-3.66,-12.9,0.674,13.4,0.0,0.0
5.68,-3.9,-12.8,0.639,13.4,0.0,0.0
5.69,-3.13,-12.7,0.0483,13.1,0.0,0.0
5.7,-0.829,-12.2,-0.294,12.2,0.0,0.0
5.71,1.93,-11.7,-0.0263,11.9,0.0,0.0
5.72,3.65,-11.5,0.0129,12.1,0.0,0.0
5.73,4.33,-11.3,-0.032,12.1,0.0,0.0
5.74,4.67,-10.6,0.053,11.6,0.0,0.0
5.75,4.86,-9.39,0.279,10.6,0.0,0.0
5.76,4.94,-8.14,0.451,9.54,0.0,0.0
5.77,4.97,-6.94,0.375,8.54,0.0,0.0
5.78,5.06,-6.06,1.12,7.97,0.0,0.0
5.79,4.82,-5.9,1.89,7.85,0.0,0.0
5.8,3.91,-6.57,2.67,8.1,0.0,0.0
5.81,3.56,-7.58,2.71,8.8,0.0,0.0
5.82,3.38,-8.39,2.33,9.34,0.0,0.0
5.83,3.13,-8.93,2.0,9.67,0.0,0.0
5.84,2.96,-9.02,1.75,9.65,0.0,0.0
5.85,2.81,-8.91,1.61,9.48,0.0,0.0
5.86,2.87,-8.89,1.56,9.47,0.0,0.0
5.87,3.19,-8.96,1.41,9.62,0.0,0.0
5.88,3.5,-9.09,1.0,9.79,0.0,0.0
5.89,3.58,-9.26,0.214,9.93,0.0,0.0
5.9,3.38,-9.31,-0.872,9.95,0.0,0.0
5.91,3.18,-9.19,-2.14,9.96,0.0,0.0
5.92,3.09,-9.03,-3.28,10.1,0.0,0.0
5.93,3.15,-8.85,-3.1,9.89,0.0,0.0
5.94,3.4,-8.55,-1.59,9.34,0.0,0.0
5.95,3.69,-8.15,0.034,8.94,0.0,0.0
5.96,4.22,-8.01,1.24,9.14,0.0,0.0
5.97,4.48,-8.26,2.32,9.68,0.0,0.0
5.98,4.44,-8.56,3.48,10.3,0.0,0.0
5.99,4.13,-8.99,4.99,11.1,0.0,0.0
6.0,3.68,-9.44,6.47,12.0,0.0,0.0
6.01,3.23,-9.97,7.79,13.1,0.0,0.0
6.02,2.71,-10.4,9.19,14.2,0.0,0.0
6.03,2.54,-10.6,8.76,14.0,0.0,0.0
6.04,2.87,-10.1,7.18,12.7,0.0,0.0
6.05,3.36,-9.51,5.75,11.6,0.0,0.0
6.06,3.22,-9.07,4.49,10.6,0.0,0.0
6.07,3.03,-8.74,2.59,9.6,0.0,0.0
6.08,3.5,-8.49,-0.696,9.2,0.0,0.0
6.09,4.6,-8.37,-5.36,10.9,0.0,0.0
6.1,6.07,-8.54,-10.4,14.8,0.0,0.0
6.11,7.58,-8.89,-14.3,18.5,0.0,0.0
6.12,8.89,-9.59,-15.3,20.1,0.0,0.0
6.13,9.89,-10.2,-13.5,19.6,0.0,0.0
6.14,11.0,-10.4,-11.6,19.1,0.0,0.0
6.15,12.1,-10.5,-11.0,19.5,0.0,0.0
6.16,12.2,-10.6,-10.9,19.5,0.0,0.0
6.17,9.47,-11.2,-9.26,17.3,0.0,0.0
6.18,5.93,-11.4,-7.27,14.7,0.0,0.0
6.19,3.34,-10.7,-6.38,12.9,0.0,0.0
6.2,2.45,-9.51,-5.49,11.3,0.0,0.0
6.21,2.19,-8.1,-3.57,9.12,0.0,0.0
6.22,1.62,-6.85,-0.487,7.05,0.0,0.0
6.23,0.697,-5.77,1.92,6.12,0.0,0.0
6.24,1.2,-4.56,3.94,6.15,0.0,0.0
6.25,2.41,-3.55,6.25,7.58,0.0,0.0
6.26,3.54,-2.56,7.64,8.8,0.0,0.0
6.27,3.6,-2.13,8.13,9.14,0.0,0.0
6.28,3.31,-2.34,7.91,8.89,0.0,0.0
6.29,3.35,-2.61,6.83,8.04,0.0,0.0
6.3,4.26,-2.82,5.12,7.23,0.0,0.0
6.31,5.76,-3.23,3.57,7.5,0.0,0.0
6.32,7.23,-3.56,1.01,8.12,0.0,0.0
6.33,7.81,-4.37,-2.92,9.42,0.0,0.0
6.34,6.63,-6.62,-5.64,10.9,0.0,0.0
6.35,5.28,-9.1,-6.01,12.1,0.0,0.0
6.36,4.19,-10.7,-5.44,12.7,0.0,0.0
6.37,3.11,-11.3,-3.69,12.3,0.0,0.0
6.38,2.68,-11.1,-0.538,11.5,0.0,0.0
6.39,2.74,-11.2,3.3,12.0,0.0,0.0
6.4,3.01,-12.0,5.98,13.7,0.0,0.0
6.41,3.11,-13.1,6.82,15.1,0.0,0.0
6.42,2.82,-13.8,6.33,15.5,0.0,0.0
6.43,2.3,-14.0,4.74,15.0,0.0,0.0
6.44,1.59,-13.7,1.13,13.8,0.0,0.0
6.45,1.05,-12.8,-3.18,13.3,0.0,0.0
6.46,0.493,-12.1,-4.27,12.9,0.0,0.0
6.47,1.03,-11.5,-2.88,11.9,0.0,0.0
6.48,2.15,-11.2,-0.529,11.4,0.0,0.0
6.49,2.63,-10.8,1.12,11.2,0.0,0.0
6.5,2.4,-10.1,1.38,10.5,0.0,0.0
6.51,1.74,-9.21,0.807,9.4,0.0,0.0
6.52,1.12,-8.15,-0.329,8.23,0.0,0.0
6.53,1.08,-7.63,-3.41,8.43,0.0,0.0
6.54,1.0,-10.3,-7.93,13.1,0.0,0.0
6.55,0.719,-13.2,-7.74,15.3,0.0,0.0
6.56,1.45,-14.9,-7.92,16.9,0.0,0.0
6.57,3.19,-16.1,-9.6,19.0,0.0,0.0
6.58,5.24,-15.8,-7.81,18.4,0.0,0.0
6.59,5.24,-14.2,-2.76,15.4,0.0,0.0
6.6,4.31,-12.6,0.158,13.3,0.0,0.0
6.61,3.7,-11.4,1.06,12.0,0.0,0.0
6.62,2.39,-10.8,1.65,11.1,0.0,0.0
6.63,0.883,-10.8,1.22,10.9,0.0,0.0
6.64,-0.208,-11.2,0.0117,11.2,0.0,0.0
6.65,-0.812,-11.8,-0.813,11.9,0.0,0.0
6.66,-0.469,-12.4,-0.458,12.5,0.0,0.0
6.67,0.572,-12.8,0.456,12.8,0.0,0.0
6.68,1.94,-13.1,1.2,13.3,0.0,0.0
6.69,3.52,-13.3,1.48,13.8,0.0,0.0
6.7,5.11,-13.0,1.53,14.1,0.0,0.0
6.71,6.49,-12.0,1.69,13.8,0.0,0.0
6.72,7.2,-10.4,1.88,12.8,0.0,0.0
6.73,7.4,-8.84,1.84,11.7,0.0,0.0
6.74,7.31,-7.31,1.71,10.5,0.0,0.0
6.75,7.38,-6.08,1.34,9.65,0.0,0.0
6.76,7.33,-5.1,1.04,8.99,0.0,0.0
6.77,7.22,-4.42,0.688,8.49,0.0,0.0
6.78,7.34,-4.11,0.317,8.42,0.0,0.0
6.79,7.1,-4.33,0.39,8.32,0.0,0.0
6.8,6.04,-5.27,0.579,8.04,0.0,0.0
6.81,4.7,-5.98,0.67,7.63,0.0,0.0
6.82,3.64,-6.44,0.703,7.43,0.0,0.0
6.83,2.95,-6.94,0.848,7.58,0.0,0.0
6.84,2.58,-7.4,0.975,7.9,0.0,0.0
6.85,2.45,-7.91,1.03,8.35,0.0,0.0
6.86,2.38,-8.49,1.11,8.89,0.0,0.0
6.87,2.3,-9.11,1.16,9.46,0.0,0.0
6.88,2.19,-9.49,1.18,9.81,0.0,0.0
6.89,1.73,-9.33,1.17,9.56,0.0,0.0
6.9,1.23,-9.04,1.1,9.19,0.0,0.0
6.91,1.16,-9.16,1.12,9.3,0.0,0.0
6.92,1.35,-9.65,1.04,9.8,0.0,0.0
6.93,1.44,-10.5,1.25,10.7,0.0,0.0
6.95,1.29,-11.5,1.62,11.7,0.0,0.0
6.96,0.82,-12.2,1.82,12.3,0.0,0.0
6.97,0.96,-12.3,2.04,12.5,0.0,0.0
6.98,1.38,-11.6,2.46,11.9,0.0,0.0
6.99,1.79,-10.7,3.89,11.5,0.0,0.0
7.0,2.12,-10.3,4.34,11.4,0.0,0.0
7.01,2.46,-9.76,3.59,10.7,0.0,0.0
7.02,3.02,-9.24,3.17,10.2,0.0,0.0
7.03,4.35,-8.67,3.11,10.2,0.0,0.0
7.04,6.1,-7.73,3.4,10.4,0.0,0.0
7.05,6.74,-6.97,3.59,10.3,0.0,0.0
7.06,6.59,-6.04,2.8,9.37,0.0,0.0
7.07,6.7,-5.42,0.22,8.62,0.0,0.0
7.08,7.63,-5.61,-5.44,10.9,0.0,0.0
7.09,9.16,-6.53,-14.1,18.1,0.0,0.0
7.1,9.74,-8.33,-18.2,22.3,0.0,0.0
7.11,7.76,-10.5,-16.9,21.4,0.0,0.0
7.12,4.77,-12.1,-13.3,18.6,0.0,0.0
7.13,2.99,-13.4,-8.29,16.0,0.0,0.0
7.14,2.18,-14.4,-4.69,15.3,0.0,0.0
7.15,2.15,-14.2,-2.8,14.7,0.0,0.0
7.16,2.77,-12.9,-0.575,13.2,0.0,0.0
7.17,3.15,-11.2,0.859,11.7,0.0,0.0
7.18,3.5,-9.86,1.82,10.6,0.0,0.0
7.19,3.59,-8.75,2.78,9.86,0.0,0.0
7.2,3.6,-7.32,3.16,8.75,0.0,0.0
7.21,4.17,-5.61,2.73,7.51,0.0,0.0
7.22,4.85,-4.01,1.5,6.47,0.0,0.0
7.23,5.76,-2.68,-0.161,6.35,0.0,0.0
7.24,6.84,-1.58,-0.798,7.07,0.0,0.0
7.25,7.5,-1.16,-0.326,7.6,0.0,0.0
7.26,7.65,-1.29,0.396,7.76,0.0,0.0
7.27,7.82,-1.72,0.888,8.05,0.0,0.0
7.28,8.2,-2.7,1.07,8.7,0.0,0.0
7.29,8.31,-4.18,1.16,9.37,0.0,0.0
7.3,7.93,-5.71,0.899,9.81,0.0,0.0
7.31,7.69,-7.12,0.0971,10.5,0.0,0.0
7.32,7.19,-8.61,0.0777,11.2,0.0,0.0
7.33,6.27,-10.0,1.68,12.0,0.0,0.0
7.34,5.12,-11.5,3.53,13.1,0.0,0.0
7.35,3.73,-12.5,4.07,13.6,0.0,0.0
7.36,2.42,-12.9,3.27,13.6,0.0,0.0
7.37,0.829,-13.7,2.04,13.8,0.0,0.0
7.38,-0.16,-14.2,1.02,14.2,0.0,0.0
7.39,-0.0965,-13.7,0.266,13.7,0.0,0.0
7.4,0.996,-12.3,-0.17,12.4,0.0,0.0
7.41,2.16,-11.3,-0.524,11.5,0.0,0.0
7.42,2.8,-10.8,-0.69,11.2,0.0,0.0
7.43,2.87,-10.4,-0.482,10.8,0.0,0.0
7.44,2.81,-9.78,-0.324,10.2,0.0,0.0
7.45,2.78,-9.3,-0.248,9.71,0.0,0.0
7.46,2.51,-8.98,-0.265,9.33,0.0,0.0
7.47,2.29,-8.72,-0.375,9.02,0.0,0.0
7.48,2.06,-8.45,-0.453,8.7,0.0,0.0
7.49,1.7,-7.98,-0.827,8.2,0.0,0.0
7.5,1.88,-7.73,-1.49,8.09,0.0,0.0
7.51,2.9,-8.44,-2.8,9.35,0.0,0.0
7.52,3.68,-10.1,-3.92,11.5,0.0,0.0
7.53,4.31,-11.5,-4.32,13.0,0.0,0.0
7.54,5.03,-12.1,-5.18,14.1,0.0,0.0
7.55,5.34,-12.2,-5.41,14.4,0.0,0.0
7.56,4.9,-12.4,-4.63,14.1,0.0,0.0
7.57,3.8,-12.6,-3.25,13.6,0.0,0.0
7.58,2.47,-12.7,-1.65,13.1,0.0,0.0
7.59,1.47,-12.5,-0.585,12.6,0.0,0.0
7.6,0.738,-12.4,0.245,12.4,0.0,0.0
7.61,-0.132,-12.2,0.76,12.2,0.0,0.0
7.62,-0.956,-11.8,0.661,11.9,0.0,0.0
7.63,-1.2,-11.4,0.547,11.5,0.0,0.0
7.64,-0.603,-11.3,0.512,11.3,0.0,0.0
7.65,0.403,-11.6,0.286,11.6,0.0,0.0
7.66,1.55,-12.1,0.0736,12.2,0.0,0.0
7.67,2.72,-12.3,0.286,12.6,0.0,0.0
7.68,3.68,-11.7,1.23,12.4,0.0,0.0
7.69,4.41,-11.0,2.1,12.1,0.0,0.0
7.7,4.87,-10.1,2.52,11.5,0.0,0.0
7.71,5.22,-8.98,2.61,10.7,0.0,0.0
7.72,5.56,-8.02,2.5,10.1,0.0,0.0
7.73,5.99,-7.36,2.15,9.73,0.0,0.0
7.74,6.51,-6.89,1.19,9.55,0.0,0.0
7.75,6.95,-6.77,-0.879,9.74,0.0,0.0
7.76,7.0,-7.21,-2.87,10.5,0.0,0.0
7.77,6.59,-8.01,-3.27,10.9,0.0,0.0
7.78,5.67,-8.28,-2.27,10.3,0.0,0.0
7.79,4.45,-8.09,-1.22,9.32,0.0,0.0
7.8,3.44,-8.14,-0.394,8.84,0.0,0.0
7.81,2.7,-8.31,0.232,8.74,0.0,0.0
7.82,2.32,-8.45,0.681,8.79,0.0,0.0
7.83,2.22,-8.47,0.946,8.81,0.0,0.0
7.84,2.3,-8.37,1.07,8.74,0.0,0.0
7.85,2.45,-8.29,1.13,8.72,0.0,0.0
7.86,2.61,-8.39,1.05,8.85,0.0,0.0
7.87,2.82,-8.76,0.813,9.24,0.0,0.0
7.88,3.01,-9.28,0.268,9.76,0.0,0.0
7.89,3.13,-9.69,-0.668,10.2,0.0,0.0
7.9,3.35,-9.94,-1.73,10.6,0.0,0.0
7.91,3.62,-10.2,-2.37,11.1,0.0,0.0
7.92,3.87,-10.1,-2.26,11.0,0.0,0.0
7.93,3.78,-9.54,-1.45,10.4,0.0,0.0
7.94,3.74,-9.12,-0.343,9.87,0.0,0.0
7.95,3.92,-9.01,0.682,9.85,0.0,0.0
7.96,4.23,-8.52,1.37,9.61,0.0,0.0
7.97,4.72,-8.13,1.95,9.6,0.0,0.0
7.98,4.75,-8.13,2.37,9.71,0.0,0.0
7.99,4.42,-8.29,2.76,9.79,0.0,0.0
8.0,3.85,-8.58,3.39,9.99,0.0,0.0
8.01,3.23,-8.87,4.17,10.3,0.0,0.0
8.02,2.73,-9.49,4.51,10.9,0.0,0.0
8.03,2.41,-10.4,3.91,11.3,0.0,0.0
8.04,2.46,-10.8,2.0,11.3,0.0,0.0
8.05,2.71,-10.5,0.01,10.9,0.0,0.0
8.06,3.05,-9.45,-1.2,10.0,0.0,0.0
8.07,3.69,-8.32,-1.65,9.25,0.0,0.0
8.08,4.53,-7.68,-1.71,9.07,0.0,0.0
8.09,5.43,-7.34,-1.87,9.32,0.0,0.0
8.1,6.22,-7.22,-2.37,9.82,0.0,0.0
8.11,6.91,-7.31,-3.27,10.6,0.0,0.0
8.12,7.58,-7.6,-4.54,11.7,0.0,0.0
8.13,8.19,-8.05,-6.18,13.0,0.0,0.0
8.14,8.49,-8.57,-7.87,14.4,0.0,0.0
8.15,8.49,-9.23,-8.85,15.4,0.0,0.0
8.16,8.08,-9.85,-8.71,15.4,0.0,0.0
8.17,7.09,-10.3,-8.21,14.9,0.0,0.0
8.18,5.59,-10.5,-7.76,14.2,0.0,0.0
8.19,4.03,-10.6,-7.23,13.5,0.0,0.0
8.2,3.31,-10.4,-6.36,12.6,0.0,0.0
8.21,3.27,-9.62,-5.98,11.8,0.0,0.0
8.22,3.02,-8.59,-5.57,10.7,0.0,0.0
8.24,2.89,-7.75,-4.98,9.65,0.0,0.0
8.25,2.52,-6.92,-4.41,8.59,0.0,0.0
8.26,1.66,-6.44,-3.1,7.33,0.0,0.0
8.27,0.893,-6.35,-1.56,6.6,0.0,0.0
8.28,0.25,-6.48,-0.043,6.49,0.0,0.0
8.29,0.0427,-6.76,1.12,6.85,0.0,0.0
8.3,0.306,-6.98,1.68,7.19,0.0,0.0
8.31,0.629,-7.08,1.77,7.33,0.0,0.0
8.32,1.01,-6.94,1.64,7.21,0.0,0.0
8.33,1.7,-6.69,1.37,7.03,0.0,0.0
8.34,2.53,-6.52,0.738,7.04,0.0,0.0
8.35,3.22,-6.6,0.107,7.35,0.0,0.0
8.36,3.39,-7.14,-0.595,7.92,0.0,0.0
8.37,3.34,-7.5,-0.786,8.25,0.0,0.0
8.38,4.53,-7.81,-1.53,9.16,0.0,0.0
8.39,4.91,-8.45,-2.27,10.0,0.0,0.0
8.4,5.39,-8.6,-2.37,10.4,0.0,0.0
8.41,5.82,-8.8,-2.52,10.8,0.0,0.0
8.42,6.03,-8.72,-2.16,10.8,0.0,0.0
8.43,6.45,-8.72,-1.53,11.0,0.0,0.0
8.44,6.53,-8.87,-0.35,11.0,0.0,0.0
8.45,6.18,-8.85,0.867,10.8,0.0,0.0
8.46,5.7,-8.83,1.67,10.6,0.0,0.0
8.47,5.05,-8.94,1.96,10.5,0.0,0.0
8.48,4.34,-9.05,1.77,10.2,0.0,0.0
8.49,3.58,-8.93,1.08,9.68,0.0,0.0
8.5,2.84,-8.81,0.518,9.27,0.0,0.0
8.51,2.39,-8.78,0.423,9.11,0.0,0.0
8.52,2.24,-8.79,0.428,9.08,0.0,0.0
8.53,2.44,-8.7,0.362,9.04,0.0,0.0
8.54,2.96,-8.76,0.262,9.25,0.0,0.0
8.55,3.62,-9.18,0.247,9.87,0.0,0.0
8.56,4.19,-9.61,0.122,10.5,0.0,0.0
8.57,4.81,-10.0,-0.259,11.1,0.0,0.0
8.58,5.55,-10.7,-1.21,12.1,0.0,0.0
8.59,6.52,-11.4,-2.87,13.5,0.0,0.0
8.6,7.45,-12.0,-4.03,14.7,0.0,0.0
8.61,7.41,-11.9,-4.0,14.6,0.0,0.0
8.62,6.52,-11.5,-3.39,13.7,0.0,0.0
8.63,5.44,-11.1,-2.35,12.6,0.0,0.0
8.64,4.13,-10.8,-1.13,11.6,0.0,0.0
8.65,2.77,-10.6,-0.335,11.0,0.0,0.0
8.66,1.64,-10.2,0.195,10.3,0.0,0.0
8.67,0.997,-9.44,0.554,9.5,0.0,0.0
8.68,0.968,-8.66,0.751,8.75,0.0,0.0
8.69,1.3,-8.12,0.952,8.28,0.0,0.0
8.7,1.63,-7.88,1.24,8.14,0.0,0.0
8.71,1.94,-7.96,1.57,8.34,0.0,0.0
8.72,2.36,-8.44,1.9,8.97,0.0,0.0
8.73,2.62,-9.3,1.88,9.84,0.0,0.0
8.74,2.35,-10.1,1.27,10.4,0.0,0.0
8.75,2.13,-10.6,0.598,10.8,0.0,0.0
8.76,2.2,-10.8,0.132,11.0,0.0,0.0
8.77,2.33,-10.9,-0.0623,11.1,0.0,0.0
8.78,2.4,-10.8,0.00838,11.1,0.0,0.0
8.79,2.53,-10.7,0.171,11.0,0.0,0.0
8.8,2.77,-10.4,0.265,10.8,0.0,0.0
8.81,3.15,-10.0,0.299,10.5,0.0,0.0
8.82,3.63,-9.53,0.364,10.2,0.0,0.0
8.83,3.81,-9.0,0.461,9.79,0.0,0.0
8.84,3.8,-8.58,0.654,9.41,0.0,0.0
8.85,3.78,-8.43,0.9,9.28,0.0,0.0
8.86,3.75,-8.43,1.21,9.3,0.0,0.0
8.87,3.76,-8.34,1.52,9.28,0.0,0.0
8.88,3.8,-8.25,1.78,9.26,0.0,0.0
8.89,3.85,-8.17,1.97,9.25,0.0,0.0
8.9,3.78,-8.15,2.09,9.22,0.0,0.0
8.91,3.67,-8.2,2.14,9.23,0.0,0.0
8.92,3.52,-8.47,2.04,9.39,0.0,0.0
8.93,3.2,-8.83,1.91,9.58,0.0,0.0
8.94,2.88,-9.1,1.84,9.72,0.0,0.0
8.95,2.66,-9.28,1.9,9.84,0.0,0.0
8.96,2.42,-9.43,1.96,9.93,0.0,0.0
8.97,2.2,-9.63,1.95,10.1,0.0,0.0
8.98,2.09,-9.89,1.88,10.3,0.0,0.0
8.99,2.12,-10.2,1.69,10.5,0.0,0.0
9.0,2.42,-10.4,1.48,10.8,0.0,0.0
9.01,2.95,-10.5,1.29,11.0,0.0,0.0
9.02,3.56,-10.3,0.999,11.0,0.0,0.0
9.03,4.05,-10.1,0.633,10.9,0.0,0.0
9.04,4.28,-9.72,0.185,10.6,0.0,0.0
9.05,4.46,-9.31,-0.196,10.3,0.0,0.0
9.06,4.61,-8.81,-0.324,9.95,0.0,0.0
9.07,4.75,-8.33,-0.0879,9.59,0.0,0.0
9.08,4.89,-8.1,0.435,9.47,0.0,0.0
9.09,4.95,-8.15,1.07,9.59,0.0,0.0
9.1,4.89,-8.21,1.7,9.7,0.0,0.0
9.11,4.83,-8.07,2.31,9.69,0.0,0.0
9.12,4.83,-7.86,2.82,9.65,0.0,0.0
9.13,4.83,-7.59,3.19,9.54,0.0,0.0
9.14,4.83,-7.4,3.3,9.44,0.0,0.0
9.15,4.82,-7.4,3.25,9.41,0.0,0.0
9.16,4.78,-7.6,3.16,9.52,0.0,0.0
9.17,4.72,-8.0,3.02,9.77,0.0,0.0
9.18,4.61,-8.47,2.93,10.1,0.0,0.0
9.19,4.54,-8.87,2.93,10.4,0.0,0.0
9.2,4.37,-9.1,3.03,10.5,0.0,0.0
9.21,4.09,-9.16,3.14,10.5,0.0,0.0
9.22,3.86,-9.12,3.21,10.4,0.0,0.0
9.23,3.65,-9.04,3.2,10.3,0.0,0.0
9.24,3.53,-9.04,3.04,10.2,0.0,0.0
9.25,3.49,-9.17,2.68,10.2,0.0,0.0
9.26,3.46,-9.34,2.23,10.2,0.0,0.0
9.27,3.48,-9.47,1.79,10.2,0.0,0.0
9.28,3.55,-9.51,1.28,10.2,0.0,0.0
9.29,3.62,-9.4,0.611,10.1,0.0,0.0
9.3,3.64,-9.21,-0.172,9.91,0.0,0.0
9.31,3.61,-9.01,-0.884,9.74,0.0,0.0
9.32,3.59,-8.89,-1.34,9.68,0.0,0.0
9.33,3.69,-8.83,-1.39,9.67,0.0,0.0
9.34,3.98,-8.75,-0.805,9.65,0.0,0.0
9.35,4.18,-8.62,0.118,9.58,0.0,0.0
9.36,4.2,-8.45,0.928,9.48,0.0,0.0
9.37,4.01,-8.44,1.51,9.46,0.0,0.0
9.38,3.81,-8.5,2.02,9.54,0.0,0.0
9.39,3.66,-8.63,2.46,9.69,0.0,0.0
9.4,3.52,-8.78,2.77,9.86,0.0,0.0
9.41,3.4,-8.95,2.96,10.0,0.0,0.0
9.42,3.34,-9.09,3.01,10.1,0.0,0.0
9.43,3.3,-9.17,2.91,10.2,0.0,0.0
9.44,3.26,-9.19,2.73,10.1,0.0,0.0
9.45,3.28,-9.18,2.5,10.1,0.0,0.0
9.46,3.38,-9.09,2.25,9.95,0.0,0.0
9.47,3.5,-9.02,1.99,9.88,0.0,0.0
9.48,3.66,-8.99,1.74,9.86,0.0,0.0
9.49,3.79,-9.0,1.46,9.87,0.0,0.0
9.5,3.9,-9.02,1.15,9.9,0.0,0.0
9.52,3.92,-9.01,0.798,9.86,0.0,0.0
9.53,3.84,-8.96,0.46,9.76,0.0,0.0
9.54,3.66,-8.95,0.15,9.67,0.0,0.0
9.55,3.51,-8.98,-0.00868,9.64,0.0,0.0
9.56,3.47,-8.99,0.098,9.63,0.0,0.0
9.57,3.46,-8.99,0.519,9.65,0.0,0.0
9.58,3.47,-8.96,1.02,9.66,0.0,0.0
9.59,3.53,-8.98,1.47,9.76,0.0,0.0
9.6,3.58,-8.95,1.82,9.81,0.0,0.0
9.61,3.62,-8.91,2.06,9.84,0.0,0.0
9.62,3.61,-8.86,2.21,9.82,0.0,0.0
9.63,3.61,-8.82,2.28,9.8,0.0,0.0
9.64,3.65,-8.81,2.33,9.82,0.0,0.0
9.65,3.69,-8.81,2.28,9.82,0.0,0.0
9.66,3.77,-8.82,2.15,9.83,0.0,0.0
9.67,3.84,-8.79,1.93,9.79,0.0,0.0
9.68,3.9,-8.75,1.74,9.74,0.0,0.0
9.69,3.99,-8.76,1.57,9.75,0.0,0.0
9.7,4.05,-8.79,1.4,9.78,0.0,0.0
9.71,4.11,-8.82,1.25,9.81,0.0,0.0
9.72,4.1,-8.81,1.15,9.78,0.0,0.0
9.73,4.03,-8.76,1.13,9.71,0.0,0.0
9.74,3.93,-8.77,1.22,9.68,0.0,0.0
9.75,3.84,-8.8,1.42,9.7,0.0,0.0
9.76,3.76,-8.82,1.66,9.73,0.0,0.0
9.77,3.75,-8.88,1.87,9.82,0.0,0.0
9.78,3.78,-8.82,2.01,9.81,0.0,0.0
9.79,3.85,-8.79,2.1,9.83,0.0,0.0
9.8,3.9,-8.88,2.05,9.92,0.0,0.0
9.81,3.89,-8.95,1.95,9.95,0.0,0.0
9.82,3.97,-8.92,1.86,9.94,0.0,0.0
9.83,3.95,-8.89,1.86,9.9,0.0,0.0
9.84,3.87,-8.87,1.83,9.85,0.0,0.0
9.85,3.84,-8.88,1.72,9.83,0.0,0.0
9.86,3.78,-8.92,1.6,9.81,0.0,0.0
9.87,3.72,-8.91,1.49,9.77,0.0,0.0
9.88,3.62,-8.89,1.37,9.7,0.0,0.0
9.89,3.6,-8.93,1.28,9.71,0.0,0.0
9.9,3.65,-8.98,1.33,9.78,0.0,0.0
9.91,3.65,-8.98,1.44,9.8,0.0,0.0
9.92,3.83,-9.0,1.72,9.93,0.0,0.0
9.93,3.86,-9.06,1.91,10.0,0.0,0.0
9.94,3.95,-9.26,2.05,10.3,0.0,0.0
9.95,4.12,-9.3,2.34,10.4,0.0,0.0
9.96,4.17,-9.13,2.46,10.3,0.0,0.0
9.97,3.84,-8.85,2.05,9.86,0.0,0.0
9.98,3.6,-8.72,1.54,9.56,0.0,0.0
9.99,3.8,-8.9,1.35,9.77,0.0,0.0
0.000262,1.31,8.54,1.37,8.75,0.0,0.0
0.0103,2.29,10.3,1.35,10.6,0.0,0.0
0.0204,2.51,11.3,0.88,11.6,0.0,0.0
0.0305,3.01,11.6,1.27,12.1,0.0,0.0
0.0406,3.31,11.6,0.793,12.1,0.0,0.0
0.0507,2.84,11.5,0.597,11.9,0.0,0.0
0.0607,2.01,11.2,0.411,11.4,0.0,0.0
0.0708,1.43,9.45,0.795,9.59,0.0,0.0
0.0809,1.51,9.29,0.515,9.43,0.0,0.0
0.091,1.27,8.18,1.7,8.45,0.0,0.0
0.101,2.15,9.5,1.1,9.81,0.0,0.0
0.111,0.915,7.39,2.32,7.8,0.0,0.0
0.121,1.9,9.51,2.44,10.0,0.0,0.0
0.131,1.36,8.91,1.76,9.18,0.0,0.0
0.141,1.53,10.3,1.32,10.5,0.0,0.0
0.151,1.61,11.0,1.21,11.2,0.0,0.0
0.162,1.94,10.8,0.734,11.0,0.0,0.0
0.172,2.86,11.1,0.307,11.5,0.0,0.0
0.182,1.73,9.81,0.298,9.97,0.0,0.0
0.192,1.51,8.96,-0.0847,9.09,0.0,0.0
0.202,1.14,7.93,1.38,8.13,0.0,0.0
0.212,1.89,8.42,1.9,8.83,0.0,0.0
0.222,2.32,8.07,1.5,8.53,0.0,0.0
0.232,2.08,7.95,1.64,8.38,0.0,0.0
0.242,2.16,8.95,1.45,9.32,0.0,0.0
0.252,2.02,10.4,1.38,10.6,0.0,0.0
0.262,2.03,12.8,0.537,12.9,0.0,0.0
0.272,0.911,10.8,0.33,10.9,0.0,0.0
0.282,1.32,10.9,0.394,11.0,0.0,0.0
0.293,1.7,11.0,0.771,11.1,0.0,0.0
0.303,1.67,9.77,1.0,9.96,0.0,0.0
0.313,0.762,7.32,1.28,7.47,0.0,0.0
0.323,-0.658,5.35,2.02,5.76,0.0,0.0
0.333,-2.09,4.26,2.85,5.54,0.0,0.0
0.343,-1.91,4.27,1.44,4.89,0.0,0.0
0.353,-2.22,5.12,0.735,5.63,0.0,0.0
0.363,-2.38,6.19,1.02,6.71,0.0,0.0
0.373,-2.29,5.99,-0.11,6.42,0.0,0.0
0.383,-2.63,6.73,0.2,7.23,0.0,0.0
0.393,2.42,9.73,2.73,10.4,0.0,0.0
0.403,8.12,11.7,1.6,14.3,0.0,0.0
0.413,10.9,13.6,-0.643,17.4,0.0,0.0
0.424,11.7,16.5,-0.201,20.3,0.0,0.0
0.434,7.9,16.3,1.69,18.2,0.0,0.0
0.444,2.88,10.6,1.73,11.1,0.0,0.0
0.454,1.48,9.07,0.55,9.21,0.0,0.0
0.464,1.22,9.0,0.405,9.09,0.0,0.0
0.474,1.65,8.8,1.69,9.11,0.0,0.0
0.484,2.63,9.57,0.991,9.98,0.0,0.0
0.494,2.71,10.2,0.23,10.6,0.0,0.0
0.504,2.6,10.4,0.122,10.7,0.0,0.0
0.514,2.35,10.2,-0.037,10.5,0.0,0.0
0.524,1.96,10.2,0.869,10.4,0.0,0.0
0.534,2.44,9.88,1.7,10.3,0.0,0.0
0.545,3.02,10.3,1.96,10.9,0.0,0.0
0.555,3.25,10.2,2.26,10.9,0.0,0.0
0.565,3.82,9.71,2.15,10.7,0.0,0.0
0.575,3.61,9.35,2.17,10.3,0.0,0.0
0.585,0.186,8.59,-0.641,8.62,0.0,0.0
0.595,-1.71,7.39,-2.09,7.86,0.0,0.0
0.605,-0.38,7.4,0.663,7.44,0.0,0.0
0.615,3.9,11.4,1.0,12.1,0.0,0.0
0.625,9.44,18.9,0.79,21.1,0.0,0.0
0.635,0.839,9.22,-0.32,9.27,0.0,0.0
0.645,-2.03,6.68,2.68,7.48,0.0,0.0
0.655,2.9,10.5,2.46,11.1,0.0,0.0
0.665,1.18,7.83,0.988,7.98,0.0,0.0
0.676,1.15,6.83,1.0,7.0,0.0,0.0
0.686,1.44,6.59,1.8,6.98,0.0,0.0
0.696,1.17,6.64,1.54,6.92,0.0,0.0
0.706,1.61,6.9,0.965,7.15,0.0,0.0
0.716,2.28,7.58,0.647,7.94,0.0,0.0
0.726,3.2,8.66,0.318,9.23,0.0,0.0
0.736,3.87,9.54,-0.161,10.3,0.0,0.0
0.746,3.75,10.0,-0.58,10.7,0.0,0.0
0.756,3.39,10.1,-0.87,10.7,0.0,0.0
0.766,3.39,10.7,-0.0636,11.2,0.0,0.0
0.776,1.27,10.3,0.439,10.3,0.0,0.0
0.786,1.05,9.96,0.831,10.0,0.0,0.0
0.796,1.05,9.47,1.68,9.67,0.0,0.0
0.807,1.68,9.0,2.22,9.42,0.0,0.0
0.817,1.07,8.6,2.76,9.1,0.0,0.0
0.827,-0.0897,8.34,-0.204,8.34,0.0,0.0
0.837,0.724,8.24,-0.626,8.29,0.0,0.0
0.847,1.97,8.02,1.08,8.33,0.0,0.0
0.857,2.08,8.01,1.09,8.34,0.0,0.0
0.867,2.04,7.65,0.636,7.95,0.0,0.0
0.877,2.06,7.5,0.472,7.8,0.0,0.0
0.887,2.21,7.55,0.395,7.88,0.0,0.0
0.897,2.38,7.63,0.331,8.0,0.0,0.0
0.907,2.64,8.02,0.512,8.46,0.0,0.0
0.917,3.04,8.73,0.739,9.28,0.0,0.0
0.927,3.6,10.4,0.577,11.0,0.0,0.0
0.938,4.01,14.4,0.313,14.9,0.0,0.0
0.948,3.46,16.5,0.805,16.9,0.0,0.0
0.958,4.56,13.4,1.26,14.2,0.0,0.0
0.968,4.15,10.6,0.504,11.4,0.0,0.0
0.978,2.67,9.6,0.276,9.97,0.0,0.0
0.988,2.18,8.34,0.525,8.64,0.0,0.0
0.998,1.89,7.86,0.646,8.11,0.0,0.0
1.01,1.85,8.15,0.408,8.37,0.0,0.0
1.02,1.87,8.51,0.446,8.72,0.0,0.0
1.03,2.07,9.01,0.775,9.28,0.0,0.0
1.04,2.38,9.71,0.674,10.0,0.0,0.0
1.05,2.21,10.3,0.379,10.6,0.0,0.0
1.06,1.97,10.6,0.0909,10.8,0.0,0.0
1.07,1.62,10.4,-0.0713,10.5,0.0,0.0
1.08,1.47,10.2,-0.11,10.3,0.0,0.0
1.09,1.32,10.1,0.0024,10.2,0.0,0.0
1.1,1.13,9.84,0.242,9.9,0.0,0.0
1.11,1.0,9.39,0.481,9.45,0.0,0.0
1.12,1.09,9.0,0.627,9.09,0.0,0.0
1.13,1.36,8.82,0.882,8.96,0.0,0.0
1.14,1.72,8.6,1.05,8.83,0.0,0.0
1.15,2.13,8.21,1.0,8.54,0.0,0.0
1.16,2.42,7.7,0.856,8.12,0.0,0.0
1.17,2.43,6.75,0.705,7.2,0.0,0.0
1.18,2.55,5.91,0.547,6.46,0.0,0.0
1.19,2.79,5.21,0.351,5.92,0.0,0.0
1.2,3.1,4.69,0.293,5.63,0.0,0.0
1.21,3.45,4.58,0.337,5.74,0.0,0.0
1.22,3.82,5.34,0.308,6.57,0.0,0.0
1.23,4.31,6.7,0.439,7.98,0.0,0.0
1.24,4.74,8.47,0.685,9.73,0.0,0.0
1.25,5.22,10.5,1.2,11.8,0.0,0.0
1.26,5.88,12.8,1.65,14.1,0.0,0.0
1.27,6.49,14.6,1.85,16.1,0.0,0.0
1.28,6.57,15.8,1.71,17.2,0.0,0.0
1.29,6.01,16.3,0.913,17.4,0.0,0.0
1.3,4.92,15.7,-0.256,16.5,0.0,0.0
1.31,4.39,14.2,-1.13,14.9,0.0,0.0
1.32,3.94,12.9,-1.44,13.5,0.0,0.0
1.33,3.8,11.6,-1.83,12.3,0.0,0.0
1.34,3.8,10.7,-2.14,11.6,0.0,0.0
1.35,2.92,10.1,-2.0,10.8,0.0,0.0
1.36,1.58,9.11,-1.62,9.39,0.0,0.0
1.37,0.584,7.15,-1.15,7.27,0.0,0.0
1.38,0.995,5.69,-0.549,5.81,0.0,0.0
1.39,2.62,5.68,-0.0919,6.26,0.0,0.0
1.4,3.12,5.99,0.282,6.76,0.0,0.0
1.41,3.08,6.08,0.639,6.85,0.0,0.0
1.42,2.95,5.88,0.989,6.65,0.0,0.0
1.43,3.21,5.89,1.12,6.8,0.0,0.0
1.44,3.66,5.77,1.19,6.94,0.0,0.0
1.45,4.22,5.99,1.14,7.41,0.0,0.0
1.46,4.28,6.11,0.845,7.51,0.0,0.0
1.47,4.15,6.19,0.66,7.48,0.0,0.0
1.48,4.14,6.56,0.354,7.77,0.0,0.0
1.49,4.37,7.15,0.01,8.38,0.0,0.0
1.5,4.28,7.69,-0.494,8.82,0.0,0.0
1.51,3.87,8.51,-0.914,9.4,0.0,0.0
1.52,3.66,9.82,-1.12,10.5,0.0,0.0
1.53,3.6,11.1,-1.27,11.8,0.0,0.0
1.54,3.55,12.2,-1.43,12.8,0.0,0.0
1.55,3.65,13.0,-1.35,13.6,0.0,0.0
1.56,3.93,14.4,-1.01,14.9,0.0,0.0
1.57,4.36,15.7,-0.706,16.3,0.0,0.0
1.58,4.77,16.7,-0.547,17.4,0.0,0.0
1.59,5.26,17.4,-0.747,18.2,0.0,0.0
1.6,5.91,17.7,-1.39,18.7,0.0,0.0
1.61,5.94,17.1,-2.03,18.2,0.0,0.0
1.62,5.13,15.8,-2.03,16.8,0.0,0.0
1.63,4.2,14.2,-1.42,14.9,0.0,0.0
1.64,3.59,13.0,-0.796,13.5,0.0,0.0
1.65,3.58,12.5,-0.0521,13.0,0.0,0.0
1.66,3.88,12.3,0.789,12.9,0.0,0.0
1.67,4.09,11.8,1.58,12.6,0.0,0.0
1.68,3.95,10.4,2.19,11.3,0.0,0.0
1.69,3.36,9.05,2.56,9.98,0.0,0.0
1.7,2.76,8.0,2.84,8.93,0.0,0.0
1.71,2.34,7.67,3.0,8.57,0.0,0.0
1.72,1.87,7.61,2.72,8.3,0.0,0.0
1.73,1.37,7.82,2.35,8.28,0.0,0.0
1.74,1.05,8.45,2.25,8.81,0.0,0.0
1.75,0.943,9.18,2.52,9.56,0.0,0.0
1.76,0.917,9.86,3.06,10.4,0.0,0.0
1.77,0.752,10.6,3.63,11.2,0.0,0.0
1.78,0.385,11.1,4.4,12.0,0.0,0.0
1.79,-0.022,11.3,4.95,12.3,0.0,0.0
1.8,-0.334,11.6,4.8,12.5,0.0,0.0
1.81,-0.276,11.8,3.86,12.4,0.0,0.0
1.82,0.481,11.4,2.87,11.8,0.0,0.0
1.83,0.964,11.0,2.11,11.2,0.0,0.0
1.84,1.04,10.5,1.56,10.7,0.0,0.0
1.85,1.53,9.31,1.18,9.51,0.0,0.0
1.86,1.56,8.56,1.09,8.77,0.0,0.0
1.87,0.598,8.83,1.37,8.95,0.0,0.0
1.88,0.0804,8.05,1.85,8.26,0.0,0.0
1.9,0.146,6.86,2.33,7.25,0.0,0.0
1.91,0.201,5.7,2.25,6.14,0.0,0.0
1.92,0.342,5.08,1.64,5.35,0.0,0.0
1.93,0.362,4.48,0.985,4.6,0.0,0.0
1.94,0.053,3.85,0.519,3.88,0.0,0.0
1.95,-0.0603,3.66,0.148,3.66,0.0,0.0
1.96,0.471,3.44,-0.427,3.5,0.0,0.0
1.97,1.16,3.65,-1.26,4.03,0.0,0.0
1.98,1.85,4.09,-1.84,4.85,0.0,0.0
1.99,2.42,3.7,-2.11,4.9,0.0,0.0
2.0,2.92,4.23,-2.58,5.76,0.0,0.0
2.01,2.93,4.72,-2.85,6.24,0.0,0.0
2.02,2.31,5.0,-2.72,6.14,0.0,0.0
2.03,1.73,5.37,-2.6,6.21,0.0,0.0
2.04,1.47,6.25,-2.5,6.89,0.0,0.0
2.05,1.49,7.68,-2.1,8.1,0.0,0.0
2.06,1.74,9.77,-1.42,10.0,0.0,0.0
2.07,2.09,12.3,-0.352,12.5,0.0,0.0
2.08,3.07,14.7,1.12,15.0,0.0,0.0
2.09,4.85,16.3,1.44,17.0,0.0,0.0
2.1,6.98,16.8,-0.692,18.2,0.0,0.0
2.11,8.84,16.6,-2.83,19.0,0.0,0.0
2.12,9.55,15.0,-2.2,18.0,0.0,0.0
2.13,9.32,13.0,-0.0259,16.0,0.0,0.0
2.14,7.61,11.5,0.632,13.8,0.0,0.0
2.15,6.43,11.0,-0.554,12.7,0.0,0.0
2.16,6.52,10.8,-1.34,12.7,0.0,0.0
2.17,5.93,10.9,-1.3,12.5,0.0,0.0
2.18,4.74,11.0,-0.356,12.0,0.0,0.0
2.19,3.6,10.9,1.22,11.5,0.0,0.0
2.2,2.83,10.5,2.67,11.2,0.0,0.0
2.21,2.14,10.6,3.19,11.3,0.0,0.0
2.22,1.89,11.5,3.22,12.1,0.0,0.0
2.23,1.93,12.7,3.42,13.3,0.0,0.0
2.24,2.32,13.8,3.85,14.5,0.0,0.0
2.25,3.17,14.5,4.23,15.5,0.0,0.0
2.26,3.79,14.0,4.16,15.1,0.0,0.0
2.27,4.43,12.9,3.63,14.1,0.0,0.0
2.28,4.62,11.8,2.68,13.0,0.0,0.0
2.29,4.59,10.9,1.75,11.9,0.0,0.0
2.3,4.34,10.1,1.04,11.0,0.0,0.0
2.31,3.88,9.24,0.5,10.0,0.0,0.0
2.32,3.52,8.41,0.0111,9.12,0.0,0.0
2.33,2.94,7.62,-0.393,8.18,0.0,0.0
2.34,2.62,6.42,-0.551,6.95,0.0,0.0
2.35,2.53,5.54,-0.407,6.11,0.0,0.0
2.36,2.2,4.95,-0.116,5.42,0.0,0.0
2.37,1.74,4.25,0.183,4.59,0.0,0.0
2.38,1.51,3.57,0.385,3.89,0.0,0.0
2.39,1.71,3.01,0.375,3.48,0.0,0.0
2.4,2.17,2.93,0.094,3.65,0.0,0.0
2.41,2.45,3.14,-0.492,4.02,0.0,0.0
2.42,3.21,3.36,-1.24,4.81,0.0,0.0
2.43,4.12,3.21,-1.89,5.56,0.0,0.0
2.44,4.76,3.07,-2.34,6.13,0.0,0.0
2.45,4.78,3.07,-2.39,6.17,0.0,0.0
2.46,2.34,3.49,-2.1,4.69,0.0,0.0
2.47,1.62,4.05,-1.42,4.58,0.0,0.0
2.48,1.46,4.58,-0.745,4.87,0.0,0.0
2.49,1.28,5.44,0.15,5.59,0.0,0.0
2.5,1.35,6.51,0.839,6.7,0.0,0.0
2.51,1.69,8.17,1.2,8.43,0.0,0.0
2.52,2.06,10.1,1.3,10.4,0.0,0.0
2.53,2.32,12.1,1.29,12.4,0.0,0.0
2.54,2.67,14.5,1.2,14.8,0.0,0.0
2.55,2.97,16.9,0.779,17.2,0.0,0.0
2.56,3.31,19.2,-0.292,19.5,0.0,0.0
2.57,3.81,20.2,-2.18,20.7,0.0,0.0
2.58,4.77,17.5,-4.35,18.7,0.0,0.0
2.59,4.84,14.2,-5.69,16.0,0.0,0.0
2.6,4.69,12.4,-5.43,14.4,0.0,0.0
2.61,4.24,11.6,-3.93,13.0,0.0,0.0
2.62,3.46,11.7,-2.34,12.4,0.0,0.0
2.63,2.68,11.9,-1.07,12.2,0.0,0.0
2.64,2.46,11.1,-0.505,11.4,0.0,0.0
2.65,2.2,9.4,-0.188,9.66,0.0,0.0
2.66,2.02,7.78,0.334,8.04,0.0,0.0
2.67,1.95,6.93,0.943,7.27,0.0,0.0
2.68,1.55,7.41,1.29,7.68,0.0,0.0
2.69,1.02,8.92,1.58,9.12,0.0,0.0
2.7,1.02,10.8,2.03,11.1,0.0,0.0
2.71,1.11,13.0,2.4,13.3,0.0,0.0
2.72,0.825,14.7,2.56,14.9,0.0,0.0
2.73,0.0515,15.6,2.51,15.8,0.0,0.0
2.74,-0.879,15.9,2.45,16.1,0.0,0.0
2.75,-2.23,15.4,2.41,15.7,0.0,0.0
2.76,-3.34,14.7,2.05,15.2,0.0,0.0
2.77,-1.15,13.0,1.3,13.2,0.0,0.0
2.78,2.39,11.3,0.661,11.6,0.0,0.0
2.79,3.32,9.85,0.389,10.4,0.0,0.0
2.8,3.69,8.65,-0.219,9.4,0.0,0.0
2.81,3.51,7.79,-0.69,8.57,0.0,0.0
2.82,2.7,6.8,-0.484,7.34,0.0,0.0
2.83,1.78,6.28,0.0299,6.53,0.0,0.0
2.84,1.11,5.87,0.636,6.01,0.0,0.0
2.85,0.343,5.32,0.879,5.4,0.0,0.0
2.86,0.0904,4.72,0.618,4.76,0.0,0.0
2.87,0.248,4.26,0.231,4.27,0.0,0.0
2.88,-0.0576,3.84,0.241,3.85,0.0,0.0
2.89,0.26,3.6,0.269,3.62,0.0,0.0
2.9,0.974,3.43,0.05,3.57,0.0,0.0
2.91,2.0,3.34,-0.355,3.91,0.0,0.0
2.92,2.82,3.92,-1.21,4.98,0.0,0.0
2.93,3.2,4.64,-2.02,5.99,0.0,0.0
2.94,3.6,5.49,-2.1,6.89,0.0,0.0
2.95,3.96,6.01,-2.12,7.51,0.0,0.0
2.96,3.76,6.21,-2.39,7.64,0.0,0.0
2.97,3.19,6.47,-2.29,7.57,0.0,0.0
2.98,2.3,7.48,-1.98,8.07,0.0,0.0
2.99,1.4,9.36,-1.34,9.56,0.0,0.0
3.0,0.999,11.0,-0.176,11.0,0.0,0.0
3.01,1.42,12.9,0.641,13.0,0.0,0.0
3.02,2.48,14.1,0.361,14.3,0.0,0.0
3.03,4.17,14.5,-0.676,15.1,0.0,0.0
3.04,6.22,14.5,-1.45,15.8,0.0,0.0
3.05,7.64,13.9,-1.71,15.9,0.0,0.0
3.06,7.98,12.8,-1.53,15.1,0.0,0.0
3.07,8.18,12.0,-1.36,14.5,0.0,0.0
3.08,7.0,11.2,-1.22,13.2,0.0,0.0
3.09,6.16,10.6,-1.25,12.4,0.0,0.0
3.1,6.29,10.2,-1.29,12.1,0.0,0.0
3.11,5.64,9.92,-1.02,11.5,0.0,0.0
3.12,4.05,10.1,-0.629,10.9,0.0,0.0
3.13,2.55,10.4,-0.154,10.7,0.0,0.0
3.14,1.75,10.7,0.501,10.8,0.0,0.0
3.15,1.11,10.6,1.2,10.7,0.0,0.0
3.16,0.65,10.4,1.92,10.6,0.0,0.0
3.18,1.36,10.1,2.74,10.5,0.0,0.0
3.19,2.56,10.1,2.93,10.8,0.0,0.0
3.2,3.35,11.1,2.71,11.9,0.0,0.0
3.21,3.91,12.4,2.36,13.2,0.0,0.0
3.22,4.24,12.9,1.93,13.7,0.0,0.0
3.23,4.13,12.8,1.67,13.6,0.0,0.0
3.24,3.93,12.8,1.65,13.5,0.0,0.0
3.25,3.86,12.7,1.63,13.4,0.0,0.0
3.26,3.8,12.5,1.51,13.2,0.0,0.0
3.27,3.64,12.1,1.09,12.6,0.0,0.0
3.28,3.31,11.0,0.575,11.5,0.0,0.0
3.29,2.83,9.73,0.283,10.1,0.0,0.0
3.3,2.48,8.76,0.0611,9.1,0.0,0.0
3.31,2.21,7.96,-0.125,8.27,0.0,0.0
3.32,1.88,7.04,-0.413,7.3,0.0,0.0
3.33,1.44,6.4,-0.625,6.59,0.0,0.0
3.34,1.62,5.75,-0.98,6.05,0.0,0.0
3.35,1.69,4.42,-1.25,4.89,0.0,0.0
3.36,2.06,3.52,-1.32,4.29,0.0,0.0
3.37,1.88,2.87,-0.896,3.55,0.0,0.0
3.38,2.16,3.28,-0.562,3.96,0.0,0.0
3.39,2.4,3.53,-0.93,4.37,0.0,0.0
3.4,2.19,3.77,-1.17,4.52,0.0,0.0
3.41,2.1,4.17,-1.07,4.79,0.0,0.0
3.42,2.11,4.46,-1.14,5.06,0.0,0.0
3.43,1.68,4.73,-1.09,5.13,0.0,0.0
3.44,1.74,4.87,-0.799,5.23,0.0,0.0
3.45,2.08,5.44,-0.594,5.86,0.0,0.0
3.46,2.06,6.11,-0.449,6.46,0.0,0.0
3.47,2.02,7.25,-0.0247,7.53,0.0,0.0
3.48,2.18,9.25,0.433,9.51,0.0,0.0
3.49,2.54,11.2,0.521,11.5,0.0,0.0
3.5,2.72,12.9,0.306,13.2,0.0,0.0
3.51,2.42,14.4,-0.288,14.6,0.0,0.0
3.52,2.51,15.9,-0.912,16.1,0.0,0.0
3.53,2.59,17.3,-1.63,17.6,0.0,0.0
3.54,2.23,17.4,-2.54,17.7,0.0,0.0
3.55,1.97,16.0,-3.0,16.4,0.0,0.0
3.56,1.86,14.7,-2.85,15.1,0.0,0.0
3.57,1.91,13.7,-2.37,14.0,0.0,0.0
3.58,2.03,12.4,-1.9,12.7,0.0,0.0
3.59,2.02,11.0,-1.54,11.3,0.0,0.0
3.6,1.9,9.92,-1.49,10.2,0.0,0.0
3.61,1.79,9.56,-1.7,9.87,0.0,0.0
3.62,1.74,9.14,-2.12,9.55,0.0,0.0
3.63,1.88,8.26,-2.26,8.77,0.0,0.0
3.64,1.81,7.2,-1.72,7.62,0.0,0.0
3.65,1.43,6.81,-0.66,6.99,0.0,0.0
3.66,0.722,7.31,0.271,7.35,0.0,0.0
3.67,-0.366,8.01,0.783,8.06,0.0,0.0
3.68,-1.11,9.1,1.34,9.27,0.0,0.0
3.69,-1.22,10.5,1.82,10.7,0.0,0.0
3.7,-1.09,12.0,1.94,12.2,0.0,0.0
3.71,-1.02,13.6,1.83,13.8,0.0,0.0
3.72,-0.959,15.1,1.7,15.2,0.0,0.0
3.73,-0.727,16.0,1.7,16.1,0.0,0.0
3.74,0.724,16.1,1.52,16.2,0.0,0.0
3.75,1.51,15.5,1.09,15.6,0.0,0.0
3.76,1.87,14.5,0.826,14.6,0.0,0.0
3.77,2.22,12.5,0.962,12.8,0.0,0.0
3.78,2.5,10.6,0.893,10.9,0.0,0.0
3.79,2.24,9.25,0.374,9.53,0.0,0.0
3.8,1.86,8.2,-0.256,8.41,0.0,0.0
3.81,1.1,7.31,-0.629,7.42,0.0,0.0
3.82,0.397,6.56,-0.627,6.61,0.0,0.0
3.83,-0.266,6.45,-0.019,6.45,0.0,0.0
3.84,-1.04,5.31,0.802,5.47,0.0,0.0
3.85,-1.76,4.41,1.51,4.98,0.0,0.0
3.86,-1.88,4.22,1.84,4.98,0.0,0.0
3.87,-1.35,3.87,1.34,4.31,0.0,0.0
3.88,-0.357,4.13,-0.0151,4.15,0.0,0.0
3.89,0.848,4.93,-1.55,5.24,0.0,0.0
3.9,1.6,5.08,-2.95,6.09,0.0,0.0
3.91,1.79,4.36,-4.13,6.27,0.0,0.0
3.92,1.97,4.02,-4.66,6.46,0.0,0.0
3.93,1.61,4.55,-3.83,6.16,0.0,0.0
3.94,1.43,5.45,-1.91,5.95,0.0,0.0
3.95,0.797,6.24,-0.0157,6.29,0.0,0.0
3.96,-0.331,7.34,1.45,7.49,0.0,0.0
3.97,-0.364,8.93,1.66,9.1,0.0,0.0
3.98,1.25,11.8,0.492,11.9,0.0,0.0
3.99,2.97,14.3,-0.456,14.6,0.0,0.0
4.0,4.66,15.4,-1.31,16.2,0.0,0.0
4.01,6.11,15.4,-1.91,16.7,0.0,0.0
4.02,7.53,14.9,-1.62,16.8,0.0,0.0
4.03,8.79,13.9,-0.666,16.5,0.0,0.0
4.04,9.19,13.3,-0.686,16.1,0.0,0.0
4.05,8.52,12.8,-1.89,15.5,0.0,0.0
4.06,7.32,12.9,-2.62,15.1,0.0,0.0
4.07,5.8,13.2,-2.56,14.7,0.0,0.0
4.08,4.57,13.2,-2.39,14.2,0.0,0.0
4.09,3.72,12.8,-3.09,13.7,0.0,0.0
4.1,3.26,11.8,-3.23,12.7,0.0,0.0
4.11,2.56,10.8,-1.98,11.3,0.0,0.0
4.12,1.85,9.75,-0.636,9.94,0.0,0.0
4.13,1.47,8.65,0.154,8.77,0.0,0.0
4.14,1.28,7.63,0.705,7.77,0.0,0.0
4.15,1.26,7.01,1.26,7.24,0.0,0.0
4.16,1.29,6.93,1.75,7.26,0.0,0.0
4.17,1.42,7.48,2.24,7.94,0.0,0.0
4.18,1.41,8.65,2.51,9.11,0.0,0.0
4.19,1.37,9.9,2.59,10.3,0.0,0.0
4.2,1.48,10.9,2.49,11.3,0.0,0.0
4.21,1.31,11.9,2.15,12.1,0.0,0.0
4.22,0.938,13.1,2.02,13.3,0.0,0.0
4.23,1.02,14.0,1.78,14.1,0.0,0.0
4.24,1.07,14.2,0.949,14.3,0.0,0.0
4.25,1.03,13.7,-0.0398,13.7,0.0,0.0
4.26,0.421,11.8,-0.48,11.8,0.0,0.0
4.27,-0.135,9.84,-0.525,9.86,0.0,0.0
4.28,0.385,8.94,-0.634,8.97,0.0,0.0
4.29,1.56,8.77,-0.881,8.95,0.0,0.0
4.3,1.6,7.63,-0.971,7.86,0.0,0.0
4.31,2.34,6.92,-1.57,7.47,0.0,0.0
4.32,2.36,6.47,-1.78,7.11,0.0,0.0
4.33,2.51,6.06,-1.59,6.74,0.0,0.0
4.34,2.58,5.74,-1.31,6.43,0.0,0.0
4.35,2.05,5.34,-1.14,5.83,0.0,0.0
4.36,1.32,4.75,-0.789,4.99,0.0,0.0
4.37,0.222,4.27,-0.417,4.29,0.0,0.0
4.38,0.113,4.86,-0.13,4.86,0.0,0.0
4.39,0.207,5.98,-0.0123,5.99,0.0,0.0
4.4,0.701,6.78,0.209,6.82,0.0,0.0
4.41,1.51,6.78,0.338,6.95,0.0,0.0
4.42,2.45,6.99,0.277,7.41,0.0,0.0
4.43,3.57,7.5,-0.231,8.31,0.0,0.0
4.44,4.73,7.92,-1.27,9.31,0.0,0.0
4.46,5.34,7.96,-2.1,9.81,0.0,0.0
4.47,4.82,8.21,-2.29,9.79,0.0,0.0
4.48,3.53,8.95,-2.07,9.84,0.0,0.0
4.49,2.29,10.3,-1.82,10.7,0.0,0.0
4.5,1.27,11.8,-1.66,12.0,0.0,0.0
4.51,0.629,13.2,-1.35,13.2,0.0,0.0
4.52,0.385,13.5,-0.912,13.6,0.0,0.0
4.53,0.606,13.6,-0.717,13.6,0.0,0.0
4.54,0.731,13.8,-1.64,13.9,0.0,0.0
4.55,0.292,13.7,-3.24,14.1,0.0,0.0
4.56,0.0614,13.2,-4.13,13.8,0.0,0.0
4.57,0.303,12.4,-3.97,13.0,0.0,0.0
4.58,0.574,11.4,-3.16,11.9,0.0,0.0
4.59,0.923,10.9,-2.21,11.2,0.0,0.0
4.6,1.13,11.0,-1.29,11.2,0.0,0.0
4.61,0.852,10.9,-0.403,11.0,0.0,0.0
4.62,0.531,10.4,0.557,10.4,0.0,0.0
4.63,0.378,9.71,1.49,9.83,0.0,0.0
4.64,-0.166,9.3,2.19,9.56,0.0,0.0
4.65,-0.69,9.12,2.47,9.48,0.0,0.0
4.66,-1.16,9.28,2.6,9.71,0.0,0.0
4.67,-1.22,10.2,2.95,10.7,0.0,0.0
4.68,-0.924,11.8,3.12,12.2,0.0,0.0
4.69,-0.371,13.4,3.05,13.7,0.0,0.0
4.7,-0.289,14.5,2.75,14.8,0.0,0.0
4.71,0.481,14.6,2.38,14.8,0.0,0.0
4.72,1.59,14.3,1.98,14.5,0.0,0.0
4.73,2.2,13.7,1.51,13.9,0.0,0.0
4.74,2.42,12.7,1.42,13.0,0.0,0.0
4.75,2.68,11.3,1.4,11.7,0.0,0.0
4.76,2.98,10.3,1.11,10.7,0.0,0.0
4.77,2.62,9.6,1.2,10.0,0.0,0.0
4.78,1.61,8.44,1.39,8.7,0.0,0.0
4.79,1.06,6.99,1.45,7.22,0.0,0.0
4.8,1.08,6.5,1.71,6.81,0.0,0.0
4.81,0.918,6.33,1.67,6.61,0.0,0.0
4.82,1.33,6.42,1.31,6.68,0.0,0.0
4.83,1.69,6.5,0.234,6.72,0.0,0.0
4.84,2.04,6.34,-1.07,6.74,0.0,0.0
4.85,2.78,5.84,-2.23,6.84,0.0,0.0
4.86,2.76,5.36,-2.6,6.56,0.0,0.0
4.87,2.93,5.63,-1.89,6.62,0.0,0.0
4.88,2.61,5.76,-0.726,6.37,0.0,0.0
4.89,2.48,5.85,0.133,6.35,0.0,0.0
4.9,1.9,5.89,0.321,6.19,0.0,0.0
4.91,0.878,6.09,0.372,6.16,0.0,0.0
4.92,0.226,5.91,0.11,5.91,0.0,0.0
4.93,-0.0871,6.15,-0.332,6.16,0.0,0.0
4.94,-0.957,7.01,-0.424,7.08,0.0,0.0
4.95,-1.19,8.33,-0.596,8.43,0.0,0.0
4.96,-0.345,10.3,-1.11,10.4,0.0,0.0
4.97,0.537,12.1,-1.0,12.2,0.0,0.0
4.98,2.05,13.7,-0.417,13.9,0.0,0.0
4.99,4.08,15.2,0.4,15.7,0.0,0.0
5.0,6.03,16.4,0.897,17.5,0.0,0.0
5.01,7.65,16.7,0.102,18.4,0.0,0.0
5.02,8.7,15.6,-1.54,17.9,0.0,0.0
5.03,9.01,13.9,-2.67,16.8,0.0,0.0
5.04,9.15,12.8,-3.0,16.0,0.0,0.0
5.05,9.04,12.6,-2.96,15.8,0.0,0.0
5.06,7.27,13.1,-2.98,15.3,0.0,0.0
5.07,5.89,13.2,-3.18,14.8,0.0,0.0
5.08,4.34,12.6,-3.55,13.8,0.0,0.0
5.09,3.25,11.2,-3.73,12.2,0.0,0.0
5.1,2.44,9.53,-2.95,10.3,0.0,0.0
5.11,1.74,8.24,-1.51,8.56,0.0,0.0
5.12,1.01,7.31,0.185,7.38,0.0,0.0
5.13,0.515,6.76,1.53,6.95,0.0,0.0
5.14,0.46,6.45,2.37,6.89,0.0,0.0
5.15,0.479,6.59,2.8,7.18,0.0,0.0
5.16,0.363,6.92,2.93,7.52,0.0,0.0
5.17,0.205,7.45,2.99,8.02,0.0,0.0
5.18,0.262,8.5,3.09,9.05,0.0,0.0
5.19,0.332,9.87,3.28,10.4,0.0,0.0
