"Time (s)","Acceleration x (m/s^2)","Acceleration y (m/s^2)","Acceleration z (m/s^2)","Absolute acceleration (m/s^2)"
1.206749934E-3,1.535506897E0,9.207951965E0,2.255958710E0,9.603827910E0
1.128574996E-2,1.493144989E0,9.203610992E0,2.140399017E0,9.566464614E0
2.136374998E-2,1.497785339E0,9.197024689E0,2.142644348E0,9.561357061E0
3.144175000E-2,1.460213470E0,9.231004028E0,2.273322601E0,9.618297895E0
4.152075003E-2,1.321901093E0,9.314680023E0,2.395468597E0,9.708190163E0
5.159874994E-2,1.199605408E0,9.352401581E0,2.467468872E0,9.746531234E0
6.167674996E-2,1.081650696E0,9.391769714E0,2.411185913E0,9.756491383E0
7.175474998E-2,9.978250122E-1,9.431287537E0,2.319576416E0,9.763466295E0
8.183375001E-2,9.821076965E-1,9.502239990E0,2.269131317E0,9.818658630E0
9.191175003E-2,9.672885132E-1,9.547146606E0,2.298170929E0,9.867382886E0
1.019897499E-1,8.927435303E-1,9.585167542E0,2.341430969E0,9.907306738E0
1.120677500E-1,9.833052063E-1,9.585317230E0,2.333048401E0,9.914046115E0
1.221467500E-1,1.037642212E0,9.598938904E0,2.269730072E0,9.918064531E0
1.322247500E-1,9.395960999E-1,9.620045013E0,2.242786102E0,9.922610362E0
1.423027500E-1,7.508386230E-1,9.619296570E0,2.254611511E0,9.908476079E0
1.523807499E-1,6.063890076E-1,9.597442017E0,2.237696686E0,9.873494181E0
1.624597500E-1,5.367837524E-1,9.629026337E0,2.208208008E0,9.893556873E0
1.725377500E-1,5.075944519E-1,9.707612915E0,2.143542480E0,9.954404804E0
1.826157500E-1,5.276527405E-1,9.818083191E0,2.088606720E0,1.005163932E1
1.926947500E-1,5.457650757E-1,9.891280975E0,2.110610962E0,1.012867106E1
2.027727499E-1,5.852828979E-1,9.901459808E0,2.050735474E0,1.012852301E1
2.128507500E-1,7.099736023E-1,9.851912842E0,1.911225586E0,1.006066759E1
2.229287500E-1,8.855584717E-1,9.802964630E0,1.717079315E0,9.991530950E0
2.330077500E-1,9.626481628E-1,9.749974823E0,1.574126587E0,9.923032553E0
2.430857500E-1,1.057700500E0,9.703571320E0,1.510059814E0,9.877160895E0
2.531637499E-1,1.138831787E0,9.690997467E0,1.432970123E0,9.862341158E0
2.632417500E-1,1.250499573E0,9.539512482E0,1.421444092E0,9.725561725E0
2.733207500E-1,1.265169067E0,9.164242859E0,1.316512299E0,9.344367532E0
2.833987500E-1,1.338815918E0,8.534951477E0,1.255439301E0,8.730060287E0
2.934767500E-1,1.367107086E0,7.570656738E0,1.317859497E0,7.805163604E0
3.035547499E-1,1.334025879E0,6.514902191E0,1.404978333E0,6.796877204E0
3.136337500E-1,1.321152649E0,5.584736481E0,1.528172150E0,5.938858139E0
3.237117500E-1,1.158890076E0,4.884642334E0,1.698517914E0,5.299784905E0
3.337897500E-1,9.237290955E-1,4.322561188E0,1.882036285E0,4.804151459E0
3.438687500E-1,8.074209595E-1,3.740571442E0,2.129621429E0,4.379393879E0
3.539467499E-1,7.391629028E-1,3.283871155E0,2.379900970E0,4.122390106E0
3.640247500E-1,6.896159363E-1,2.805765381E0,2.477947083E0,3.806325164E0
3.741027500E-1,6.505471802E-1,2.349663849E0,2.390079803E0,3.414178276E0
3.841817500E-1,5.550457764E-1,1.940265198E0,2.202669525E0,2.987383117E0
3.942597500E-1,3.441343689E-1,1.516795807E0,2.000739441E0,2.534177637E0
4.043377499E-1,2.900967407E-1,1.531764679E0,1.748813324E0,2.342820350E0
4.144157500E-1,3.817062378E-1,1.931134186E0,1.539847870E0,2.499221950E0
4.244947500E-1,4.516108704E-1,2.302062836E0,1.503174133E0,2.786212151E0
4.345727500E-1,3.833528137E-1,2.718047791E0,1.723815308E0,3.241339597E0
4.446507500E-1,3.772155762E-1,3.451372833E0,1.976639557E0,3.995168327E0
4.547287499E-1,4.237687683E-1,4.800966339E0,1.984123993E0,5.212063486E0
4.648077500E-1,6.219566345E-1,6.531517639E0,1.975292358E0,6.851958306E0
4.748857500E-1,9.373507690E-1,8.647966461E0,2.618953857E0,9.084319990E0
4.849639166E-1,1.124910736E0,1.125689117E1,4.317920837E0,1.210898276E1
4.950429166E-1,1.512305145E0,1.516691025E1,6.088888092E0,1.641331141E1
5.051209166E-1,2.842289429E0,1.901106628E1,7.018455048E0,2.046357646E1
5.151989167E-1,4.383484497E0,2.025423111E1,7.362739105E0,2.199224275E1
5.252769167E-1,5.300028534E0,2.083756805E1,7.619305573E0,2.281114557E1
5.353559166E-1,5.987997894E0,2.273397446E1,7.965086517E0,2.482201274E1
5.454339166E-1,5.957461395E0,2.439297455E1,7.892337799E0,2.632104765E1
5.555119166E-1,6.109395447E0,2.472273880E1,7.515720978E0,2.655229912E1
5.655899167E-1,5.059029694E0,2.398761749E1,8.117619324E0,2.582431641E1
5.756689167E-1,2.946472778E0,2.301239548E1,8.913514252E0,2.485362717E1
5.857469166E-1,2.113604736E0,2.335667953E1,9.887987823E0,2.545140678E1
5.958249166E-1,2.659519501E0,2.422247910E1,1.055844360E1,2.655715099E1
6.059029166E-1,3.430566101E0,2.464220627E1,9.788145447E0,2.673602261E1
6.159819167E-1,3.997736664E0,2.464534973E1,7.947572937E0,2.620189072E1
6.260599167E-1,4.498445435E0,2.458457611E1,6.189329224E0,2.574772204E1
6.361379166E-1,4.988226929E0,2.444656311E1,4.900209961E0,2.542693284E1
6.462159166E-1,5.320685577E0,2.322600128E1,4.136198730E0,2.418398169E1
6.562949166E-1,4.919220428E0,2.124711639E1,3.544778595E0,2.209534204E1
6.663729167E-1,4.081113281E0,1.897828445E1,3.225791931E0,1.967832564E1
6.764509167E-1,3.041225739E0,1.655647064E1,3.165317688E0,1.712848534E1
6.865299166E-1,1.965712280E0,1.357706635E1,3.119512939E0,1.406883493E1
6.966079166E-1,1.533411255E0,1.032702484E1,2.602637787E0,1.075976373E1
7.066859166E-1,1.864522705E0,7.914491730E0,1.668430481E0,8.300559290E0
7.167639167E-1,1.758543091E0,5.905818787E0,8.234376526E-1,6.216849597E0
7.268429167E-1,1.401685181E0,4.460125122E0,2.381547546E-1,4.681255722E0
7.369209166E-1,1.136436768E0,3.385210419E0,-1.993853760E-1,3.576435744E0
7.469989166E-1,8.581654358E-1,2.395318909E0,-4.441264343E-1,2.582876087E0
7.570769166E-1,4.740641785E-1,1.705403595E0,-5.285508728E-1,1.847296482E0
7.671559167E-1,7.783813477E-3,1.328337708E0,-3.712280273E-1,1.379257736E0
7.772339167E-1,-3.812571716E-1,8.255332947E-1,1.119671631E-1,9.161871518E-1
7.873119166E-1,-5.926176453E-1,2.550695801E-1,7.201524353E-1,9.668897012E-1
7.973899166E-1,-2.450404358E-1,-1.630110168E-1,1.285377045E0,1.318640039E0
8.074689166E-1,2.401007080E-1,-3.838018799E-1,1.542242889E0,1.607316199E0
8.175469167E-1,3.686833191E-1,-6.230044556E-1,1.557511139E0,1.717528133E0
8.276249167E-1,2.746788025E-1,-7.771838379E-1,1.342408447E0,1.575285245E0
8.377039166E-1,2.878514099E-1,-8.578660583E-1,1.103804626E0,1.427297188E0
8.477819166E-1,2.029779053E-1,-1.033450928E0,7.420069885E-1,1.288330401E0
8.578599166E-1,-2.140548706E-2,-1.268462219E0,9.759704590E-2,1.272391363E0
8.679379167E-1,-2.278262329E-1,-1.495090942E0,-7.411088562E-1,1.684174592E0
8.780169167E-1,-4.260140991E-1,-1.755998383E0,-1.496587830E0,2.346229627E0
8.880949166E-1,-5.264552307E-1,-2.018552399E0,-1.908082123E0,2.827098563E0
8.981729166E-1,-3.558100891E-1,-2.042951660E0,-1.665287018E0,2.659592667E0
9.082509166E-1,-3.614982605E-1,-1.819167023E0,-1.017284546E0,2.115400079E0
9.183299167E-1,-4.498146057E-1,-1.425485687E0,-7.132667542E-1,1.656228271E0
9.284079167E-1,-7.494914246E-1,-9.367520142E-1,-8.553213501E-1,1.473369045E0
9.384859166E-1,-1.111139374E0,-8.068222046E-1,-1.038989410E0,1.721944184E0
9.485649166E-1,-1.173858948E0,-7.836204529E-1,-1.130149841E0,1.808105226E0
9.586429166E-1,-1.434916077E0,-1.082548828E0,-1.118474121E0,2.117045222E0
9.687209167E-1,-1.376986542E0,-1.306034088E0,-1.102906494E0,2.195044353E0
9.787989167E-1,-1.291364594E0,-1.604064331E0,-1.202449493E0,2.384644560E0
9.888779166E-1,-9.859996033E-1,-1.792522430E0,-1.042881317E0,2.296286856E0
9.989559166E-1,-6.194119263E-1,-1.509461060E0,-5.203179932E-1,1.712563762E0
1.009033917E0,-3.326083374E-1,-5.933660889E-1,2.484832764E-1,7.241930407E-1
1.019111917E0,-2.116598511E-1,7.945477295E-1,7.725434875E-1,1.128241741E0
1.029190917E0,-4.379891968E-1,2.988834686E0,1.088835754E0,3.211001498E0
1.039268917E0,-7.723937988E-1,6.331533508E0,1.617386627E0,6.580338004E0
1.049346917E0,-8.846603394E-1,1.126362717E1,3.111729126E0,1.171899224E1
1.059424917E0,-6.092330933E-1,2.092528564E1,6.023174744E0,2.178341980E1
1.069503917E0,2.533331909E0,3.431628891E1,7.744145966E0,3.527034522E1
1.079581917E0,6.964716797E0,4.231370819E1,2.608475647E0,4.296232450E1
1.089659917E0,6.864125977E0,3.863555695E1,-5.353018341E0,3.960400600E1
1.099737917E0,4.470603333E0,2.798206100E1,-5.824088745E0,2.892925927E1
1.109816917E0,3.527863770E0,2.097273697E1,-1.238674164E0,2.130342302E1
1.119894917E0,2.196382599E0,1.831396591E1,1.364412689E0,1.849559585E1
1.129972917E0,-2.716850281E-1,1.887110733E1,3.161276093E0,1.913599151E1
1.140051917E0,-1.415606232E0,2.044688049E1,4.187092896E0,2.091914458E1
1.150129917E0,-9.954299927E-1,2.351130798E1,4.275409241E0,2.391760038E1
1.160207917E0,-6.718029785E-1,2.593387024E1,3.683989105E0,2.620283802E1
1.170285917E0,1.766326904E-2,2.487811569E1,2.118245087E0,2.496813799E1
1.180364917E0,1.049617310E0,2.110401398E1,3.309617615E-1,2.113269122E1
1.190442917E0,7.562274170E-1,1.719728806E1,-6.462062073E-1,1.722603201E1
1.200520917E0,1.642085266E-1,1.432685715E1,-1.378184052E0,1.439392898E1
1.210598917E0,5.628295898E-2,1.201461548E1,-1.969753876E0,1.217514202E1
1.220677917E0,1.047821045E-2,9.651180267E0,-2.013313293E0,9.858946230E0
1.230755917E0,1.258882141E-1,7.724686432E0,-1.336720276E0,7.840500584E0
1.240833917E0,2.019300842E-1,6.362070007E0,-2.290237427E-1,6.369392625E0
1.250911917E0,1.913021851E-1,5.275030518E0,7.641609192E-1,5.333524669E0
1.260990917E0,2.269281006E-1,4.434678040E0,1.178948364E0,4.594320943E0
1.271068917E0,1.166075134E-1,3.741768951E0,1.141226807E0,3.913672294E0
1.281146917E0,-2.101629639E-1,2.970422974E0,8.906478882E-1,3.108188343E0
1.291224917E0,-2.311193848E-1,2.272125092E0,5.912704468E-1,2.359145893E0
1.301303917E0,1.326242065E-1,1.238823853E0,-4.819976807E-2,1.246834767E0
1.311381917E0,3.845503235E-1,4.535568237E-2,-1.027613068E0,1.098146031E0
1.321459917E0,7.231462097E-1,-9.901908875E-1,-1.477128296E0,1.919720406E0
1.331538917E0,7.167095947E-1,-1.791773987E0,-1.204694824E0,2.274954128E0
1.341616917E0,6.459068298E-1,-2.224524078E0,-2.606080627E-1,2.331012563E0
1.351694917E0,5.267546082E-1,-2.032174072E0,4.707710266E-1,2.151470947E0
1.361772917E0,3.565585327E-1,-8.104147339E-1,8.234376526E-1,1.209113558E0
1.371851917E0,3.463796997E-1,3.996688843E-2,1.156195679E0,1.207627714E0
1.381929917E0,1.543290710E-1,6.577322388E-1,1.532812500E0,1.675095018E0
1.392007917E0,2.649490356E-2,1.285377045E0,1.770967255E0,2.188428921E0
1.402085917E0,1.686991882E-1,1.818568268E0,1.736838226E0,2.520368423E0
1.412164917E0,2.429447937E-1,2.413880310E0,1.522933044E0,2.864465985E0
1.422242917E0,3.085084534E-1,3.034040680E0,1.399888916E0,3.355632472E0
1.432320917E0,5.466632080E-1,3.532504120E0,1.563648376E0,3.901592273E0
1.442398917E0,7.911048889E-1,3.995940399E0,1.902094574E0,4.495703548E0
1.452477917E0,1.184786224E0,4.488416290E0,2.209405518E0,5.141115826E0
1.462555917E0,1.774559784E0,5.446873169E0,2.404150543E0,6.212682961E0
1.472633917E0,2.189945984E0,7.514373779E0,2.572849731E0,8.239006763E0
1.482712542E0,2.315983887E0,1.133966904E1,3.331472168E0,1.204369470E1
1.492790542E0,3.357368317E0,1.801488785E1,5.372178497E0,1.909629304E1
1.502868542E0,6.024072876E0,2.620780060E1,7.967032471E0,2.804660180E1
1.512946542E0,8.287216644E0,3.105756546E1,1.044542862E1,3.379877677E1
1.523025542E0,8.608598328E0,3.173790070E1,8.238418121E0,3.390094156E1
1.533103542E0,7.049440613E0,2.970213409E1,3.127895508E0,3.068705123E1
1.543181542E0,6.046376495E0,2.764810547E1,1.008303223E0,2.831948234E1
1.553259542E0,6.618636475E0,2.775827637E1,1.332229614E0,2.856751812E1
1.563338542E0,7.755671997E0,2.859114441E1,2.597398682E0,2.973803065E1
1.573416542E0,7.773035889E0,2.902628952E1,4.062701569E0,3.032245231E1
1.583494542E0,6.788832550E0,2.880160675E1,4.500990143E0,2.993124974E1
1.593572542E0,5.369334412E0,2.820075623E1,4.525090027E0,2.906181074E1
1.603651542E0,3.877237244E0,2.632680313E1,4.791535950E0,2.703871943E1
1.613729542E0,2.488874359E0,2.299368439E1,4.956193542E0,2.365307320E1
1.623807542E0,1.410666504E0,1.924727509E1,4.599934387E0,1.983953060E1
1.633885542E0,1.567989349E0,1.653356827E1,3.399879913E0,1.695218728E1
1.643964542E0,2.120939484E0,1.390054367E1,1.864223328E0,1.418445724E1
1.654042542E0,1.443897400E0,1.089105194E1,4.538562012E-1,1.099571905E1
1.664120542E0,5.722599792E-1,7.992329865E0,-1.092727661E-1,8.013535966E0
1.674198542E0,3.466790771E-1,5.661227417E0,-2.200424194E-2,5.671875037E0
1.684277542E0,2.701881409E-1,3.632945251E0,2.592608643E-1,3.652192359E0
1.694355542E0,8.996292114E-2,2.060315552E0,6.224057007E-1,2.154154673E0
1.704433542E0,-3.481759644E-1,1.013093262E0,8.460406494E-1,1.365052834E0
1.714512542E0,-9.406439209E-1,-5.089416504E-3,8.713380432E-1,1.282211712E0
1.724590542E0,-1.173409882E0,-9.297166443E-1,7.846682739E-1,1.690256812E0
1.734668542E0,-9.186396790E-1,-1.563348999E0,5.261558533E-1,1.888067513E0
1.744746542E0,-2.896476746E-1,-1.715582428E0,1.273851013E-1,1.744518789E0
1.754825542E0,2.121089172E-1,-1.678609314E0,-8.981323242E-2,1.694339352E0
1.764903542E0,5.566923523E-1,-1.527124329E0,-2.350112915E-1,1.642329260E0
1.774981542E0,6.770420837E-1,-1.278491364E0,-2.728825378E-1,1.472206178E0
1.785059542E0,4.813989258E-1,-7.881111145E-1,-2.318678284E-1,9.521694935E-1
1.795138542E0,1.083746338E-1,-5.360353088E-1,-1.832189941E-1,5.767565460E-1
1.805216542E0,-1.733395386E-1,-4.186793518E-1,-3.336561584E-1,5.627303327E-1
1.815294542E0,-7.080276489E-1,-4.210743713E-1,-3.782633972E-1,9.064711664E-1
1.825372542E0,-1.113235016E0,-3.594026184E-1,-1.347198486E-3,1.169813770E0
1.835451542E0,-1.331481171E0,-1.969903564E-1,3.359014893E-1,1.387255246E0
1.845529542E0,-1.460213470E0,9.325607300E-2,2.875520325E-1,1.491176128E0
1.855607542E0,-1.253942413E0,1.562750244E-1,-4.041595459E-2,1.264289092E0
1.865685542E0,-9.177415466E-1,1.624122620E-1,-6.168672180E-1,1.117654890E0
1.875764542E0,-7.000941467E-1,1.199006653E-1,-9.638456726E-1,1.197291303E0
1.885842542E0,-6.168672180E-1,-2.724334717E-2,-9.744735718E-1,1.153631703E0
1.895920542E0,-6.176156616E-1,-1.926493835E-1,-9.782157898E-1,1.172803914E0
1.905999542E0,-4.622387695E-1,-4.092489624E-1,-9.687854004E-1,1.148779590E0
1.916077542E0,-5.418731689E-1,-5.824388123E-1,-9.084608459E-1,1.207544041E0
1.926155542E0,-4.549040222E-1,-6.908134460E-1,-7.717950439E-1,1.131295044E0
1.936233542E0,-3.249742126E-1,-7.229965210E-1,-5.510041809E-1,9.653692639E-1
1.946312542E0,-3.577560425E-1,-6.339317322E-1,-1.567240906E-1,7.445947002E-1
1.956390542E0,-4.927752686E-1,-3.249742126E-1,3.776646423E-1,7.007612191E-1
1.966468542E0,-4.492158508E-1,4.872367859E-1,6.478527832E-1,9.267727849E-1
1.976546542E0,-5.649252319E-1,2.182461548E0,8.870553589E-1,2.422632068E0
1.986625542E0,-9.243278503E-1,4.509672089E0,1.428479462E0,4.819966586E0
1.996703542E0,-1.002764740E0,7.891439667E0,2.962938538E0,8.488778588E0
2.006781542E0,6.667135620E-1,1.920102127E1,6.854396210E0,2.039868800E1
2.016859542E0,4.357438660E0,3.836641663E1,1.192120972E1,4.041143944E1
2.026938542E0,5.510939941E0,4.195220993E1,8.468339996E0,4.315172255E1
2.037016542E0,2.209405518E0,3.024340851E1,8.083190918E-3,3.032400528E1
2.047094542E0,-8.241860962E-1,2.362073044E1,-3.683240662E0,2.392037732E1
2.057172542E0,-9.720785522E-1,2.434612198E1,-5.437442780E0,2.496486283E1
2.067251542E0,1.950593719E0,2.614553009E1,-3.167563019E0,2.640884350E1
2.077329542E0,3.041974182E0,2.555201431E1,1.460662537E0,2.577387393E1
2.087407542E0,2.371817780E0,2.411515228E1,4.532125397E0,2.465169872E1
2.097485542E0,2.020348663E0,2.286734711E1,6.268963623E0,2.379700144E1
2.107564542E0,1.287023621E0,2.222608063E1,6.383625183E0,2.316043524E1
2.117642542E0,2.856060791E-1,2.166325104E1,5.267695770E0,2.229633681E1
2.127720542E0,-2.580633545E-1,1.983899460E1,3.355871429E0,2.012247938E1
2.137798542E0,-7.783813477E-1,1.729398697E1,1.879641266E0,1.741323962E1
2.147877542E0,-1.192869415E0,1.518726791E1,1.016236725E0,1.526790035E1
2.157955542E0,-4.658312988E-1,1.369038071E1,3.270698547E-1,1.370220776E1
2.168033542E0,5.851332092E-1,1.256352402E1,2.168989563E-1,1.257901275E1
2.178112542E0,1.191522217E0,1.140478363E1,-6.676116943E-2,1.146705158E1
2.188190542E0,1.509011993E0,1.013123199E1,-6.204597473E-1,1.026177125E1
2.198268542E0,1.211730194E0,8.831784210E0,-2.354603577E-1,8.917631074E0
2.208346542E0,2.704875183E-1,7.502099304E0,1.134640503E0,7.592237255E0
2.218425542E0,-7.985893250E-1,6.179749146E0,2.198627930E0,6.607647780E0
2.228503542E0,-1.960473175E0,4.865931244E0,2.225422211E0,5.698530158E0
2.238581542E0,-2.402354279E0,3.252286835E0,1.764530640E0,4.411603349E0
2.248659542E0,-1.423090668E0,1.547481995E0,1.002165985E0,2.328996401E0
2.258738542E0,-1.145118713E-1,2.969824219E-1,-6.460565186E-1,7.202086869E-1
2.268816542E0,6.756948853E-1,-8.906478882E-1,-2.083966370E0,2.364895995E0
2.278894542E0,1.169068909E0,-1.796114960E0,-2.008373566E0,2.937058978E0
2.288972542E0,1.512305145E0,-2.451601868E0,-1.137933655E0,3.097145714E0
2.299051542E0,1.649719391E0,-2.793041840E0,-3.448828125E-1,3.262146677E0
2.309129542E0,1.654210052E0,-2.789449310E0,1.040336609E-1,3.244728241E0
2.319207542E0,1.379082184E0,-1.965712280E0,1.752854919E-1,2.407616548E0
2.329285542E0,7.011419678E-1,-1.068328400E0,1.020877075E-1,1.281931172E0
2.339364542E0,2.038760376E-1,-4.559518433E-1,2.011816406E-1,5.384529456E-1
2.349442542E0,-1.549278259E-1,1.621128845E-1,2.237846375E-1,3.168008563E-1
2.359520542E0,-3.266207886E-1,5.025050354E-1,3.370989990E-1,6.876250325E-1
2.369598542E0,-3.085084534E-1,8.336164856E-1,3.981719971E-1,9.739788756E-1
2.379677542E0,-3.481759644E-1,1.148411865E0,5.081932068E-1,1.303202459E0
2.389755542E0,4.445755005E-2,1.336271210E0,7.162605286E-1,1.516781581E0
2.399833542E0,2.124082947E-1,1.676663361E0,6.968009949E-1,1.828072464E0
2.409911542E0,1.392105103E-2,1.974843292E0,6.704557800E-1,2.085596025E0
2.419990542E0,7.753875732E-2,2.580633545E0,7.997868347E-1,2.702839384E0
2.430068542E0,2.023791504E-1,3.575464783E0,9.687854004E-1,3.709912517E0
2.440146542E0,2.234852600E-1,5.918242950E0,1.424737244E0,6.091421960E0
2.450225542E0,2.227368164E-1,9.394763489E0,2.207459564E0,9.653189650E0
2.460303542E0,-3.293151855E-2,1.537407944E1,4.440216522E0,1.600246624E1
2.470381542E0,1.357676697E-1,2.397624115E1,1.089973389E1,2.633785814E1
2.480459625E0,3.789819031E0,3.370136765E1,1.630349670E1,3.762909664E1
2.490538625E0,8.458161163E0,3.985731628E1,1.237252121E1,4.258198484E1
2.500616625E0,8.393345947E0,3.764671326E1,4.863236847E0,3.887639834E1
2.510694625E0,6.860683136E0,3.375091461E1,5.119354248E-2,3.444119381E1
2.520772625E0,6.802005157E0,2.968566833E1,-8.904981995E-1,3.046800233E1
2.530851625E0,6.468049622E0,2.808714249E1,1.942360840E0,2.888764450E1
2.540929625E0,5.926924896E0,2.807651459E1,5.885760498E0,2.929268316E1
2.551007625E0,4.327351227E0,2.795706299E1,7.971672821E0,2.939168092E1
2.561085625E0,3.253184967E0,2.700833588E1,7.383096771E0,2.818764866E1
2.571164625E0,3.058439941E0,2.561847610E1,5.761219482E0,2.643580948E1
2.581242625E0,2.453547821E0,2.303529785E1,5.119354248E0,2.372451542E1
2.591320625E0,2.279908905E0,1.998793488E1,4.636757812E0,2.064497634E1
2.601398625E0,2.356549530E0,1.694491287E1,2.952460327E0,1.736088765E1
2.611477625E0,1.167871399E0,1.422791290E1,9.250762939E-1,1.430570499E1
2.621555625E0,-8.696914673E-2,1.145717468E1,-7.708969116E-2,1.145776410E1
2.631633625E0,-4.803511047E-1,8.831035767E0,-1.296304321E-1,8.845040076E0
2.641711625E0,-1.922003174E-1,6.719526672E0,3.391946411E-1,6.730827042E0
2.651790625E0,6.810836792E-2,4.537065125E0,7.744894409E-1,4.603198083E0
2.661868625E0,1.556762695E-2,2.704725494E0,5.451663208E-1,2.759164487E0
2.671946625E0,-2.639012146E-1,1.474583588E0,2.466870117E-1,1.518188094E0
2.682024625E0,-5.152285767E-1,3.225791931E-1,3.820056152E-1,7.179457585E-1
2.692103625E0,-5.605842590E-1,-6.087840271E-1,6.042933655E-1,1.024716143E0
2.702181625E0,-2.064207458E-1,-1.129700775E0,7.090754700E-1,1.349674549E0
2.712259625E0,2.799179077E-1,-1.338516541E0,8.340655518E-1,1.601763375E0
2.722337625E0,6.622229004E-1,-1.398990784E0,8.821156311E-1,1.781528099E0
2.732416625E0,9.560618591E-1,-1.252744904E0,7.063810730E-1,1.726962157E0
2.742494625E0,1.149309998E0,-9.424401855E-1,3.543132019E-1,1.527954456E0
2.752572625E0,7.961943054E-1,-6.209088135E-1,-1.242416382E-1,1.017294997E0
2.762650625E0,6.170169067E-1,-5.336402893E-1,-4.448748779E-1,9.291907654E-1
2.772729625E0,2.929408264E-1,-5.325924683E-1,-7.321275330E-1,9.515670179E-1
2.782807625E0,-1.733395386E-1,-4.616400146E-1,-9.437873840E-1,1.064843991E0
2.792885625E0,-6.004014587E-1,-3.152444458E-1,-9.104067993E-1,1.135209898E0
2.802963625E0,-8.030799866E-1,-2.616558838E-1,-6.997947693E-1,1.096865528E0
2.813042625E0,-7.003935242E-1,-3.043171692E-1,-5.239105225E-1,9.260897709E-1
2.823120625E0,-2.453398132E-1,-2.763253784E-1,-6.837780762E-1,7.772385709E-1
2.833198625E0,-5.224136353E-2,-3.212319946E-1,-9.797126770E-1,1.032354631E0
2.843276625E0,-3.293151855E-3,-6.117778015E-1,-1.002165985E0,1.174146322E0
2.853355625E0,-1.040336609E-1,-9.903405762E-1,-1.012494507E0,1.420120624E0
2.863433625E0,-1.002914429E-1,-1.256038055E0,-1.082848206E0,1.661400074E0
2.873511625E0,-1.570234680E-1,-1.344204712E0,-1.012045441E0,1.689904924E0
2.883590625E0,-4.207749939E-1,-1.142274628E0,-6.245013428E-1,1.368153810E0
2.893668625E0,-5.903723145E-1,-7.970924377E-1,-2.399510193E-1,1.020525510E0
2.903746625E0,-4.077520752E-1,-6.179150391E-1,2.613565063E-1,7.851037981E-1
2.913824625E0,-3.353027344E-2,-4.032614136E-1,8.743318176E-1,9.634314580E-1
2.923903625E0,5.822891235E-2,4.586462402E-1,1.124012604E0,1.215381139E0
2.933981625E0,-2.496807861E-1,1.831441498E0,1.190324707E0,2.198497524E0
2.944059625E0,-8.300239563E-1,4.136947174E0,1.419947205E0,4.451912146E0
2.954137625E0,-1.225501556E0,8.396938477E0,2.609373779E0,8.878021253E0
2.964216625E0,-3.176394653E-1,1.852308105E1,5.417384491E0,1.930164452E1
2.974294625E0,1.275946655E0,3.052991272E1,6.884783020E0,3.132257728E1
2.984372625E0,2.664758606E0,3.137954590E1,5.609285431E0,3.198813721E1
2.994450625E0,2.600392456E0,2.527553925E1,1.186432800E0,2.543663790E1
3.004529625E0,6.899153137E-1,2.079790054E1,-4.276457062E0,2.124421651E1
3.014607625E0,1.097966766E0,2.058175003E1,-6.361022186E0,2.157027048E1
3.024685625E0,3.515888672E0,2.213312393E1,-1.529818726E0,2.246279131E1
3.034763625E0,3.318149872E0,2.335263794E1,4.440515900E0,2.400154159E1
3.044842625E0,1.513652344E0,2.308349762E1,6.618935852E0,2.406136566E1
3.054920625E0,-3.016227722E-1,2.143198196E1,5.219645691E0,2.206049701E1
3.064998625E0,-1.093176727E0,1.880883682E1,2.207309875E0,1.896943844E1
3.075076625E0,-1.294657745E0,1.575069626E1,4.367916870E-1,1.580985004E1
3.085155625E0,-1.338366852E0,1.348306183E1,5.029541016E-1,1.355865572E1
3.095233625E0,-1.679956512E0,1.288460632E1,1.069376221E0,1.303759562E1
3.105311625E0,-1.828597412E0,1.238943604E1,1.382824402E0,1.259976576E1
3.115389625E0,-2.123334503E0,1.174772049E1,1.413809967E0,1.202149511E1
3.125468625E0,-2.516117706E0,1.056068893E1,1.389111328E0,1.094479919E1
3.135546625E0,-3.410956879E0,9.090596008E0,1.647324371E0,9.848210000E0
3.145624625E0,-4.071982269E0,8.042924652E0,2.036964111E0,9.242234543E0
3.155702625E0,-3.889212341E0,6.993606720E0,2.555186462E0,8.400326508E0
3.165781625E0,-3.651057587E0,5.903723145E0,2.992427216E0,7.559020380E0
3.175859625E0,-3.591182098E0,4.818479919E0,3.136727142E0,6.778893329E0
3.185937625E0,-3.740272064E0,4.112697601E0,2.919528809E0,6.279137293E0
3.196015625E0,-4.330045624E0,4.118685150E0,2.499951324E0,6.477856057E0
3.206094625E0,-4.650080109E0,4.786147156E0,2.348765717E0,7.074401035E0
3.216172625E0,-4.523593140E0,6.277795258E0,2.803070984E0,8.229873336E0
3.226250625E0,-4.562063141E0,7.850724335E0,3.653003540E0,9.787273754E0
3.236328625E0,-4.448898468E0,9.277108154E0,4.507875824E0,1.123291493E1
3.246407625E0,-4.543651428E0,1.082533859E1,4.901108093E0,1.272216902E1
3.256485625E0,-5.032085724E0,1.255349487E1,4.979395294E0,1.441202615E1
3.266563625E0,-5.459746399E0,1.451756058E1,5.065765686E0,1.631656759E1
3.276641625E0,-5.488935699E0,1.633358414E1,4.948260040E0,1.792762291E1
3.286720625E0,-5.627397766E0,1.740999573E1,4.702171783E0,1.889142600E1
3.296798625E0,-5.713618469E0,1.706915451E1,4.486470337E0,1.855073820E1
3.306876625E0,-5.241350555E0,1.554277863E1,4.321962433E0,1.696257888E1
3.316954625E0,-4.822820892E0,1.426892761E1,4.329297180E0,1.567178071E1
3.327033625E0,-4.165687408E0,1.346973953E1,4.420756989E0,1.477599157E1
3.337111625E0,-3.036884766E0,1.331975143E1,4.302203522E0,1.432296766E1
3.347189625E0,-1.592687988E0,1.342423416E1,3.863016815E0,1.405950272E1
3.357267625E0,-7.574249268E-1,1.273401947E1,4.075724487E0,1.339180624E1
3.367346625E0,1.688488770E-1,1.193872330E1,4.524191895E0,1.276831767E1
3.377424625E0,8.593629456E-1,1.122021744E1,5.064268799E0,1.234012166E1
3.387502625E0,3.339555359E-1,1.024304947E1,5.717660065E0,1.173555390E1
3.397580625E0,3.156935120E-1,9.185498657E0,5.992937622E0,1.097216247E1
3.407659625E0,2.909948730E-1,7.900720367E0,5.757477264E0,9.780317213E0
3.417737625E0,-8.083190918E-2,6.844067688E0,5.329367523E0,8.674673165E0
3.427815625E0,-1.064286804E-1,5.815107422E0,5.215304718E0,7.811927079E0
3.437894625E0,1.480421448E-1,4.960235138E0,4.891528015E0,6.967990774E0
3.447972625E0,2.815644836E-1,4.250411224E0,4.357588348E0,6.093755029E0
3.458050625E0,8.337661743E-2,3.495081940E0,4.165837097E0,5.438450896E0
3.468128625E0,1.878593445E-1,3.230581970E0,4.447251892E0,5.500000036E0
3.478207625E0,5.480104065E-1,3.515888672E0,5.051994324E0,6.179355566E0
3.488285500E0,1.451381836E0,4.443359985E0,5.719606018E0,7.386734745E0
3.498363500E0,2.419568481E0,5.353916473E0,6.096372528E0,8.466669430E0
3.508441500E0,3.089874573E0,5.781427460E0,6.323150940E0,9.107934242E0
3.518520500E0,3.507506104E0,6.146667938E0,6.177952881E0,9.394212453E0
3.528598500E0,3.904779968E0,6.570137329E0,5.660928040E0,9.511052381E0
3.538676500E0,4.125720520E0,7.295079803E0,5.018763428E0,9.768712581E0
3.548754500E0,4.348307648E0,8.192164307E0,4.448449402E0,1.028630339E1
3.558833500E0,4.773124237E0,9.076076202E0,3.978576508E0,1.099940659E1
3.568911500E0,5.126539307E0,9.673034821E0,3.596271515E0,1.152311489E1
3.578989500E0,5.471122742E0,9.808353424E0,3.394191742E0,1.173275409E1
3.589067500E0,5.762566681E0,9.765392761E0,3.420536957E0,1.184356972E1
3.599146500E0,5.971981201E0,9.710007935E0,3.701951752E0,1.198554381E1
3.609224500E0,6.032605133E0,9.503886566E0,4.032913513E0,1.195744856E1
3.619302500E0,6.056405640E0,9.337432709E0,3.951482849E0,1.181024621E1
3.629380500E0,5.505850525E0,9.030121765E0,3.348386993E0,1.109365515E1
3.639459500E0,4.698579254E0,8.613687744E0,2.699336700E0,1.017637864E1
3.649537500E0,4.433929596E0,8.455766144E0,2.076481934E0,9.770951333E0
3.659615500E0,4.360133057E0,8.529263306E0,1.266366577E0,9.662441571E0
3.669693500E0,4.189487915E0,8.635542297E0,3.698808289E-1,9.605269990E0
3.679772500E0,4.415368195E0,8.516839142E0,-3.354524231E-1,9.599195466E0
3.689850500E0,4.671186218E0,8.209079132E0,-5.950126648E-1,9.463773082E0
3.699928500E0,4.544699249E0,7.686515808E0,-6.418652344E-1,8.952586638E0
3.710006500E0,4.250261536E0,7.026687927E0,-6.122268677E-1,8.234918827E0
3.720085500E0,4.059408417E0,6.470893707E0,-4.770579529E-1,7.653681882E0
3.730163500E0,3.811823273E0,6.293512573E0,-2.871029663E-1,7.363472366E0
3.740241500E0,3.337908783E0,6.841822357E0,-1.119671631E-1,7.613455514E0
3.750319500E0,3.181633759E0,7.810158691E0,6.167175293E-2,8.433574305E0
3.760398500E0,3.132685547E0,9.245374146E0,2.929408264E-1,9.766088068E0
3.770476500E0,3.149899750E0,1.117635864E1,6.212081909E-1,1.162836018E1
3.780554500E0,3.366798706E0,1.382120865E1,1.079555054E0,1.426627426E1
3.790632500E0,3.678001556E0,1.651186340E1,1.575324097E0,1.698973144E1
3.800711500E0,3.578907623E0,1.774814255E1,1.645827484E0,1.818004103E1
3.810789500E0,2.984643402E0,1.712513809E1,7.035369873E-1,1.739751175E1
3.820867500E0,2.059267731E0,1.570878342E1,-4.529580688E-1,1.584965713E1
3.830945500E0,1.206042023E0,1.399020721E1,-1.014141083E0,1.407866888E1
3.841024500E0,5.117857361E-1,1.254660919E1,-1.114282837E0,1.260638541E1
3.851102500E0,1.122665405E-1,1.191597061E1,-1.034049683E0,1.196127995E1
3.861180500E0,-1.152603149E-1,1.141840530E1,-7.614665222E-1,1.144434777E1
3.871258500E0,-2.404000854E-1,1.066666855E1,-3.427871704E-1,1.067488235E1
3.881337500E0,-1.450483704E-1,1.002764740E1,1.691482544E-2,1.002871066E1
3.891415500E0,6.571334839E-2,9.450747070E0,2.418969727E-1,9.454070688E0
3.901493500E0,-6.825805664E-2,8.678203583E0,3.980223083E-1,8.687594509E0
3.911571500E0,-5.298980713E-2,7.866142273E0,3.393443298E-1,7.873636819E0
3.921650500E0,5.882766724E-1,7.118147736E0,7.813751221E-2,7.142842718E0
3.931728500E0,9.089099121E-1,6.609056396E0,-8.741821289E-2,6.671835252E0
3.941806500E0,9.924362183E-1,6.275400238E0,1.646575928E-2,6.353412384E0
3.951884500E0,9.910890198E-1,6.251749420E0,2.597099304E-1,6.335146210E0
3.961963500E0,1.004261627E0,6.322701874E0,4.932243347E-1,6.420932226E0
3.972041500E0,7.912545776E-1,6.425837402E0,7.376660156E-1,6.516258227E0
3.982119500E0,6.688092041E-1,6.431076508E0,9.830058289E-1,6.540057435E0
3.992197500E0,7.014413452E-1,6.164181519E0,1.132694550E0,6.306516526E0
4.002276500E0,7.024891663E-1,5.675148468E0,1.149309998E0,5.832813612E0
4.012354500E0,8.750802612E-1,5.250182190E0,9.675878906E-1,5.409843326E0
4.022432500E0,1.097517700E0,4.843477936E0,6.523434448E-1,5.008929585E0
4.032510500E0,1.274898834E0,4.325704651E0,3.215313721E-1,4.521113822E0
4.042589500E0,1.397793274E0,3.830384674E0,4.879852295E-2,4.077751106E0
4.052667500E0,1.448537750E0,3.488046570E0,-1.227447510E-1,3.778861834E0
4.062745500E0,1.464404755E0,3.219954071E0,-1.642085266E-1,3.541122696E0
4.072823500E0,1.517544250E0,3.181633759E0,-1.945953369E-2,3.525069162E0
4.082902500E0,1.709145813E0,3.470233612E0,3.266207886E-1,3.882058973E0
4.092980500E0,1.911075897E0,3.975283356E0,8.502319336E-1,4.491991004E0
4.103058500E0,2.010918274E0,4.805007935E0,1.429826660E0,5.401508848E0
4.113136500E0,2.056872711E0,5.739215240E0,1.952988739E0,6.401834264E0
4.123215500E0,2.038910065E0,6.979086914E0,2.596500549E0,7.720532592E0
4.133293500E0,2.150727539E0,8.506510620E0,3.468587036E0,9.434905824E0
4.143371500E0,2.679727478E0,1.043674667E1,4.684209137E0,1.174940150E1
4.153449500E0,3.594175873E0,1.288310944E1,6.008505249E0,1.466269908E1
4.163528500E0,4.282893677E0,1.525807068E1,7.751630402E0,1.764198608E1
4.173606500E0,4.708458710E0,1.833222794E1,8.409512329E0,2.071135105E1
4.183684500E0,4.850812683E0,2.159110107E1,8.255782013E0,2.361914406E1
4.193762500E0,4.383484497E0,2.445329910E1,8.304430847E0,2.619431895E1
4.203841500E0,3.657494202E0,2.693678467E1,8.025411072E0,2.834386803E1
4.213919500E0,3.690874786E0,2.903152863E1,7.424261169E0,3.019224842E1
4.223997500E0,4.051325226E0,3.085084534E1,6.802454224E0,3.185060875E1
4.234075500E0,3.998934174E0,3.230746628E1,5.292244720E0,3.298138423E1
4.244154500E0,3.612138519E0,3.263962555E1,2.801424408E0,3.295816560E1
4.254232500E0,2.769989777E0,3.058874039E1,8.193960571E-1,3.072483184E1
4.264310500E0,2.107018433E0,2.691882202E1,2.395019531E-3,2.700115759E1
4.274388500E0,2.513273621E0,2.347598145E1,-7.170089722E-2,2.361023910E1
4.284467500E0,4.129762115E0,2.098306549E1,8.195457458E-1,2.140129967E1
4.294545500E0,4.931494904E0,1.804033493E1,1.760339355E0,1.878489076E1
4.304623500E0,4.073030090E0,1.462638428E1,1.873504028E0,1.529806225E1
4.314701500E0,2.270628204E0,1.203676941E1,1.210832062E0,1.230876454E1
4.324780500E0,1.184636536E0,9.353299713E0,8.795709229E-1,9.468961097E0
4.334858500E0,9.044192505E-1,6.670728149E0,8.342152405E-1,6.783251675E0
4.344936500E0,9.490264893E-1,4.580774231E0,6.227050781E-1,4.719311968E0
4.355014500E0,7.804769897E-1,2.880909119E0,3.439846802E-1,3.004514460E0
4.365093500E0,7.080276489E-1,1.544637909E0,5.230123901E-1,1.777850213E0
4.375171500E0,9.087602234E-1,9.503736877E-1,9.568103027E-1,1.626204552E0
4.385249500E0,8.940907288E-1,4.728666687E-1,1.282832336E0,1.633603355E0
4.395327500E0,7.261399841E-1,-4.999603271E-2,1.456920319E0,1.628617725E0
4.405406500E0,5.986051941E-1,-5.825885010E-1,1.449136505E0,1.672642864E0
4.415484500E0,5.589376831E-1,-1.127156067E0,1.337319031E0,1.836113919E0
4.425562500E0,5.632786560E-1,-1.489103394E0,1.186432800E0,1.985531302E0
4.435640500E0,5.239105225E-1,-1.756447449E0,9.283694458E-1,2.054619114E0
4.445719500E0,3.315605164E-1,-1.934127960E0,6.180647278E-1,2.057373897E0
4.455797500E0,5.807922363E-2,-2.142344971E0,1.772314453E-1,2.150447896E0
4.465875500E0,-5.189707947E-1,-2.021097107E0,-4.233197021E-1,2.129169738E0
4.475953500E0,-8.196954346E-1,-1.472487946E0,-6.896159363E-1,1.820904032E0
4.486032375E0,-7.818241882E-1,-1.178948364E0,-5.159770203E-1,1.505789027E0
4.496110375E0,-9.457333374E-1,-8.625064087E-1,-3.086581421E-1,1.316661953E0
4.506188375E0,-1.031055908E0,-6.863227844E-1,-8.457412720E-2,1.241478165E0
4.516266375E0,-8.948391724E-1,-5.629792786E-1,-6.840774536E-2,1.059416081E0
4.526345375E0,-7.482939148E-1,-6.020480347E-1,-2.962339783E-1,1.005067256E0
4.536423375E0,-6.393205261E-1,-6.571334839E-1,-6.976991272E-1,1.152102089E0
4.546501375E0,-5.063969421E-1,-3.986210632E-1,-1.257385254E0,1.412924022E0
4.556579375E0,-3.650907898E-1,-1.351689148E-1,-1.653162231E0,1.698383727E0
4.566657375E0,-3.586541748E-1,-1.880090332E-1,-1.635648651E0,1.685030185E0
4.576736375E0,-3.484753418E-1,-2.472857666E-1,-1.514550476E0,1.573673555E0
4.586814375E0,-4.272116089E-1,-3.824546814E-1,-1.344354401E0,1.461530053E0
4.596892375E0,-4.558021545E-1,-3.817062378E-1,-8.943901062E-1,1.073959458E0
4.606971375E0,-4.050576782E-1,-1.199006653E-1,-2.230361938E-1,4.776955474E-1
4.617049375E0,-4.376898193E-1,3.857478333E-1,5.448669434E-1,7.982817515E-1
4.627127375E0,-3.799099731E-1,1.241518250E0,1.254092102E0,1.805116659E0
4.637205375E0,-4.849914551E-1,2.589016113E0,1.546284485E0,3.054376672E0
4.647284375E0,-7.698490906E-1,5.076243896E0,1.664538574E0,5.397370506E0
4.657362375E0,-6.174659729E-1,9.172625427E0,3.015030212E0,9.675160393E0
4.667440375E0,1.375190277E0,2.246797760E1,7.031178589E0,2.358259184E1
4.677518375E0,3.741768951E0,4.032988358E1,1.177690979E1,4.218051622E1
4.687596375E0,3.133883057E0,4.099764496E1,7.456893311E0,4.178795727E1
4.697675375E0,5.668711853E-1,3.164838684E1,-1.930535431E0,3.171227995E1
4.707753375E0,-1.421893158E0,2.677182770E1,-7.487130432E0,2.783540301E1
4.717831375E0,1.551673279E0,2.680161575E1,-7.013814697E0,2.774757455E1
4.727909375E0,2.831511841E0,2.572430603E1,-1.529519348E0,2.592482998E1
4.737988375E0,1.362466736E0,2.288560913E1,1.987716522E0,2.301213675E1
4.748066375E0,-1.541793823E-2,2.046454376E1,4.036805420E0,2.085889707E1
4.758144375E0,-6.846762085E-1,1.946597031E1,3.994742889E0,1.988342909E1
4.768222375E0,-3.933819580E-1,1.817819824E1,2.450554047E0,1.834684866E1
4.778301375E0,-4.490661621E-3,1.679043411E1,1.474882965E0,1.685508759E1
4.788379375E0,6.994953918E-1,1.550730240E1,1.099164276E0,1.556193701E1
4.798457375E0,1.076860657E0,1.419004166E1,5.312452698E-1,1.424075604E1
4.808535375E0,8.608598328E-1,1.299807037E1,2.844085693E-3,1.302654679E1
4.818614375E0,4.709207153E-1,1.163620239E1,-1.865121460E-1,1.164722109E1
4.828692375E0,3.052153015E-1,1.031460068E1,-7.664062500E-2,1.031940005E1
4.838770375E0,2.736309814E-1,9.329948273E0,-5.239105225E-2,9.334107001E0
4.848848375E0,-4.251159668E-2,8.240214386E0,-1.721420288E-2,8.240342025E0
4.858927375E0,-4.129911804E-1,7.044500885E0,2.857557678E-1,7.062379967E0
4.869005375E0,-3.140469360E-1,6.033652954E0,6.756948853E-1,6.079486576E0
4.879083375E0,3.158432007E-2,5.284011841E0,7.750881958E-1,5.340649812E0
4.889161375E0,4.321513367E-1,4.505480804E0,5.917195129E-1,4.564673487E0
4.899240375E0,5.429209900E-1,3.932472382E0,3.806584167E-1,3.987982330E0
4.909318375E0,5.556445312E-1,3.637735291E0,9.340576172E-2,3.681111724E0
4.919396375E0,4.972659302E-1,3.585194550E0,4.640350342E-2,3.619813068E0
4.929474375E0,2.998265076E-1,3.412004700E0,2.769241333E-1,3.436329289E0
4.939553375E0,2.137554932E-1,3.293750610E0,5.146298218E-1,3.340558089E0
4.949631375E0,1.484912109E-1,3.376528473E0,6.697073364E-1,3.445504620E0
4.959709375E0,1.537303162E-1,3.591331787E0,4.749623108E-1,3.625863513E0
4.969787375E0,2.860551453E-1,3.832330627E0,1.871109009E-1,3.847544161E0
4.979866375E0,4.555027771E-1,3.971241760E0,1.495390320E-1,4.000075727E0
4.989944375E0,7.747888184E-1,3.910617828E0,3.697311401E-1,4.003739581E0
5.000022375E0,9.590556335E-1,3.730691986E0,4.878355408E-1,3.882761120E0
5.010100375E0,9.033714294E-1,3.634292450E0,5.114863586E-1,3.779653403E0
5.020179375E0,7.973918152E-1,3.501518555E0,4.161346436E-1,3.615194869E0
5.030257375E0,6.957531738E-1,3.355272675E0,3.011737061E-1,3.439859416E0
5.040335375E0,5.596861267E-1,3.478167114E0,1.977388000E-1,3.528455139E0
5.050413375E0,5.213658142E-1,3.722309418E0,1.106199646E-1,3.760272130E0
5.060492375E0,5.394781494E-1,3.952680359E0,1.064286804E-1,3.990745013E0
5.070570375E0,7.153623962E-1,4.268972626E0,3.150947571E-1,4.339948772E0
5.080648375E0,8.813671875E-1,4.915478210E0,5.206173706E-1,5.020933838E0
5.090726375E0,1.185534668E0,5.864953766E0,7.298822021E-1,6.027926937E0
5.100805375E0,1.723366241E0,6.989415436E0,9.415420532E-1,7.260056527E0
5.110883375E0,2.399809570E0,8.107590179E0,1.282083893E0,8.551949696E0
5.120961375E0,3.197800140E0,9.545050964E0,1.860630798E0,1.023698543E1
5.131039375E0,4.136797485E0,1.167646866E1,2.856958923E0,1.271279781E1
5.141118375E0,5.025649109E0,1.454854614E1,4.623585205E0,1.607155512E1
5.151196375E0,5.322182465E0,1.741283981E1,6.226002960E0,1.924306965E1
5.161274375E0,5.586682434E0,2.018253021E1,6.815177765E0,2.202253833E1
5.171352375E0,5.422324219E0,2.194227081E1,6.233637085E0,2.344617409E1
5.181431375E0,4.620591431E0,2.231230133E1,4.821922760E0,2.329033265E1
5.191509375E0,4.417314148E0,2.313274521E1,3.977229309E0,2.388419808E1
5.201587375E0,4.946314087E0,2.423984299E1,4.353696442E0,2.511952794E1
5.211665375E0,5.237009583E0,2.609538437E1,4.647086334E0,2.701834129E1
5.221743375E0,5.192402344E0,2.809657288E1,4.349505157E0,2.890149900E1
5.231822375E0,4.318669281E0,2.897928726E1,3.392994232E0,2.949512510E1
5.241900375E0,3.003803558E0,2.825000381E1,2.113305359E0,2.848774492E1
5.251978375E0,1.943857727E0,2.617427032E1,1.020877075E0,2.626619881E1
5.262056375E0,9.316625977E-1,2.364632721E1,3.778143311E-1,2.366768957E1
5.272135375E0,-3.008743286E-2,2.086975113E1,3.233276367E-2,2.086979786E1
5.282213375E0,-5.641767883E-1,1.791564423E1,-1.175056458E-1,1.792491035E1
5.292291375E0,-7.759863281E-1,1.480526230E1,-2.832110596E-1,1.482828901E1
5.302369375E0,-4.686753845E-1,1.170640640E1,-1.951940918E-1,1.171741047E1
5.312448375E0,-3.727249146E-2,9.065597992E0,-3.053649902E-2,9.065726042E0
5.322526375E0,5.731581116E-1,7.257807312E0,9.789642334E-2,7.281061798E0
5.332604375E0,5.754034424E-1,5.580096130E0,4.574487305E-1,5.628305365E0
5.342682375E0,1.350192261E-1,3.952979736E0,7.355703735E-1,4.023101137E0
5.352761375E0,-1.778302002E-1,2.769540710E0,8.063731384E-1,2.890020236E0
5.362839375E0,-4.035607910E-1,1.925296326E0,8.698411560E-1,2.150872123E0
5.372917375E0,-2.580633545E-1,1.278641052E0,9.918374634E-1,1.638676658E0
5.382995375E0,3.158432007E-2,6.767427063E-1,1.187779999E0,1.367406152E0
5.393074375E0,3.936813354E-1,1.360670471E-1,1.298399963E0,1.363576804E0
5.403152375E0,7.180567932E-1,-1.154100037E-1,1.317859497E0,1.505217154E0
5.413230375E0,9.246272278E-1,-1.462458801E-1,1.104852448E0,1.448109906E0
5.423308375E0,1.107995911E0,-7.499404907E-2,8.189469910E-1,1.379838113E0
5.433387375E0,1.186881866E0,-7.185058594E-2,7.420069885E-1,1.401579624E0
5.443465375E0,5.513035583E-1,-1.877096558E-1,9.081614685E-1,1.078854847E0
5.453543375E0,-3.317102051E-1,-1.642085266E-1,1.014590149E0,1.079995033E0
5.463621375E0,-7.270381165E-1,-2.896476746E-1,1.068029022E0,1.324071822E0
5.473700375E0,-1.192270660E0,-3.811074829E-1,1.078507233E0,1.652250009E0
5.483779042E0,-1.333576813E0,-4.905299377E-1,8.888516235E-1,1.676038169E0
5.493857042E0,-1.158441010E0,-7.894583130E-1,3.826043701E-1,1.453140084E0
5.503935042E0,-8.369096375E-1,-9.321116638E-1,-3.968247986E-1,1.314047113E0
5.514014042E0,-4.632865906E-1,-1.087787933E0,-1.097068634E0,1.612909372E0
5.524092042E0,-8.981323242E-3,-1.043929138E0,-1.769919434E0,2.054868247E0
5.534170042E0,3.362008667E-1,-8.418493652E-1,-2.185754700E0,2.366276608E0
5.544248042E0,3.887416077E-1,-8.240364075E-1,-1.784738617E0,2.003858271E0
5.554327042E0,4.144880676E-1,-7.584727478E-1,-1.119072876E0,1.414003313E0
5.564405042E0,3.438349915E-1,-7.051835632E-1,-6.661148071E-1,1.029181857E0
5.574483042E0,1.095721436E-1,-9.262738037E-1,-2.668949890E-1,9.701660421E-1
5.584561042E0,-2.484832764E-2,-1.202449493E0,1.821711731E-1,1.216424498E0
5.594640042E0,-1.431024170E-1,-9.018745422E-1,4.424798584E-1,1.014713958E0
5.604718042E0,-1.721420288E-1,2.731819153E-1,3.514691162E-1,4.772753677E-1
5.614796042E0,-3.159928894E-1,2.252216492E0,4.126918030E-1,2.311416266E0
5.624874042E0,-5.092410278E-1,4.952002258E0,6.557862854E-1,5.021126213E0
5.634953042E0,-4.601431274E-1,1.068552933E1,1.142274628E0,1.075625679E1
5.645031042E0,1.841171265E-2,2.473890518E1,5.350623322E0,2.531092528E1
5.655109042E0,2.653382263E0,4.522620163E1,1.566013458E1,4.793422125E1
5.665187042E0,4.123774567E0,4.805756378E1,1.249571503E1,4.982647737E1
5.675265042E0,6.518943787E-1,3.630056259E1,4.776567078E-1,3.630955751E1
5.685344042E0,-1.744322662E0,2.625016251E1,-5.015320587E0,2.678184336E1
5.695422042E0,-1.389859772E0,2.008478348E1,-8.025710449E0,2.167353838E1
5.705500042E0,-5.206173706E-1,1.820948318E1,-5.255421295E0,1.895984634E1
5.715578042E0,-1.852098541E0,1.826920898E1,4.625381470E-1,1.836867462E1
5.725657042E0,-3.292104034E0,1.989153534E1,4.265679474E0,2.060842421E1
5.735735042E0,-3.472329254E0,2.371952499E1,6.632856903E0,2.487303212E1
5.745813042E0,-2.332749023E0,2.575080093E1,6.639443207E0,2.669508705E1
5.755891042E0,-1.808389435E0,2.352537872E1,4.554429016E0,2.403032543E1
5.765970042E0,-1.972298584E0,1.989003845E1,2.459834747E0,2.013838073E1
5.776048042E0,-1.352287903E0,1.664598450E1,3.847000122E-1,1.670525296E1
5.786126042E0,-9.145980835E-1,1.407642792E1,-1.874551849E0,1.423011796E1
5.796204042E0,-9.428892517E-1,1.204455322E1,-3.594475250E0,1.260478301E1
5.806283042E0,-7.429051208E-1,9.794432373E0,-3.784130859E0,1.052627474E1
5.816361042E0,-3.209326172E-1,7.040758667E0,-2.107317810E0,7.356362464E0
5.826439042E0,3.159928894E-1,5.020859070E0,2.918930054E-2,5.030877589E0
5.836517042E0,-5.044509888E-2,3.429368591E0,1.051563263E0,3.587324761E0
5.846596042E0,-5.074447632E-1,2.208507385E0,8.235873413E-1,2.411078839E0
5.856674042E0,-6.551875305E-1,1.065484314E0,1.017883301E-1,1.254945572E0
5.866752042E0,-3.135978699E-1,-3.867956543E-1,-7.464976501E-1,8.973367505E-1
5.876830042E0,6.556365967E-2,-1.747017059E0,-9.765692139E-1,2.002512079E0
5.886909042E0,1.025367737E-1,-2.747087402E0,-8.863069153E-1,2.888346055E0
5.896987042E0,-1.014889526E-1,-3.602109375E0,-5.944139099E-1,3.652234912E0
5.907065042E0,-6.661148071E-2,-4.070635071E0,4.191284180E-3,4.071182204E0
5.917143042E0,1.155596924E-1,-4.086202698E0,3.857478333E-1,4.105996581E0
5.927221042E0,3.019221497E-1,-3.973487091E0,3.595523071E-1,4.001129154E0
5.937300042E0,2.309696960E-1,-3.580853577E0,2.616558838E-1,3.597821999E0
5.947378042E0,1.595681763E-1,-2.614912262E0,2.378553772E-1,2.630551904E0
5.957456042E0,2.110610962E-1,-1.844464417E0,1.474433899E-1,1.862346725E0
5.967534042E0,2.248324585E-1,-9.915380859E-1,4.790039063E-2,1.017836852E0
5.977613042E0,3.200344849E-1,-1.139131165E-1,1.721420288E-2,3.401390868E-1
5.987691042E0,4.719685364E-1,6.171665955E-1,7.753875732E-2,7.808080204E-1
5.997769042E0,3.502716064E-1,1.173110504E0,1.037342834E-1,1.228673779E0
6.007847042E0,6.271957397E-2,1.896256714E0,2.962339783E-1,1.920280667E0
6.017926042E0,-1.285826111E-1,2.929258575E0,8.246351624E-1,3.045835262E0
6.028004042E0,-2.528242493E-1,4.400249634E0,1.508862305E0,4.658624518E0
6.038082042E0,-4.200265503E-1,6.901997223E0,2.529140625E0,7.362780743E0
6.048160042E0,-4.487667847E-1,1.190549240E1,4.467160492E0,1.272390128E1
6.058239042E0,-2.802172852E-1,1.873908188E1,7.802823944E0,2.030063479E1
6.068317042E0,1.007704468E0,2.583986572E1,1.134056717E1,2.823690126E1
6.078395042E0,4.359833679E0,3.175331863E1,1.098864899E1,3.388261797E1
6.088473042E0,5.946384430E0,3.260429901E1,7.407346344E0,3.395980833E1
6.098552042E0,4.663252716E0,3.126952469E1,3.113226013E0,3.176824321E1
6.108630042E0,5.035229187E0,3.042288528E1,4.556524658E-1,3.084012161E1
6.118708042E0,6.793023834E0,3.011901718E1,1.829196167E-1,3.087610449E1
6.128786042E0,7.567662964E0,3.005629761E1,1.223705292E0,3.101851065E1
6.138865042E0,6.275100861E0,2.959720230E1,2.380649414E0,3.034862050E1
6.148943042E0,4.153412933E0,2.879472107E1,2.782114563E0,2.922545059E1
6.159021042E0,2.198777618E0,2.813863541E1,3.787124634E0,2.847735484E1
6.169099042E0,6.927593994E-1,2.760978516E1,5.540578308E0,2.816874438E1
6.179177042E0,8.584648132E-1,2.698513412E1,6.143225098E0,2.768887214E1
6.189256042E0,1.465452576E0,2.553090820E1,4.139940948E0,2.590586683E1
6.199334042E0,1.036295013E0,2.292512695E1,1.674867096E0,2.300957481E1
6.209412042E0,8.681945801E-1,1.992162277E1,4.834945679E-2,1.994059060E1
6.219490042E0,1.024170227E0,1.690569443E1,-6.587800598E-1,1.694949615E1
6.229569042E0,9.160949707E-2,1.381432297E1,-6.590794373E-1,1.383033973E1
6.239647042E0,-7.714956665E-1,1.068298462E1,6.661148071E-2,1.071101317E1
6.249725042E0,-7.583230591E-1,7.506140900E0,1.190773773E0,7.637744906E0
6.259803042E0,-1.143023071E0,4.977748718E0,1.558558960E0,5.339811801E0
6.269882042E0,-1.079555054E0,3.028801575E0,1.212778015E0,3.436554758E0
6.279960042E0,-1.127156067E0,1.853595428E0,8.086184692E-1,2.315202073E0
6.290038042E0,-1.335373077E0,1.206042023E0,7.220983887E-1,1.938861702E0
6.300116042E0,-1.200802917E0,5.043013000E-1,9.006770325E-1,1.583498205E0
6.310195042E0,-6.619235229E-1,-1.945953369E-1,9.003776550E-1,1.134323595E0
6.320273042E0,-1.163081360E-1,-7.476951599E-1,6.890171814E-1,1.023386687E0
6.330351042E0,1.324745178E-1,-1.287921753E0,3.447331238E-1,1.339825685E0
6.340429042E0,4.251159668E-1,-1.774110718E0,2.016307068E-1,1.835442008E0
6.350508042E0,7.872129822E-1,-1.998494110E0,1.869612122E-1,2.156069916E0
6.360586042E0,1.151555328E0,-2.077978821E0,1.847158813E-1,2.382896475E0
6.370664042E0,1.560355225E0,-2.024390259E0,1.213975525E-1,2.558828191E0
6.380742042E0,1.212478638E0,-1.379381561E0,5.987548828E-4,1.836517982E0
6.390821042E0,4.023632813E-1,-8.952882385E-1,-6.271957397E-2,9.835501945E-1
6.400899042E0,-1.663041687E-1,-8.072712708E-1,6.286926270E-3,8.242472363E-1
6.410977042E0,-8.599617004E-1,-7.955955505E-1,1.716929626E-1,1.184054424E0
6.421055042E0,-1.411115570E0,-7.879614258E-1,5.550457764E-1,1.708861075E0
6.431133042E0,-1.650916901E0,-7.770341492E-1,6.815327454E-1,1.947766815E0
6.441212042E0,-1.692829742E0,-8.562194824E-1,6.054908752E-1,1.991332102E0
6.451290042E0,-1.338067474E0,-7.330256653E-1,3.381468201E-1,1.562720213E0
6.461368042E0,-9.554631042E-1,-6.809339905E-1,-3.038681030E-2,1.173671249E0
6.471446042E0,-7.156617737E-1,-5.794450378E-1,-2.472857666E-1,9.534561220E-1
6.481525042E0,-6.471043396E-1,-5.945635986E-1,-3.758683777E-1,9.557860307E-1
6.491602750E0,-6.069877625E-1,-6.872209167E-1,-6.529421997E-1,1.125628824E0
6.501680750E0,-4.014651489E-1,-8.222401428E-1,-9.768685913E-1,1.338478750E0
6.511758750E0,-7.634124756E-3,-8.774752808E-1,-1.181044006E0,1.471355189E0
6.521837750E0,4.394860840E-1,-8.617579651E-1,-1.072070618E0,1.443991073E0
6.531915750E0,7.110214233E-1,-7.667056274E-1,-8.533753967E-1,1.349680907E0
6.541993750E0,8.014334106E-1,-6.988966370E-1,-4.284091187E-1,1.146423305E0
6.552071750E0,6.973997498E-1,-5.349874878E-1,1.419049072E-1,8.903454530E-1
6.562150750E0,4.932243347E-1,-1.429527283E-1,8.942404175E-1,1.031199133E0
6.572228750E0,2.056723022E-1,5.866300964E-1,1.444795532E0,1.572854124E0
6.582306750E0,-2.529739380E-2,1.642833710E0,1.676663361E0,2.347497089E0
6.592384750E0,-5.399272156E-1,3.727997589E0,1.980531464E0,4.255818641E0
6.602463750E0,-1.162033539E0,6.913223877E0,3.002905426E0,7.626298402E0
6.612541750E0,-1.558109894E0,1.695703766E1,7.465874634E0,1.859322771E1
6.622619750E0,1.480870514E0,4.175536926E1,1.572689575E1,4.464346637E1
6.632697750E0,5.765560455E0,5.431664795E1,1.087743027E1,5.569433024E1
6.642776750E0,2.321222992E0,4.230397842E1,-6.215375061E0,4.282108772E1
6.652854750E0,1.257385254E0,2.847992569E1,-1.507500137E1,3.224814493E1
6.662932750E0,2.509381714E0,2.568778198E1,-5.678291931E0,2.642729912E1
6.673010750E0,1.323098602E0,2.648592224E1,2.688110046E0,2.665484201E1
6.683088750E0,2.002835083E-1,2.380275192E1,7.811954956E0,2.505269951E1
6.693167750E0,-2.192939758E-1,2.197565140E1,7.739206238E0,2.329962784E1
6.703245750E0,-3.305126953E-1,2.226140717E1,3.588188324E0,2.255115481E1
6.713323750E0,-8.116122437E-1,2.071422455E1,1.329984283E0,2.077273866E1
6.723401750E0,-1.304537201E0,1.826352081E1,6.465055847E-1,1.832146226E1
6.733480750E0,-2.382295990E0,1.630813705E1,4.656816101E-1,1.648779936E1
6.743558750E0,-2.899470520E0,1.398975815E1,2.519261169E-1,1.428928721E1
6.753636750E0,-1.993404694E0,1.148217270E1,-3.055146790E-1,1.165792826E1
6.763714750E0,-6.625222778E-1,9.219927063E0,-1.177002411E0,9.318332763E0
6.773793750E0,6.653663635E-1,6.863078156E0,-1.962419128E0,7.169075464E0
6.783871750E0,1.009800110E0,4.857398987E0,-1.474583588E0,5.175752886E0
6.793949750E0,5.896238708E-1,3.613785095E0,-2.640509033E-1,3.671079120E0
6.804027750E0,2.805166626E-1,2.598147125E0,6.803352356E-1,2.700354443E0
6.814106750E0,-3.367996216E-2,1.538051605E0,9.854008484E-1,1.826951535E0
6.824184750E0,-2.636018372E-1,6.514453125E-1,7.355703735E-1,1.017315437E0
6.834262750E0,-4.242178345E-1,2.724334717E-1,6.063890076E-1,7.885990084E-1
6.844340750E0,-5.816903687E-1,9.011260986E-2,3.526666260E-1,6.861907290E-1
6.854419750E0,-6.155200195E-1,4.445755005E-2,3.577560425E-2,6.181595765E-1
6.864497750E0,-9.635462952E-1,1.933978271E-1,-1.092727661E-1,9.888198622E-1
6.874575750E0,-1.263372803E0,7.728428650E-1,-1.457968140E-1,1.488171241E0
6.884653750E0,-1.440304871E0,1.784139862E0,-3.861968994E-2,2.293278145E0
6.894731750E0,-1.468296661E0,2.932701416E0,2.043251038E-1,3.286089078E0
6.904810750E0,-1.476828918E0,4.268074493E0,5.098397827E-1,4.545043470E0
6.914888750E0,-1.441951447E0,5.841901703E0,6.581813049E-1,6.053118379E0
6.924966750E0,-1.587448883E0,7.738906860E0,6.258485413E-1,7.924793988E0
6.935044750E0,-1.255588989E0,9.557774506E0,6.568341064E-1,9.662245508E0
6.945123750E0,-9.771679688E-1,1.046653473E1,4.285588074E-1,1.052078272E1
6.955201750E0,-9.599537659E-1,1.059601547E1,3.517684937E-2,1.063946862E1
6.965279750E0,-9.518705750E-1,1.042926224E1,-1.088237000E-1,1.047317578E1
6.975357750E0,-1.400787048E0,1.019170624E1,-2.963836670E-2,1.028756331E1
6.985436750E0,-2.097887421E0,1.038839722E1,3.141966248E-1,1.060276605E1
6.995514750E0,-2.742746429E0,1.124521545E1,9.654922485E-1,1.161506366E1
7.005592750E0,-3.331921234E0,1.258343262E1,1.976190491E0,1.316623729E1
7.015670750E0,-3.831282806E0,1.398317184E1,3.235671387E0,1.485521431E1
7.025749750E0,-3.636238403E0,1.519190826E1,4.329297180E0,1.620984641E1
7.035827750E0,-3.363056488E0,1.621413254E1,5.176984406E0,1.734962277E1
7.045905750E0,-3.028202820E0,1.719010300E1,5.492677917E0,1.829861099E1
7.055983750E0,-2.647843781E0,1.786534882E1,5.374423828E0,1.884320027E1
7.066061750E0,-2.736160126E0,1.782568130E1,4.706512756E0,1.863847495E1
7.076140750E0,-3.087329865E0,1.688833054E1,3.614383850E0,1.754454572E1
7.086218750E0,-3.792513428E0,1.565010544E1,2.715353394E0,1.633040423E1
7.096296750E0,-4.583917694E0,1.413989594E1,2.076032867E0,1.500862655E1
7.106374750E0,-5.262606354E0,1.297202454E1,1.760638733E0,1.410915642E1
7.116453750E0,-5.409450989E0,1.233345245E1,1.883383484E0,1.359865224E1
7.126531750E0,-4.868625641E0,1.184307220E1,2.120340729E0,1.297912631E1
7.136609750E0,-4.333338776E0,1.144744492E1,2.355651398E0,1.246478694E1
7.146687750E0,-3.369642792E0,1.100481537E1,2.472258911E0,1.177168289E1
7.156766750E0,-2.736908569E0,1.023736130E1,2.725681915E0,1.094182694E1
7.166844750E0,-2.425556030E0,9.129964142E0,2.890189819E0,9.878905024E0
7.176922750E0,-2.108215942E0,8.182135162E0,3.023113403E0,8.973913579E0
7.187000750E0,-1.604962463E0,7.382947083E0,3.478466492E0,8.317664412E0
7.197079750E0,-1.131497040E0,6.780449982E0,4.098477173E0,8.003268248E0
7.207157750E0,-7.729925537E-1,6.311026154E0,4.596790924E0,7.845830447E0
7.217235750E0,-6.393205261E-1,6.111341400E0,4.885091400E0,7.849926269E0
7.227313750E0,-4.671784973E-1,5.933062134E0,5.072351990E0,7.819733802E0
7.237391750E0,-1.052311707E-1,5.559289398E0,5.217999115E0,7.625240126E0
7.247470750E0,4.468208313E-1,5.136269073E0,5.286706238E0,7.384454732E0
7.257548750E0,9.026229858E-1,4.912634125E0,5.282365265E0,7.269943954E0
7.267626750E0,1.257684631E0,4.602179718E0,5.230872345E0,7.079820215E0
7.277704750E0,1.566791840E0,4.264481964E0,5.006938019E0,6.760922379E0
7.287783750E0,1.803000641E0,4.128564606E0,4.749174042E0,6.546030178E0
7.297861750E0,1.940714264E0,4.431534576E0,4.730762329E0,6.766460136E0
7.307939750E0,1.811532898E0,5.240602112E0,4.954247589E0,7.435733394E0
7.318017750E0,1.523082733E0,6.393654327E0,5.294340363E0,8.439705951E0
7.328096750E0,1.213077393E0,7.936795349E0,5.749094696E0,9.875037569E0
7.338174750E0,1.127455444E0,9.761500854E0,6.346352692E0,1.169761716E1
7.348252750E0,1.285077667E0,1.145986908E1,6.675817566E0,1.332466000E1
7.358330750E0,1.513502655E0,1.259391083E1,6.256240082E0,1.414347271E1
7.368409750E0,1.709445190E0,1.312620392E1,5.162165222E0,1.420800415E1
7.378487750E0,1.885329437E0,1.342483292E1,4.041745148E0,1.414624720E1
7.388565750E0,2.203567657E0,1.346554825E1,3.597618713E0,1.411097305E1
7.398643750E0,2.631228333E0,1.334070786E1,3.735781403E0,1.410155705E1
7.408721750E0,3.206931152E0,1.302890625E1,4.112547913E0,1.403388242E1
7.418800750E0,3.723806305E0,1.295361282E1,4.270020447E0,1.413845441E1
7.428878750E0,4.103416901E0,1.302157150E1,4.269721069E0,1.430488982E1
7.438956750E0,4.433779907E0,1.316018326E1,4.168681183E0,1.449919758E1
7.449034750E0,4.753515015E0,1.304417450E1,3.881129150E0,1.441560116E1
7.459113750E0,5.172194366E0,1.274165359E1,3.473526764E0,1.418332539E1
7.469191750E0,5.406307526E0,1.210412933E1,3.013084259E0,1.359473371E1
7.479269750E0,5.386997681E0,1.114507370E1,2.580932922E0,1.264490516E1
7.489347750E0,5.404511261E0,1.023137375E1,2.164498901E0,1.177178008E1
7.499426750E0,5.484894104E0,9.623487854E0,1.719174957E0,1.120942212E1
7.509504750E0,5.644761658E0,9.342671814E0,1.217118988E0,1.098317939E1
7.519582750E0,5.656736755E0,8.853788452E0,7.694000244E-1,1.053471485E1
7.529660750E0,5.593268738E0,8.374934235E0,3.164419556E-1,1.007592746E1
7.539739750E0,5.388494568E0,7.856412506E0,-1.332229614E-2,9.526765908E0
7.549817750E0,5.144052887E0,7.164850616E0,-2.222877502E-1,8.823025349E0
7.559895750E0,4.872667236E0,6.379284210E0,-2.716850281E-1,8.031934125E0
7.569973750E0,4.615502014E0,5.703739014E0,-3.671864319E-1,7.346449718E0
7.580051750E0,4.255201263E0,4.976700897E0,-4.864883423E-1,6.565893734E0
7.590130750E0,3.927233276E0,4.372407532E0,-5.611830139E-1,5.903900000E0
7.600208750E0,3.649710388E0,3.789968719E0,-5.375321960E-1,5.288968678E0
7.610286750E0,3.493435364E0,3.468137970E0,-5.337899780E-1,4.951464769E0
7.620364750E0,3.479065247E0,3.478915558E0,-6.777905273E-1,4.966502637E0
7.630443750E0,3.514840851E0,3.426524506E0,-7.840695190E-1,4.970909515E0
7.640521750E0,3.501219177E0,3.445834351E0,-7.571255493E-1,4.970467704E0
7.650599750E0,3.479664001E0,3.438798981E0,-6.734495544E-1,4.938312900E0
7.660677750E0,3.070415039E0,3.600313110E0,-4.507127380E-1,4.753193135E0
7.670756750E0,1.749711456E0,4.045786743E0,-1.525328064E-1,4.410572163E0
7.680834750E0,1.526824951E0,4.572840729E0,1.969903564E-1,4.825025592E0
7.690912750E0,1.488953705E0,5.242997131E0,6.509962463E-1,5.489061684E0
7.700990750E0,1.822160797E0,6.522686005E0,1.136287079E0,6.867084608E0
7.711069750E0,2.169288940E0,8.101602631E0,1.606010284E0,8.539382222E0
7.721147750E0,2.634970551E0,1.005459137E1,2.178869019E0,1.062004461E1
7.731225750E0,3.057990875E0,1.218062027E1,2.816992035E0,1.287067452E1
7.741303750E0,3.226989441E0,1.413420776E1,3.690725098E0,1.496030554E1
7.751381750E0,3.237767029E0,1.591580292E1,4.390819244E0,1.682483912E1
7.761460750E0,3.135080566E0,1.697634750E1,4.309987335E0,1.779328794E1
7.771538750E0,3.057392120E0,1.661425049E1,3.480412445E0,1.724802124E1
7.781616750E0,3.622766418E0,1.581566116E1,2.459086304E0,1.641056611E1
7.791694750E0,4.259691925E0,1.505778717E1,2.163301392E0,1.579752521E1
7.801773750E0,3.589086456E0,1.427880707E1,2.337988129E0,1.490744986E1
7.811851750E0,3.279829559E0,1.392299698E1,2.484234009E0,1.451821426E1
7.821929750E0,3.216660919E0,1.363754059E1,2.408192139E0,1.421720121E1
7.832007750E0,2.891986084E0,1.311093567E1,2.247725830E0,1.361295299E1
7.842086750E0,2.528541870E0,1.251981491E1,2.121687927E0,1.294761944E1
7.852164750E0,2.382146301E0,1.212149323E1,1.777852936E0,1.248062419E1
7.862242750E0,2.649041290E0,1.159099640E1,1.505868530E0,1.198483447E1
7.872320750E0,2.915187836E0,1.089524323E1,1.816921692E0,1.142391568E1
7.882398750E0,2.920876007E0,1.013407608E1,2.343975677E0,1.080394542E1
7.892477750E0,3.096610565E0,9.255852356E0,2.439477081E0,1.006036024E1
7.902555750E0,3.272494812E0,8.476273499E0,2.176324310E0,9.343062786E0
7.912633750E0,3.395988007E0,7.788453827E0,1.829495544E0,8.691363616E0
7.922711750E0,3.440894623E0,7.101382599E0,1.368603973E0,8.008899266E0
7.932790750E0,3.506308594E0,6.396049347E0,6.222560120E-1,7.320577146E0
7.942868750E0,3.282074890E0,5.508095856E0,-7.319778442E-2,6.412214396E0
7.952946750E0,2.862347717E0,4.461771698E0,-4.564009094E-1,5.320596107E0
7.963024750E0,2.308050385E0,3.435805206E0,-5.354365540E-1,4.173553198E0
7.973103750E0,1.730102234E0,2.426005096E0,-4.525090027E-1,3.013887666E0
7.983181750E0,1.343007202E0,1.490300903E0,-3.700305176E-1,2.039996988E0
7.993259750E0,1.125060425E0,7.601193237E-1,-3.776646423E-1,1.409316475E0
8.003337750E0,1.089733887E0,2.580633545E-1,-4.008663940E-1,1.189458072E0
8.013416750E0,1.109193420E0,3.338058472E-2,-2.981799316E-1,1.149058562E0
8.023494750E0,1.112187195E0,-1.339714050E-1,-7.454498291E-2,1.122704613E0
8.033572750E0,1.203497314E0,3.412902832E-2,2.438429260E-1,1.228425801E0
8.043650750E0,1.430425415E0,6.824308777E-1,6.277944946E-1,1.704686100E0
8.053728750E0,1.222956848E0,1.992805939E0,9.912387085E-1,2.539577354E0
8.063807750E0,1.109642487E0,3.390449524E0,1.292562103E0,3.794360448E0
8.073885750E0,1.494791565E0,5.041965179E0,1.632505188E0,5.506440582E0
8.083963750E0,1.853595428E0,7.104076996E0,2.072889404E0,7.628931541E0
8.094041750E0,2.278262329E0,9.364526367E0,2.751578064E0,1.002277482E1
8.104120750E0,2.710713043E0,1.185609512E1,3.654500427E0,1.269922557E1
8.114198750E0,3.128494263E0,1.398377060E1,4.769531708E0,1.510237562E1
8.124276750E0,3.510799255E0,1.520897278E1,6.005810852E0,1.672448290E1
8.134354750E0,3.745810547E0,1.562720306E1,6.422394562E0,1.730571363E1
8.144433750E0,3.761078796E0,1.598436035E1,6.118077393E0,1.752359440E1
8.154511750E0,4.047283630E0,1.676214294E1,5.982010345E0,1.825196945E1
8.164589750E0,4.946613464E0,1.787837173E1,6.366261292E0,1.961209942E1
8.174667750E0,5.821394348E0,1.937989929E1,7.006479950E0,2.141401153E1
8.184745750E0,6.108946381E0,2.106838806E1,7.799680481E0,2.328156389E1
8.194824750E0,6.077362061E0,2.254222321E1,8.546776886E0,2.486229176E1
8.204902750E0,5.920488281E0,2.364977005E1,8.946296082E0,2.596921290E1
8.214980750E0,6.107299805E0,2.446183136E1,8.904832306E0,2.673904155E1
8.225058750E0,7.115004272E0,2.577041016E1,8.639134827E0,2.809576438E1
8.235137750E0,8.123606873E0,2.702420288E1,8.016878815E0,2.933548834E1
8.245215750E0,8.699160004E0,2.684547455E1,6.855444031E0,2.904052343E1
8.255293750E0,9.449699249E0,2.560979416E1,5.482948151E0,2.784279248E1
8.265371750E0,9.799372101E0,2.362357452E1,4.174369354E0,2.591382500E1
8.275450750E0,9.675280151E0,2.118484589E1,3.294349365E0,2.352151098E1
8.285528750E0,9.998458099E0,1.900013901E1,3.389252014E0,2.173617896E1
8.295606750E0,9.588909760E0,1.628837814E1,3.905678101E0,1.930059000E1
8.305684750E0,7.696544952E0,1.364547409E1,3.530109100E0,1.605918546E1
8.315762750E0,4.375101929E0,1.199350937E1,1.983674927E0,1.291978135E1
8.325841750E0,2.437531128E0,1.039887543E1,6.782395935E-1,1.070225103E1
8.335919750E0,1.199006653E0,8.535999298E0,2.854563904E-1,8.624522382E0
8.345997750E0,-7.304809570E-2,6.767427063E0,5.032534790E-1,6.786506402E0
8.356075750E0,-1.337468719E0,5.020410004E0,8.288264465E-1,5.261206369E0
8.366154750E0,-2.709216156E0,3.503913574E0,8.150550842E-1,4.503507223E0
8.376232750E0,-4.146377563E0,1.959575043E0,5.789959717E-1,4.622512042E0
8.386310750E0,-4.966821442E0,2.043251038E-1,-3.209326172E-1,4.981371470E0
8.396388750E0,-4.891827393E0,-1.321002960E0,-1.684447174E0,5.339699087E0
8.406467750E0,-3.636537781E0,-2.483186188E0,-2.565065918E0,5.096094960E0
8.416545750E0,-1.490450592E0,-2.923570404E0,-2.508333893E0,4.130429250E0
8.426623750E0,-1.990859985E-1,-3.066822510E0,-2.113904114E0,3.730097337E0
8.436701750E0,4.294569397E-1,-3.187770996E0,-1.486708374E0,3.543531992E0
8.446779750E0,7.360194397E-1,-3.017724609E0,-8.301736450E-1,3.215209902E0
8.456858750E0,8.171507263E-1,-2.311044159E0,-6.435118103E-1,2.534318027E0
8.466936750E0,5.673202515E-1,-1.321302338E0,-6.242019653E-1,1.567584201E0
8.477014750E0,1.526824951E-1,-7.813751221E-1,-4.269122314E-1,9.033897714E-1
8.487092875E0,-1.101708984E-1,-3.763174438E-1,-3.094065857E-1,4.994846151E-1
8.497171875E0,-2.643502808E-1,-7.005432129E-2,-3.947291565E-1,4.802080652E-1
8.507249875E0,-2.993774414E-1,2.447410583E-1,-3.647914124E-1,5.315992970E-1
8.517327875E0,-2.900967407E-1,5.381309509E-1,-2.375559998E-1,6.558764307E-1
8.527405875E0,-3.118016052E-1,7.331753540E-1,-1.432521057E-1,8.094983055E-1
8.537484875E0,-4.252656555E-1,7.441026306E-1,-1.329235840E-1,8.672994188E-1
8.547562875E0,-5.234614563E-1,6.303392029E-1,-1.393601990E-1,8.311201309E-1
8.557640875E0,-5.575904846E-1,3.977229309E-1,-2.583627319E-1,7.320122810E-1
8.567718875E0,-5.872288513E-1,3.068618774E-2,-3.445834351E-1,6.815549205E-1
8.577797875E0,-6.125262451E-1,-4.547543335E-1,-3.004252625E-1,8.199056306E-1
8.587875875E0,-7.461982727E-1,-8.258326721E-1,-1.868115234E-1,1.128587617E0
8.597953875E0,-7.970924377E-1,-1.054706726E0,-3.203338623E-2,1.322417774E0
8.608031875E0,-8.187973022E-1,-9.854008484E-1,1.886077881E-1,1.294996815E0
8.618109875E0,-9.515711975E-1,-5.611830139E-1,4.990621948E-1,1.212219944E0
8.628188875E0,-1.172661438E0,3.004252625E-1,8.222401428E-1,1.463375905E0
8.638266875E0,-1.384470978E0,1.855242004E0,1.265618134E0,2.638270654E0
8.648344875E0,-1.598226471E0,4.136797485E0,2.171534271E0,4.937912755E0
8.658422875E0,-1.821262665E0,8.321046295E0,3.140319672E0,9.078458943E0
8.668501875E0,-1.113235016E0,1.771266632E1,4.849615173E0,1.839827730E1
8.678579875E0,1.206341400E0,3.286685303E1,8.162825317E0,3.388682642E1
8.688657875E0,4.982538757E0,4.263718552E1,8.550818481E0,4.377067258E1
8.698735875E0,4.421206055E0,3.445894226E1,7.801776123E-1,3.475017182E1
8.708813875E0,1.826202393E-2,2.546339859E1,-6.188431091E0,2.620461182E1
8.718892875E0,-1.378034363E0,2.601440277E1,-6.067781982E0,2.674819823E1
8.728970875E0,5.656736755E-1,2.795541641E1,4.022135925E-1,2.796403171E1
8.739048875E0,9.247769165E-1,2.638727737E1,4.798721008E0,2.683600833E1
8.749126875E0,-5.346881104E-1,2.456481720E1,6.819219360E0,2.549937035E1
8.759205875E0,-8.529263306E-1,2.359692993E1,6.734645233E0,2.455398200E1
8.769283875E0,-4.340972900E-2,2.232592300E1,4.339326324E0,2.274375684E1
8.779361875E0,1.944456482E-1,2.016935760E1,1.988315277E0,2.026805844E1
8.789439875E0,-1.604663086E-1,1.728949631E1,4.550537109E-1,1.729622808E1
8.799518875E0,-9.324110413E-1,1.405532181E1,-5.986051941E-1,1.409892867E1
8.809596875E0,-1.277443542E0,1.136975647E1,-1.324146423E0,1.151766417E1
8.819674875E0,-4.149371338E-1,9.442514191E0,-1.926044769E0,9.645874534E0
8.829752875E0,3.588038635E-1,7.888146515E0,-1.955234070E0,8.134773256E0
8.839830875E0,2.374063110E-1,6.415957947E0,-1.200204163E0,6.531567053E0
8.849909875E0,8.951385498E-2,5.161416779E0,-4.370910645E-2,5.162377977E0
8.859987875E0,2.016307068E-1,4.106710052E0,8.039781189E-1,4.189523029E0
8.870065875E0,1.303788757E-1,3.348386993E0,1.126557312E0,3.535226370E0
8.880143875E0,4.056564331E-2,2.883453827E0,9.969268799E-1,3.051198903E0
8.890222875E0,8.143066406E-2,2.497406616E0,6.164181519E-1,2.573643739E0
8.900300875E0,3.293151855E-3,2.047592010E0,-1.062789917E-2,2.047622240E0
8.910378875E0,-7.229965210E-2,2.052531738E0,-5.766009521E-1,2.133209421E0
8.920456875E0,-1.597178650E-1,2.313888245E0,-7.762857056E-1,2.445855290E0
8.930535875E0,-2.291734314E-1,2.412832489E0,-4.956193542E-1,2.473847131E0
8.940613875E0,-3.511697388E-1,2.791395264E0,-9.116043091E-2,2.814874407E0
8.950691875E0,-4.373904419E-1,3.532653809E0,2.374063110E-1,3.567536277E0
8.960769875E0,-2.965333557E-1,4.799319763E0,3.065625000E-1,4.818234406E0
8.970847875E0,-4.965174866E-1,6.613696747E0,3.626957703E-1,6.642218191E0
8.980926875E0,-4.891827393E-1,9.156908112E0,7.551795959E-1,9.201008757E0
8.991004875E0,-6.556365967E-2,1.266890488E1,1.327439575E0,1.273842789E1
9.001082875E0,7.382647705E-1,1.695030167E1,2.013013916E0,1.708537347E1
9.011160875E0,1.911075897E0,2.018732025E1,2.576741638E0,2.044063863E1
9.021239875E0,2.924767914E0,2.139845169E1,1.325343933E0,2.163803454E1
9.031317875E0,3.599864044E0,1.890119476E1,-5.593867493E-1,1.924908045E1
9.041395875E0,3.301833801E0,1.426997543E1,3.697311401E-2,1.464703630E1
9.051473875E0,1.665137329E0,1.103265747E1,8.431965637E-1,1.118942329E1
9.061552875E0,4.986131287E-1,8.858129425E0,4.972659302E-1,8.886075926E0
9.071630875E0,-2.598596191E-1,7.396119690E0,1.447489929E-1,7.402098740E0
9.081708875E0,-4.815486145E-1,6.627468109E0,1.302291870E-1,6.646215633E0
9.091786875E0,-2.781216431E-1,6.446943512E0,4.170327759E-1,6.466401521E0
9.101864875E0,2.499801636E-2,6.530170441E0,7.182064819E-1,6.569594465E0
9.111943875E0,3.803590393E-1,6.617289276E0,8.030799866E-1,6.676685392E0
9.122021875E0,4.477189636E-1,6.668782196E0,7.556286621E-1,6.726372196E0
9.132099875E0,2.106120300E-1,6.592740326E0,7.572752380E-1,6.639431317E0
9.142177875E0,7.933502197E-3,6.684050446E0,6.899153137E-1,6.719566685E0
9.152256875E0,-6.167175293E-2,7.057224426E0,5.346881104E-1,7.077719363E0
9.162334875E0,-9.295669556E-2,7.728129272E0,3.844006348E-1,7.738241845E0
9.172412875E0,-5.718109131E-2,8.575517120E0,4.540058899E-1,8.587717095E0
9.182490875E0,1.275347900E-1,9.623936920E0,5.631289673E-1,9.641241684E0
9.192569875E0,3.278182983E-1,1.050545380E1,6.191125488E-1,1.052878553E1
9.202647875E0,7.450007629E-1,1.120270386E1,6.906637573E-1,1.124867176E1
9.212725875E0,1.322649536E0,1.177526321E1,5.439688110E-1,1.186179277E1
9.222803875E0,1.533710632E0,1.191267746E1,7.366181946E-1,1.203356800E1
9.232881875E0,1.681453400E0,1.158470947E1,1.044827271E0,1.175263558E1
9.242960875E0,1.569635925E0,1.096095657E1,1.121168518E0,1.112939103E1
9.253038875E0,1.362766113E0,1.031789383E1,1.055155792E0,1.046085170E1
9.263116875E0,1.298250275E0,9.827812958E0,9.657916260E-1,9.960126243E0
9.273194875E0,1.328637085E0,9.493707733E0,9.053173828E-1,9.628881689E0
9.283273875E0,1.425785065E0,9.191635895E0,8.240364075E-1,9.337990655E0
9.293351875E0,1.523082733E0,9.008117523E0,7.099736023E-1,9.163515965E0
9.303429875E0,1.534608765E0,8.884324951E0,5.777984619E-1,9.034384592E0
9.313507875E0,1.556912384E0,8.854836273E0,4.251159668E-1,9.000712482E0
9.323585875E0,1.537303162E0,8.890911255E0,2.161505127E-1,9.025426583E0
9.333664875E0,1.397793274E0,8.887767792E0,2.529739380E-2,8.997048534E0
9.343742875E0,1.226699066E0,9.070837097E0,-2.170486450E-2,9.153433637E0
9.353820875E0,9.846524048E-1,9.379195862E0,3.442840576E-2,9.430802759E0
9.363898875E0,6.890171814E-1,9.598040771E0,2.610571289E-1,9.626280806E0
9.373977875E0,5.400769043E-1,9.751920776E0,5.207670593E-1,9.780738225E0
9.384055875E0,4.831951904E-1,9.866133270E0,6.453080750E-1,9.899014386E0
9.394133875E0,4.595443726E-1,9.898166656E0,7.315287781E-1,9.935794812E0
9.404211875E0,4.596940613E-1,9.930649109E0,8.217910767E-1,9.975191774E0
9.414290875E0,3.399430847E-1,9.985435181E0,9.894424438E-1,1.004009330E1
9.424368875E0,3.052153015E-1,9.944121094E0,1.190175018E0,1.001974138E1
9.434446875E0,3.888912964E-1,9.867181091E0,1.354682922E0,9.967329881E0
9.444524875E0,2.739303589E-1,9.796228638E0,1.454674988E0,9.907432194E0
9.454602875E0,1.438508606E-1,9.624385986E0,1.466799774E0,9.736580522E0
9.464681875E0,-7.589218140E-2,9.560768280E0,1.338666229E0,9.654329443E0
9.474759875E0,-1.053808594E-1,9.644294586E0,1.509610748E0,9.762297260E0
9.484837875E0,-2.583627319E-1,9.776320038E0,1.586101685E0,9.907517516E0
9.494915375E0,-3.543132019E-1,9.726922760E0,1.711091766E0,9.882631191E0
9.504994375E0,-6.078858948E-1,9.777966614E0,1.837878113E0,9.967745599E0
9.515072375E0,-5.333409119E-1,9.823322296E0,1.762584686E0,9.994439366E0
9.525150375E0,-4.989125061E-1,9.944420471E0,1.482816467E0,1.006673516E1
9.535228375E0,-3.396437073E-1,9.937235413E0,1.191073151E0,1.001412306E1
9.545307375E0,5.269042969E-2,9.967472534E0,9.535171509E-1,1.001311540E1
9.555385375E0,6.971003723E-1,9.947114868E0,6.607260132E-1,9.993377907E0
9.565463375E0,1.102607117E0,9.755962372E0,1.589544525E0,9.945913535E0
9.575541375E0,1.054257660E0,1.011087433E1,1.839375000E0,1.033075696E1
9.585619375E0,5.372328186E-1,1.010788055E1,2.668949890E0,1.046810212E1
9.595698375E0,1.010398865E-1,9.812694397E0,2.943928070E0,1.024528637E1
9.605776375E0,-6.364764404E-1,9.481133881E0,2.625689850E0,9.858562223E0
9.615854375E0,-1.393302612E0,8.821156311E0,1.428928528E0,9.044110104E0
9.625932375E0,-2.805166626E0,7.868088226E0,-4.369413757E-1,8.364609369E0
9.636011375E0,-1.767823792E0,8.247998199E0,-5.842350769E-1,8.455531082E0
9.646089375E0,-1.037043457E0,9.554331665E0,4.540058899E-1,9.621165940E0
9.656167375E0,-8.291258240E-1,1.038495438E1,6.882687378E-1,1.044071075E1
9.666245375E0,-6.430627441E-1,1.032433044E1,4.354444885E-1,1.035349896E1
9.676323375E0,-1.511856079E-2,1.060843964E1,1.066232758E0,1.066189816E1
9.686402375E0,-3.285667419E-1,1.038001465E1,1.661844177E0,1.051733741E1
9.696480375E0,-2.927462311E0,9.184001770E0,7.008425903E-1,9.664735094E0
9.706558375E0,-3.847748566E0,8.807684326E0,4.170327759E-1,9.620519141E0
9.716636375E0,-2.008972321E0,9.503886566E0,3.832031250E-2,9.713974372E0
9.726715375E0,-8.981323242E-1,1.043330383E1,6.369255066E-1,1.049124133E1
9.736793375E0,-1.105600891E0,1.065993256E1,7.854167175E-1,1.074585478E1
9.746871375E0,-1.313518524E0,1.051668045E1,1.235979767E0,1.067021765E1
9.756949375E0,-1.429078217E0,1.042312500E1,1.652114410E0,1.064956719E1
9.767027375E0,-8.316705322E-1,1.017823425E1,1.120869141E0,1.027348412E1
9.777106375E0,-6.869215393E-1,9.921518097E0,1.232087860E0,1.002129847E1
9.787184375E0,-1.222956848E0,9.930200043E0,1.226549377E0,1.008012499E1
9.797262375E0,-1.054557037E0,9.957892456E0,1.153351593E0,1.007977840E1
9.807340375E0,-3.071612549E-1,9.827064514E0,1.300794983E-1,9.832724225E0
9.817419375E0,-1.800605621E0,9.582622833E0,-2.384541321E-1,9.753240556E0
9.827497375E0,-2.316432953E0,9.806407471E0,1.819316711E0,1.023920907E1
9.837575375E0,-1.056952057E0,1.045111679E1,3.263363800E0,1.099966059E1
9.847653375E0,-8.319699097E-1,9.929601288E0,1.630110168E0,1.009685173E1
9.857731375E0,-1.187779999E0,9.273665314E0,7.382647705E-1,9.378524647E0
9.867810375E0,-9.695338440E-1,9.275760956E0,9.195378113E-1,9.371514657E0
9.877888375E0,-5.043013000E-1,9.749974823E0,4.966671753E-1,9.775633337E0
9.887966375E0,-3.730242920E-1,1.009859985E1,3.137475586E-1,1.011035626E1
9.898044375E0,-1.025667114E0,9.857900391E0,1.256038055E0,9.990386616E0
9.908123375E0,-1.129102020E0,1.004052063E1,1.473535767E0,1.021069212E1
9.918201375E0,-1.100960541E0,1.017539017E1,1.750908966E0,1.038346577E1
9.928279375E0,-7.075785828E-1,1.044647644E1,1.157542877E0,1.053420348E1
9.938357375E0,-5.935157776E-1,1.008482849E1,9.904902649E-1,1.015071907E1
9.948436375E0,5.996530151E-1,1.012898666E1,7.246430969E-1,1.017256419E1
9.958514375E0,8.241860962E-1,1.048225204E1,4.486170959E-1,1.052416970E1
9.968592375E0,3.185375977E-1,1.031864227E1,1.318009186E0,1.040735282E1
9.978670375E0,8.539741516E-1,9.879754944E0,7.279362488E-1,9.943275154E0
9.988748375E0,7.620652771E-1,9.877958679E0,9.262738037E-1,9.950517289E0