"Time (s)","Acceleration x (m/s^2)","Acceleration y (m/s^2)","Acceleration z (m/s^2)","Absolute acceleration (m/s^2)"
-1.445124999E-3,2.882256317E0,3.823349304E0,7.965984650E0,9.294208563E0
8.563875001E-3,3.205883331E0,3.828139343E0,8.027955780E0,9.454121470E0
1.857187500E-2,3.412004700E0,3.542533264E0,8.361911316E0,9.701179251E0
2.857987500E-2,3.637585602E0,3.254981232E0,8.750652924E0,1.002002288E1
3.858887500E-2,3.964805145E0,2.988086243E0,9.256451111E0,1.050381961E1
4.859687500E-2,3.943549347E0,2.724933472E0,9.703721008E0,1.082307929E1
5.860487500E-2,3.634292450E0,2.630180511E0,1.027358597E1,1.121037465E1
6.861387500E-2,3.356021118E0,2.793191528E0,1.026205994E1,1.115233925E1
7.862187500E-2,3.176544342E0,3.185226288E0,9.874815216E0,1.085117855E1
8.862987500E-2,3.152145081E0,3.620371399E0,9.663903809E0,1.079046544E1
9.863887500E-2,3.218157806E0,4.005819855E0,9.868827667E0,1.112640517E1
1.086468750E-1,3.375480652E0,4.320615234E0,1.007090744E1,1.146668053E1
1.186548750E-1,3.467988281E0,4.689897308E0,1.046039749E1,1.197672723E1
1.286638750E-1,3.596870270E0,4.938530273E0,1.078043198E1,1.239129818E1
1.386718750E-1,3.654500427E0,5.190755768E0,1.076830719E1,1.250023034E1
1.486798750E-1,3.717818756E0,5.481301575E0,1.069151688E1,1.257677925E1
1.586878750E-1,3.779191132E0,5.553750916E0,1.035112473E1,1.233986296E1
1.686968750E-1,3.796405334E0,5.320535889E0,1.003962250E1,1.197976692E1
1.787048750E-1,3.770209808E0,4.886288910E0,9.882000275E0,1.165093261E1
1.887128750E-1,3.677402802E0,4.519102478E0,9.884245605E0,1.147361712E1
1.987218750E-1,3.736529846E0,4.335883484E0,1.003782623E1,1.155506367E1
2.087298750E-1,3.821852417E0,4.552333374E0,9.746831360E0,1.141626106E1
2.187378750E-1,3.660038910E0,5.176086273E0,8.784632263E0,1.083316749E1
2.287468750E-1,3.196303253E0,5.775140533E0,8.104746094E0,1.045253615E1
2.387548750E-1,2.572999420E0,6.339766388E0,7.559430084E0,1.019597700E1
2.487628750E-1,2.025288391E0,6.737639008E0,7.505242767E0,1.028718822E1
2.587718750E-1,1.421444092E0,7.062613220E0,7.880961456E0,1.067757286E1
2.687798750E-1,8.819659424E-1,7.426057434E0,8.005352783E0,1.095490147E1
2.787878750E-1,7.852670288E-1,7.698191528E0,7.934100952E0,1.108281350E1
2.887968750E-1,9.395960999E-1,8.075706482E0,8.020171967E0,1.142029047E1
2.988048750E-1,1.140029297E0,8.500523071E0,7.930508423E0,1.168124664E1
3.088128750E-1,1.112037506E0,8.553213501E0,7.838898926E0,1.165514586E1
3.188218750E-1,1.119072876E0,8.312064972E0,7.927814026E0,1.154092645E1
3.288298750E-1,1.225052490E0,7.832013245E0,8.020171967E0,1.127671687E1
3.388378750E-1,1.260678406E0,6.968608704E0,8.190817108E0,1.082775610E1
3.488468750E-1,1.367855530E0,5.818250885E0,8.348139954E0,1.026715700E1
3.588548750E-1,1.483265533E0,4.949158173E0,8.453670502E0,9.907511706E0
3.688628750E-1,1.703607330E0,4.265529785E0,8.216563568E0,9.413232131E0
3.788718750E-1,1.815125427E0,3.935166779E0,8.045619049E0,9.138501178E0
3.888798750E-1,1.855092316E0,3.710633698E0,8.339308319E0,9.314195251E0
3.988878750E-1,1.738185425E0,3.419489136E0,8.602311401E0,9.418808628E0
4.088968750E-1,1.488354950E0,3.272345123E0,8.510402527E0,9.238527709E0
4.189048750E-1,1.260379028E0,3.190315704E0,8.193212128E0,8.882307952E0
4.289128750E-1,1.145567780E0,3.051404572E0,7.723638611E0,8.383196812E0
4.389218750E-1,1.068328400E0,2.730322266E0,7.297474823E0,7.864421405E0
4.489298750E-1,1.068478088E0,2.374661865E0,7.120393066E0,7.581600215E0
4.589378750E-1,1.163829803E0,1.964664459E0,7.433841248E0,7.776657505E0
4.689458750E-1,1.146465912E0,1.681004333E0,7.650590515E0,7.916545641E0
4.789548750E-1,1.083446960E0,1.722917175E0,7.465575256E0,7.738030422E0
4.889628750E-1,8.110134888E-1,1.917063446E0,7.288942566E0,7.580340287E0
4.989708750E-1,4.848417664E-1,2.350711670E0,7.410190430E0,7.789212996E0
5.089798750E-1,3.516188049E-1,2.599943390E0,7.676636353E0,8.112588188E0
5.189878750E-1,3.594026184E-1,2.484383698E0,7.960595856E0,8.347000598E0
5.289958750E-1,4.099974060E-1,2.907254333E0,7.013665009E0,7.603402034E0
5.390048750E-1,6.441105652E-1,3.603606262E0,5.763614502E0,6.827891962E0
5.490128750E-1,7.203021240E-1,4.395459595E0,5.500910797E0,7.078059042E0
5.590208750E-1,7.658074951E-1,4.617148590E0,5.013524323E0,6.858567515E0
5.690298750E-1,7.426057434E-1,4.471651154E0,4.968917084E0,6.725865321E0
5.790378750E-1,4.077520752E-1,4.370461578E0,5.274431763E0,6.861984158E0
5.890458750E-1,-2.844085693E-3,4.699926453E0,6.962770844E0,8.400565134E0
5.990548750E-1,-2.219883728E-1,5.144801331E0,8.629554749E0,1.004925245E1
6.090628750E-1,-3.712280273E-2,5.420228577E0,9.017398224E0,1.052110862E1
6.190708750E-1,6.566844177E-1,5.366939392E0,8.980874176E0,1.048290865E1
6.290828750E-1,1.271455994E0,5.606890411E0,9.111402740E0,1.077364749E1
6.390908750E-1,1.504671021E0,6.238726501E0,9.417366486E0,1.139616316E1
6.490988750E-1,1.773811340E0,6.453380127E0,1.014126114E1,1.215062547E1
6.591078750E-1,2.212998047E0,6.247707825E0,1.071591614E1,1.260008223E1
6.691158750E-1,2.739453278E0,5.841452637E0,1.068493057E1,1.248178331E1
6.791238750E-1,3.654350739E0,5.407355347E0,1.026550278E1,1.216446951E1
6.891328750E-1,4.542603607E0,4.751569061E0,9.263336792E0,1.135878799E1
6.991408750E-1,5.311853943E0,3.874842224E0,8.150999908E0,1.047229650E1
7.091488750E-1,6.022575989E0,3.005899200E0,7.180567932E0,9.842124129E0
7.191578750E-1,6.208339691E0,2.307601318E0,6.400689697E0,9.210718439E0
7.291658750E-1,6.019133148E0,2.118843842E0,5.903872833E0,8.693398502E0
7.391738750E-1,5.844745789E0,2.404749298E0,5.946683807E0,8.677956028E0
7.491828750E-1,6.062093811E0,3.072959747E0,6.147566071E0,9.164312935E0
7.591908750E-1,7.010222168E0,4.253554688E0,6.329138489E0,1.035827864E1
7.691988750E-1,7.699987793E0,5.588778076E0,7.425009613E0,1.206876216E1
7.792078750E-1,7.819140015E0,6.840175781E0,7.889493713E0,1.304496326E1
7.892158750E-1,7.517816620E0,8.145910492E0,7.520511017E0,1.339520475E1
7.992238750E-1,7.190896454E0,9.386231232E0,6.749464417E0,1.361490354E1
8.092328750E-1,7.000193024E0,9.938732300E0,5.373226318E0,1.329107457E1
8.192408750E-1,6.782545624E0,9.930649109E0,3.348985748E0,1.248344593E1
8.292488750E-1,6.439309387E0,9.310339050E0,1.838327179E0,1.146850319E1
8.392568750E-1,5.442532196E0,7.949967957E0,1.493294678E0,9.749516717E0
8.492658750E-1,4.220174103E0,6.668482819E0,2.073338470E0,8.159489259E0
8.592738750E-1,3.337459717E0,5.836213531E0,2.495460663E0,7.171286472E0
8.692818750E-1,2.936892700E0,5.535488892E0,1.729353790E0,6.500587707E0
8.792908750E-1,3.461401978E0,4.944667511E0,7.496411133E-1,6.082187291E0
8.892988750E-1,4.375850372E0,4.492757263E0,-7.375163269E-1,6.314813112E0
8.993068750E-1,5.053940277E0,4.491110687E0,-1.788480835E0,6.993643630E0
9.093158750E-1,5.087470551E0,4.924459534E0,-2.204016724E0,7.415547722E0
9.193238750E-1,4.675676880E0,5.293591919E0,-2.301164703E0,7.428285716E0
9.293318750E-1,3.727548523E0,5.542075195E0,-2.174827423E0,7.024178940E0
9.393408750E-1,2.658621368E0,5.226681061E0,-1.838327179E0,6.145397409E0
9.493488750E-1,1.782493286E0,4.878954163E0,-1.864373016E0,5.518818966E0
9.593568750E-1,1.037941589E0,4.939428406E0,-1.545685730E0,5.278675979E0
9.693658750E-1,4.035607910E-1,5.021008759E0,-9.726773071E-1,5.130252568E0
9.793738750E-1,-3.685336304E-1,5.294040985E0,-4.927752686E-1,5.329682397E0
9.893818750E-1,-9.328601074E-1,5.513933716E0,1.161584473E-1,5.593494953E0
9.993908750E-1,-1.690285034E0,6.068231049E0,2.205064545E0,6.674039347E0
1.009398875E0,-2.315085754E0,6.493347015E0,4.487518158E0,8.225630476E0
1.019406875E0,-2.144590302E0,5.933211823E0,4.604874115E0,7.810706479E0
1.029415875E0,-1.512454834E0,4.392765198E0,2.456691284E0,5.255400819E0
1.039423875E0,-1.152752838E0,3.337759094E0,6.231541443E-1,3.585776898E0
1.049431875E0,-1.018182678E0,3.007396088E0,-9.509724426E-1,3.314434459E0
1.059440875E0,-8.252339172E-1,5.917344818E0,-1.914818115E0,6.273954824E0
1.069448875E0,-1.033301239E0,1.377974487E1,-3.458258514E0,1.424460011E1
1.079456875E0,-1.656904449E0,1.965682343E1,-4.637955322E0,2.026441879E1
1.089465875E0,-2.241588593E0,2.615406235E1,-5.656736755E0,2.685253000E1
1.099473875E0,-2.577490082E0,3.098796021E1,-5.620811462E0,3.159890274E1
1.109481875E0,-2.461930389E0,3.293990112E1,-4.977898407E0,3.340475505E1
1.119490875E0,-1.663640442E0,3.059861984E1,-4.649481354E0,3.099453037E1
1.129498875E0,-5.900729370E-1,2.570858871E1,-4.688250732E0,2.613923133E1
1.139506875E0,1.058898010E0,1.882575165E1,-6.803352356E-1,1.886777799E1
1.149515875E0,2.933000793E0,1.241458374E1,3.221750336E0,1.315690155E1
1.159523875E0,2.450703735E0,1.007449997E1,-2.525248718E-1,1.037136767E1
1.169531875E0,2.169738007E0,8.497678986E0,-1.794917450E0,8.952096951E0
1.179540875E0,1.870659943E0,7.206613770E0,-2.908002777E0,7.993192779E0
1.189548875E0,1.660047913E0,6.037395172E0,-3.041824493E0,6.961220855E0
1.199556875E0,1.726060638E0,4.926405487E0,-2.867437134E0,5.955749497E0
1.209565875E0,1.957030334E0,4.204905853E0,-3.041525116E0,5.546357002E0
1.219573875E0,2.413281555E0,4.122577057E0,-2.990780640E0,5.635986009E0
1.229581875E0,3.149750061E0,4.871619415E0,-2.587519226E0,6.352075009E0
1.239590875E0,3.756887512E0,6.152505798E0,-1.445244598E0,7.352296466E0
1.249598875E0,4.092489624E0,7.727380829E0,6.929090881E-1,8.771602408E0
1.259606875E0,4.049978027E0,9.345366211E0,3.067271576E0,1.063702715E1
1.269615875E0,3.090772705E0,1.058209442E1,2.230661316E0,1.124764189E1
1.279623875E0,1.798959045E0,1.085213287E1,2.966830444E-1,1.100422930E1
1.289631875E0,8.240364075E-1,1.074136322E1,-5.044509888E-1,1.078472951E1
1.299640875E0,-1.014889526E-1,1.038869659E1,-6.215075684E-1,1.040776578E1
1.309648875E0,-9.038204956E-1,9.665999451E0,-6.129753113E-1,9.727495855E0
1.319656875E0,-1.376088409E0,8.890013123E0,-8.993298340E-1,9.040727116E0
1.329665875E0,-1.458566895E0,8.563542023E0,-1.129850464E0,8.760036041E0
1.339673875E0,-1.008452911E0,8.906628571E0,-1.229543152E0,9.047474019E0
1.349681875E0,-1.721420288E-2,9.524543610E0,-1.065933380E0,9.584020100E0
1.359690875E0,7.670050049E-1,1.000010468E1,-1.310375061E0,1.011471567E1
1.369698875E0,1.232836304E0,1.027448410E1,-1.705553284E0,1.048779390E1
1.379706875E0,1.568139038E0,1.056772430E1,-1.814676361E0,1.083646194E1
1.389715875E0,1.811083832E0,1.100197128E1,-1.854343872E0,1.130318486E1
1.399723875E0,1.834584961E0,1.154174881E1,-1.866019592E0,1.183468194E1
1.409731875E0,1.745969238E0,1.214963470E1,-2.082768860E0,1.244989792E1
1.419739875E0,1.619781647E0,1.275153305E1,-2.242337036E0,1.304811722E1
1.429748875E0,1.451980591E0,1.353874603E1,-1.915865936E0,1.375050668E1
1.439756875E0,1.138532410E0,1.449735260E1,-9.574090576E-1,1.457347318E1
1.449765875E0,6.773414612E-1,1.511706390E1,-9.624984741E-2,1.513253702E1
1.459773875E0,3.135978699E-1,1.488265137E1,-7.454498291E-2,1.488614162E1
1.469781875E0,1.558259583E-1,1.400233200E1,-3.809577942E-1,1.400838006E1
1.479789875E0,4.640350342E-2,1.296409103E1,-3.303630066E-1,1.296838268E1
1.489798875E0,-3.487747192E-2,1.204305634E1,3.772155762E-1,1.204901299E1
1.499806875E0,1.245410156E-1,1.128892456E1,3.447331238E-1,1.129487358E1
1.509814875E0,5.304968262E-1,1.048943710E1,-3.225791931E-1,1.050779591E1
1.519823875E0,1.094673615E0,9.615254974E0,-8.078700256E-1,9.711029427E0
1.529831875E0,1.897005157E0,8.811576233E0,-1.040186920E0,9.073284582E0
1.539839875E0,2.514171753E0,8.274792480E0,-1.131946106E0,8.722072700E0
1.549848875E0,2.500250702E0,7.892637177E0,-1.243613892E0,8.372069677E0
1.559856875E0,1.795665894E0,7.733667755E0,-1.301393738E0,8.045350123E0
1.569864875E0,7.595205688E-1,7.674989777E0,-1.118474121E0,7.793158790E0
1.579873875E0,-1.848655701E-1,7.551346893E0,-5.596861267E-1,7.574316058E0
1.589881875E0,-8.704399109E-1,7.485483856E0,4.746629333E-1,7.550856845E0
1.599889875E0,-1.232985992E0,7.531587982E0,1.641486511E0,7.806378799E0
1.609898875E0,-1.440604248E0,7.706723785E0,2.794688416E0,8.323413689E0
1.619906875E0,-1.533261566E0,8.018824768E0,3.889212341E0,9.043141839E0
1.629912375E0,-1.627864838E0,8.473728790E0,4.785099335E0,9.866671130E0
1.639921375E0,-1.631756744E0,8.936416626E0,5.157225494E0,1.044601106E1
1.649929375E0,-1.429377594E0,9.319470062E0,4.611310730E0,1.049570527E1
1.659937375E0,-8.792715454E-1,9.504185944E0,3.261417847E0,1.008660078E1
1.669946375E0,2.305206299E-2,9.436227264E0,1.553020477E0,9.563199725E0
1.679954375E0,9.961784363E-1,9.181906128E0,6.406677246E-2,9.236009754E0
1.689962375E0,1.812580719E0,8.763226776E0,-9.789642334E-1,9.002108829E0
1.699971375E0,2.184108124E0,8.415200500E0,-1.479972382E0,8.819084193E0
1.709979375E0,2.224075012E0,8.292156372E0,-1.501228180E0,8.715506469E0
1.719987375E0,2.178869019E0,8.345894623E0,-1.133442993E0,8.699777024E0
1.729996375E0,2.130669250E0,8.461154938E0,-5.647755432E-1,8.743561388E0
1.740004375E0,1.964365082E0,8.533005524E0,8.801696777E-2,8.756635223E0
1.750012375E0,1.730401611E0,8.580307159E0,6.560856628E-1,8.777608392E0
1.760021375E0,1.473984833E0,8.607400818E0,1.195414124E0,8.814136092E0
1.770029375E0,1.072819061E0,8.561895447E0,1.838925934E0,8.822621094E0
1.780038375E0,4.592449951E-1,8.617579651E0,2.645149384E0,9.026095516E0
1.790046375E0,-4.222718811E-1,8.845854950E0,3.797004089E0,9.635595643E0
1.800054375E0,-1.870360565E0,9.183403015E0,4.580474854E0,1.043138962E1
1.810063375E0,-3.265609131E0,9.632319489E0,3.052751770E0,1.061909013E1
1.820071375E0,-3.745361481E0,1.039887543E1,1.600471802E0,1.116807292E1
1.830079375E0,-3.619173889E0,1.113983459E1,1.670675812E0,1.183154648E1
1.840087375E0,-3.252286835E0,1.141436371E1,2.301913147E0,1.208982517E1
1.850096375E0,-2.808908844E0,1.102577179E1,2.689457245E0,1.169148377E1
1.860104375E0,-2.193837891E0,9.925410004E0,2.896476746E0,1.056959157E1
1.870112375E0,-1.601669312E0,8.803493042E0,2.974015503E0,9.429294912E0
1.880121375E0,-1.239272919E0,8.171058197E0,2.999612274E0,8.792022704E0
1.890129375E0,-1.056053925E0,7.886350250E0,2.979703674E0,8.496375942E0
1.900137375E0,-1.235830078E0,7.838898926E0,2.802472229E0,8.416024177E0
1.910146375E0,-1.587149506E0,8.199049988E0,2.485581207E0,8.713298927E0
1.920154375E0,-1.532064056E0,8.880582733E0,2.175126801E0,9.270552656E0
1.930162375E0,-9.740245056E-1,9.361382904E0,1.975891113E0,9.617086841E0
1.940171375E0,7.933502197E-3,8.636141052E0,1.773811340E0,8.816427955E0
1.950179375E0,5.004093933E-1,8.327033844E0,2.528691559E0,8.716890684E0
1.960188375E0,2.899470520E-1,6.970255280E0,3.245401154E0,7.694228785E0
1.970196375E0,-6.357279968E-1,5.721701660E0,3.898792419E0,6.952884459E0
1.980204375E0,-9.511221313E-1,7.121590576E0,4.376898193E0,8.413021065E0
1.990212375E0,-9.178912354E-1,9.201515350E0,4.879552917E0,1.045564181E1
2.000221375E0,-7.994874573E-1,1.148576523E1,5.823340302E0,1.290245230E1
2.010229375E0,-4.282594299E-1,1.336271210E1,6.687942352E0,1.494904859E1
2.020238375E0,-1.835183716E-1,1.414767975E1,7.211703186E0,1.588078034E1
2.030246375E0,2.377056885E-1,1.465497482E1,6.974296875E0,1.623162370E1
2.040254375E0,3.652404785E-1,1.414318909E1,5.578150177E0,1.520785841E1
2.050263375E0,-3.230282593E-1,1.250589386E1,2.925067291E0,1.284748019E1
2.060271375E0,-1.292711792E0,1.041144928E1,2.404000854E-1,1.049414942E1
2.070279375E0,-1.853595428E0,8.482859802E0,-1.162781982E0,8.760524435E0
2.080288375E0,-2.083517303E0,7.386240234E0,-1.528621216E0,7.825233030E0
2.090296375E0,-2.321971436E0,6.888674927E0,-1.500030670E0,7.422633334E0
2.100304375E0,-2.504292297E0,6.531517639E0,-1.098864899E0,7.080939673E0
2.110313375E0,-2.058968353E0,6.753056946E0,-1.026864624E-1,7.060713371E0
2.120321375E0,-4.709207153E-1,7.805967407E0,8.849597168E-1,7.870072883E0
2.130329375E0,8.298742676E-1,9.358987885E0,1.123713226E0,9.462667538E0
2.140338375E0,1.577120361E0,1.066876419E1,9.131011963E-1,1.082328932E1
2.150346375E0,2.213147736E0,1.146645538E1,2.546205139E-1,1.168085843E1
2.160354375E0,2.721041565E0,1.180325500E1,-7.783813477E-1,1.213782408E1
2.170363375E0,3.146307220E0,1.181972076E1,-1.564845886E0,1.233100931E1
2.180371375E0,3.528013458E0,1.167586990E1,-1.777852936E0,1.232613394E1
2.190379375E0,3.804488525E0,1.125165207E1,-1.533111877E0,1.197598594E1
2.200388375E0,3.964056702E0,1.066921326E1,-1.156045990E0,1.144038021E1
2.210396375E0,3.824995880E0,1.006222549E1,-5.930667114E-1,1.078103444E1
2.220404375E0,3.492387543E0,9.598190460E0,3.345542908E-1,1.021929339E1
2.230413375E0,3.014730835E0,9.207502899E0,1.353635101E0,9.782588596E0
2.240421375E0,2.442321167E0,8.963659973E0,1.755998383E0,9.454927981E0
2.250429375E0,1.834584961E0,8.903934174E0,1.359622650E0,9.192079172E0
2.260438375E0,1.284628601E0,8.966054993E0,5.182223511E-1,9.072428957E0
2.270446375E0,9.654922485E-1,9.043444061E0,-4.938230896E-1,9.108233474E0
2.280454375E0,8.705895996E-1,9.054221649E0,-1.121168518E0,9.164817225E0
2.290463375E0,9.822573853E-1,9.100325775E0,-1.284628601E0,9.242890751E0
2.300471375E0,1.297501831E0,8.986262970E0,-1.044078827E0,9.139285189E0
2.310479375E0,1.699416046E0,8.838370514E0,-5.782475281E-1,9.018823562E0
2.320488375E0,2.114203491E0,8.680149536E0,-2.032772827E-1,8.936228177E0
2.330496375E0,2.454445953E0,8.519234161E0,-2.510279846E-1,8.869310609E0
2.340504375E0,2.804867249E0,8.243806915E0,-7.773335266E-1,8.742532822E0
2.350513375E0,3.172802124E0,8.126001892E0,-1.385369110E0,8.832770100E0
2.360521375E0,3.521876221E0,8.407566376E0,-1.838327179E0,9.298937106E0
2.370529375E0,3.819906464E0,8.702453156E0,-2.098785553E0,9.732896646E0
2.380538375E0,4.128414917E0,9.097332001E0,-1.953138428E0,1.017939139E1
2.390546375E0,4.475543060E0,9.807754669E0,-1.188378754E0,1.084595691E1
2.400554375E0,4.883145447E0,1.043450134E1,3.420387268E-1,1.152566346E1
2.410563375E0,5.135969696E0,1.075917618E1,1.770518188E0,1.205291630E1
2.420571375E0,5.147046661E0,1.066846481E1,2.069745941E0,1.202464465E1
2.430579375E0,4.874313812E0,1.024245071E1,1.527573395E0,1.144553241E1
2.440588375E0,4.139042816E0,9.832453308E0,7.719447327E-1,1.069601384E1
2.450596375E0,3.300785980E0,9.720186768E0,1.185534668E-1,1.026602522E1
2.460605375E0,2.820734253E0,9.799821167E0,-4.031117249E-1,1.020566194E1
2.470613375E0,2.540666656E0,9.976004791E0,-6.343807983E-1,1.031397584E1
2.480621375E0,2.351460114E0,1.002091141E1,-4.469705200E-1,1.030280606E1
2.490629375E0,2.189796295E0,9.776769104E0,8.876541138E-2,1.001939625E1
2.500638375E0,2.132615204E0,9.308542786E0,7.500901794E-1,9.579125831E0
2.510646375E0,2.201921082E0,8.814570007E0,1.067729645E0,9.147958650E0
2.520655375E0,2.412084045E0,8.378676453E0,8.396040344E-1,8.759298115E0
2.530663375E0,2.736010437E0,7.924520874E0,2.598596191E-1,8.387568850E0
2.540671375E0,3.198548584E0,7.576045532E0,-3.815565491E-1,8.232421536E0
2.550680375E0,3.731590118E0,7.461383972E0,-9.162446594E-1,8.392646774E0
2.560688375E0,4.064048767E0,7.567662964E0,-1.368304596E0,8.698176394E0
2.570696375E0,4.107458496E0,7.787106628E0,-1.895208893E0,9.005668309E0
2.580705375E0,4.124822388E0,8.091872864E0,-2.274220734E0,9.362940036E0
2.590713375E0,4.223167877E0,8.358169098E0,-2.034868469E0,9.583048955E0
2.600721375E0,4.378095703E0,8.594377899E0,-1.125060425E0,9.710654685E0
2.610730375E0,4.577481079E0,8.876541138E0,3.221301270E-1,9.992501359E0
2.620738375E0,4.417463837E0,9.364975433E0,2.066752167E0,1.055879804E1
2.630745000E0,3.364104309E0,1.027613068E1,2.428250427E0,1.108207831E1
2.640754000E0,2.915786591E0,1.045201492E1,1.726360016E0,1.098757236E1
2.650762000E0,3.026556244E0,1.013437546E1,7.601193237E-1,1.060393276E1
2.660770000E0,3.159779205E0,9.825118561E0,1.287322998E-2,1.032072309E1
2.670779000E0,3.349584503E0,9.717941437E0,-6.123765564E-1,1.029723784E1
2.680787000E0,3.544928284E0,9.720486145E0,-8.440946960E-1,1.038108199E1
2.690795000E0,3.525618439E0,9.858948212E0,-2.061213684E-1,1.047240809E1
2.700804000E0,3.339854736E0,9.984986115E0,1.186432800E0,1.059538580E1
2.710812000E0,3.370540924E0,9.851912842E0,1.954635315E0,1.059440097E1
2.720820000E0,3.909120941E0,9.498048706E0,7.779322815E-1,1.030045312E1
2.730829000E0,4.923860779E0,9.484127655E0,-1.417402496E0,1.077970835E1
2.740837000E0,6.061045990E0,9.871222687E0,-2.935994568E0,1.194978577E1
2.750846000E0,6.735992432E0,1.083701431E1,-3.416495361E0,1.320934948E1
2.760854000E0,7.248227234E0,1.208871140E1,-2.511926422E0,1.431724539E1
2.770862000E0,7.621101837E0,1.332169739E1,-6.367758179E-1,1.536080395E1
2.780871000E0,7.576045532E0,1.454929459E1,8.434959412E-1,1.642528308E1
2.790879000E0,6.686146088E0,1.519026169E1,1.073567505E0,1.663133028E1
2.800887000E0,4.952900391E0,1.418809570E1,1.004261627E0,1.506126898E1
2.810896000E0,3.192561035E0,1.274255173E1,1.072968750E0,1.318014918E1
2.820904000E0,1.595981140E0,1.217702774E1,8.057743835E-1,1.230757623E1
2.830912000E0,3.909869385E-1,1.221010895E1,8.789721680E-1,1.224794772E1
2.840921000E0,-1.110690308E-1,1.246562759E1,2.064207458E0,1.263586800E1
2.850929000E0,-3.091072083E-1,1.275961624E1,3.219355316E0,1.316311523E1
2.860937000E0,-3.640429688E-1,1.267384460E1,3.302432556E0,1.310209621E1
2.870946000E0,-2.899470520E-1,1.221968903E1,2.380050659E0,1.245269089E1
2.880954000E0,-5.328918457E-2,1.171927963E1,1.139580231E0,1.177467613E1
2.890962000E0,3.707789612E-1,1.146271317E1,-1.252894592E-1,1.146939264E1
2.900971000E0,9.455836487E-1,1.133712433E1,-1.209035797E0,1.144055436E1
2.910979000E0,1.359472961E0,1.102337677E1,-1.767823792E0,1.124669743E1
2.920987000E0,1.415157166E0,1.076710968E1,-2.426154785E0,1.112742323E1
2.930996000E0,1.717229004E0,1.110001740E1,-4.098177795E0,1.195635073E1
2.941004000E0,2.383194122E0,1.164787811E1,-5.244344330E0,1.299445367E1
2.951012000E0,3.545227661E0,1.179831528E1,-2.904260559E0,1.265715655E1
2.961021000E0,5.129233704E0,1.142933258E1,1.440903625E0,1.261011042E1
2.971029000E0,6.678811340E0,1.076606186E1,3.693569183E0,1.319685804E1
2.981038000E0,7.652237091E0,9.480535126E0,2.243684235E0,1.238835735E1
2.991046000E0,8.058192902E0,7.363038483E0,-5.218148804E-1,1.092799612E1
3.001054000E0,8.251590729E0,5.342091064E0,-1.405128021E0,9.929807211E0
3.011063000E0,8.357869720E0,3.816463623E0,3.144960022E-1,9.193382870E0
3.021071000E0,8.151299286E0,3.292702789E0,2.522404633E0,9.145933350E0
3.031079000E0,6.699318695E0,4.706961823E0,2.771636353E0,8.643976437E0
3.041088000E0,4.657564545E0,6.790628815E0,2.040107574E0,8.483371152E0
3.051096000E0,3.508553925E0,7.505392456E0,1.118324432E0,8.360114598E0
3.061104000E0,2.785108337E0,7.655081177E0,2.523751831E-1,8.149895061E0
3.071113000E0,2.215991821E0,7.666158142E0,-3.061134338E-1,7.985881657E0
3.081121000E0,1.797611847E0,7.639513550E0,-6.563850403E-1,7.875558199E0
3.091129000E0,1.447340240E0,7.491920471E0,-7.238946533E-1,7.664704142E0
3.101138000E0,1.084045715E0,7.256310425E0,-4.541555786E-1,7.350881130E0
3.111146000E0,6.424639893E-1,6.932982788E0,1.389111328E-1,6.964072560E0
3.121154000E0,2.351609802E-1,6.483018494E0,8.396040344E-1,6.541388569E0
3.131163000E0,-2.454895020E-2,5.972130890E0,1.393152924E0,6.132521919E0
3.141171000E0,-9.654922485E-2,5.440735931E0,1.854343872E0,5.748871230E0
3.151180000E0,-6.676116943E-2,5.019062805E0,2.208806763E0,5.484001806E0
3.161188000E0,6.990463257E-2,4.733606415E0,2.541864166E0,5.373359265E0
3.171196000E0,2.655477905E-1,4.545896759E0,2.869682465E0,5.382450225E0
3.181205000E0,5.851332092E-1,4.580474854E0,3.113974457E0,5.569557224E0
3.191213000E0,8.144563293E-1,4.646487579E0,3.677103424E0,5.981160049E0
3.201221000E0,9.187893677E-1,4.769082642E0,4.026177521E0,6.308599573E0
3.211230000E0,1.059646454E0,4.966522064E0,4.116290131E0,6.537051052E0
3.221238000E0,1.307081909E0,5.325924683E0,4.336033173E0,6.991074346E0
3.231246000E0,1.710193634E0,5.792654114E0,4.810696106E0,7.721554311E0
3.241255000E0,2.459834747E0,6.194268951E0,5.518424377E0,8.652904855E0
3.251263000E0,3.815715179E0,6.391259308E0,6.400390320E0,9.816968683E0
3.261271000E0,5.478906555E0,6.689738617E0,7.564519501E0,1.148881957E1
3.271280000E0,7.263196106E0,7.135511627E0,9.476643219E0,1.390957622E1
3.281288000E0,9.226962433E0,7.992629242E0,1.129715744E1,1.663264032E1
3.291296000E0,1.089180038E1,9.041198730E0,1.153261780E1,1.825858328E1
3.301305000E0,1.201461548E1,9.577533417E0,1.007449997E1,1.837323273E1
3.311313000E0,1.262564484E1,9.145382080E0,7.660320282E0,1.737024547E1
3.321322000E0,1.251068390E1,7.912246399E0,5.380860443E0,1.575038139E1
3.331330000E0,1.153471344E1,6.997498627E0,3.864813080E0,1.403393677E1
3.341338000E0,1.042836411E1,7.686964874E0,1.477727051E0,1.303932069E1
3.351347000E0,9.447453918E0,9.208101654E0,-1.420995026E0,1.326886387E1
3.361355000E0,7.939340057E0,1.084360062E1,-4.026177521E0,1.402950107E1
3.371363000E0,6.396348724E0,1.311976730E1,-5.104235687E0,1.546269036E1
3.381372000E0,5.179828491E0,1.602208191E1,-4.391417999E0,1.740178968E1
3.391380000E0,2.888393555E0,1.771670792E1,-3.525468750E0,1.829353674E1
3.401388000E0,-2.076182556E-1,1.594828537E1,-2.082918549E0,1.608506951E1
3.411397000E0,-2.761756897E0,1.236578522E1,-1.706451416E-2,1.267044736E1
3.421405000E0,-5.439388733E0,8.938212891E0,2.755469971E0,1.081994520E1
3.431413000E0,-8.321195984E0,6.770869904E0,5.270240479E0,1.195250671E1
3.441422000E0,-9.121132507E0,5.737568665E0,4.838538208E0,1.181212108E1
3.451430000E0,-8.264164581E0,6.088588715E0,3.502716064E0,1.084602916E1
3.461439000E0,-6.443650360E0,7.134164429E0,1.106948090E0,9.676893413E0
3.471447000E0,-3.792363739E0,8.370293884E0,-2.458337860E0,9.512479565E0
3.481455000E0,-1.713037720E0,9.580976257E0,-6.020630035E0,1.144454413E1
3.491464000E0,3.158432007E-2,1.025188110E1,-8.410709839E0,1.326054689E1
3.501472000E0,1.381327515E0,1.082548828E1,-8.862919464E0,1.405882654E1
3.511480000E0,2.076931000E0,1.135314102E1,-7.387737122E0,1.370350733E1
3.521489000E0,2.628683624E0,1.143247604E1,-4.995262299E0,1.275006398E1
3.531497000E0,3.045417023E0,1.133083740E1,-3.237168274E0,1.217134748E1
3.541505000E0,3.499572601E0,1.105585922E1,-2.176773376E0,1.179904123E1
3.551514000E0,4.252357178E0,1.088057373E1,2.502945099E0,1.194714026E1
3.561522000E0,5.456752625E0,1.017479141E1,1.371852219E1,1.793043169E1
3.571530000E0,4.341122589E0,1.001118164E1,8.548573151E0,1.386171728E1
3.581539000E0,2.782563629E0,1.050395691E1,3.084036713E0,1.129544393E1
3.591547000E0,2.201621704E0,1.060799057E1,6.441105652E-1,1.085317836E1
3.601556000E0,2.441722412E0,1.005444168E1,-2.026635590E0,1.054329444E1
3.611564000E0,3.237617340E0,9.741592255E0,-5.487738190E0,1.164027732E1
3.621572000E0,4.119732971E0,9.977801056E0,-7.593409424E0,1.319805214E1
3.631585417E0,4.566254425E0,9.797426147E0,-7.289990387E0,1.303779883E1
3.641593417E0,4.520898743E0,9.191635895E0,-5.507197723E0,1.162987200E1
3.651601417E0,4.445755005E0,8.341104584E0,-2.219135284E0,9.708930150E0
3.661610417E0,4.725074158E0,7.198231201E0,3.115022278E0,9.156649060E0
3.671618417E0,4.936434631E0,6.672524414E0,5.238656158E0,9.815013361E0
3.681626417E0,4.784051514E0,7.135361938E0,3.239712982E0,9.181300512E0
3.691635417E0,4.728516998E0,7.908204803E0,7.403604126E-1,9.243738949E0
3.701643417E0,4.824617157E0,8.581654358E0,-6.581813049E-1,9.866859929E0
3.711651417E0,4.945266266E0,8.998088379E0,-1.312770081E0,1.035106846E1
3.721660417E0,4.897216187E0,9.017996979E0,-1.367556152E0,1.035264245E1
3.731668417E0,4.666096802E0,8.786129150E0,-9.981243896E-1,9.998238700E0
3.741677417E0,4.299958191E0,8.456065521E0,-4.402345276E-1,9.496762132E0
3.751685417E0,3.856580200E0,8.261170807E0,9.475296021E-2,9.117517868E0
3.761693417E0,3.439248047E0,8.221652985E0,5.840853882E-1,8.931134344E0
3.771702417E0,3.080593872E0,8.179141388E0,7.539820862E-1,8.772508275E0
3.781710417E0,2.772983551E0,8.076604614E0,6.701564026E-1,8.565634213E0
3.791718417E0,2.534230042E0,8.033194885E0,5.763015747E-1,8.443143104E0
3.801727417E0,2.386187897E0,8.199499054E0,6.575825500E-1,8.564933872E0
3.811735417E0,2.256108398E0,8.347840576E0,6.438111877E-1,8.671272123E0
3.821743417E0,2.053878937E0,8.546776886E0,3.089575195E-1,8.795525486E0
3.831752417E0,1.754950562E0,9.026529236E0,-3.607498169E-2,9.195617593E0
3.841760417E0,1.752405853E0,9.462572479E0,-5.947132874E-1,9.641830122E0
3.851769417E0,2.071542206E0,9.768236847E0,-1.573976898E0,1.010876558E1
3.861777417E0,2.575544128E0,1.022837997E1,-2.464624786E0,1.083178470E1
3.871785417E0,3.097957764E0,1.067999084E1,-2.563569031E0,1.141189874E1
3.881794417E0,3.984564056E0,1.070693481E1,-1.929487610E0,1.158611783E1
3.891802417E0,5.009482727E0,1.070633606E1,-2.502795410E-1,1.182299407E1
3.901810417E0,5.628595276E0,1.098161362E1,2.318378906E0,1.255594692E1
3.911819417E0,5.891748047E0,1.160746216E1,3.769760742E0,1.355200977E1
3.921827417E0,6.199208679E0,1.257340347E1,3.707490234E0,1.450055678E1
3.931835417E0,6.534511414E0,1.364143250E1,3.268752594E0,1.547492370E1
3.941844417E0,6.969357147E0,1.496423172E1,2.777623901E0,1.673963454E1
3.951852417E0,7.481442261E0,1.716405716E1,1.380279694E0,1.877450421E1
3.961861417E0,7.570057983E0,2.004736130E1,-1.091829529E0,2.145680695E1
3.971869417E0,6.767576752E0,2.167283112E1,-2.649190979E0,2.285891328E1
3.981877417E0,5.816604309E0,2.170336761E1,-2.610271912E0,2.262040165E1
3.991886417E0,5.021607513E0,2.108919479E1,-3.043022003E0,2.189133760E1
4.001894417E0,4.499493256E0,2.028821045E1,-4.190984802E0,2.119955840E1
4.011902417E0,4.033063202E0,1.937091797E1,-4.966821442E0,2.040018081E1
4.021911417E0,3.472179565E0,1.790771072E1,-5.053491211E0,1.892828327E1
4.031919417E0,2.580783234E0,1.508128830E1,-5.026547241E0,1.610502642E1
4.041927417E0,1.539099426E0,1.182241516E1,-6.191424866E0,1.343398932E1
4.051936417E0,9.253756714E-1,9.790839844E0,-7.295229492E0,1.224488621E1
4.061944417E0,2.245330811E-1,8.582702179E0,-6.460864563E0,1.074504363E1
4.071953417E0,-4.986131287E-1,7.243287506E0,-5.213059387E0,8.938110378E0
4.081961417E0,-6.605763245E-1,6.136638794E0,-4.421505432E0,7.592391392E0
4.091969417E0,-4.703219604E-1,5.496569824E0,-3.005749512E0,6.282357257E0
4.101978417E0,5.418731689E-2,4.517156525E0,-8.168513489E-1,4.590739097E0
4.111986417E0,1.050216064E0,3.414998474E0,2.543510742E0,4.385728589E0
4.121994417E0,1.847458191E0,4.033512268E0,1.176553345E-1,4.438036251E0
4.132003417E0,2.263592834E0,4.968767395E0,-3.574566650E0,6.526103637E0
4.142011417E0,2.233505402E0,4.698728943E0,-4.308340759E0,6.754879729E0
4.152019417E0,1.583556976E0,3.945046234E0,-2.761756897E0,5.069353375E0
4.162028417E0,6.697073364E-1,3.588637390E0,-6.245013428E-1,3.703623653E0
4.172036417E0,-9.774673462E-2,3.485352173E0,6.724017334E-1,3.550965824E0
4.182045417E0,-5.646258545E-1,3.616180115E0,1.128203888E0,3.829935377E0
4.192053417E0,-8.337661743E-1,3.888613586E0,1.890418854E0,4.403426518E0
4.202061417E0,-1.111588440E0,4.186194763E0,3.427272949E0,5.523228705E0
4.212070417E0,-1.203347626E0,4.124822388E0,5.632786560E0,7.084524661E0
4.222078417E0,-9.110055542E-1,3.790417786E0,6.819818115E0,7.855387784E0
4.232086417E0,-4.064048767E-1,4.035458221E0,5.756878510E0,7.042140169E0
4.242095417E0,-7.424560547E-2,4.754113770E0,4.242627411E0,6.372362003E0
4.252103417E0,9.101074219E-2,5.477259979E0,3.301983490E0,6.396229733E0
4.262111417E0,1.224453735E-1,6.116580505E0,2.834206238E0,6.742423522E0
4.272120417E0,1.866618347E-1,6.465504913E0,2.948418732E0,7.108499803E0
4.282128417E0,3.164419556E-1,6.698719940E0,3.237018585E0,7.446561198E0
4.292137417E0,3.740721130E-1,6.628066864E0,3.526965637E0,7.517359038E0
4.302145417E0,6.376739502E-1,6.191424866E0,4.041146393E0,7.420999535E0
4.312153417E0,1.005010071E0,5.768853607E0,4.133803711E0,7.167848373E0
4.322162417E0,1.277443542E0,5.369035034E0,3.686234436E0,6.636770564E0
4.332170417E0,1.412612457E0,5.449717255E0,3.631897430E0,6.699669474E0
4.342178417E0,1.412313080E0,5.657634888E0,4.085005188E0,7.119742140E0
4.352187417E0,1.382375336E0,5.808371429E0,4.317920837E0,7.368349923E0
4.362195417E0,1.303190002E0,6.329437866E0,4.683011627E0,7.980644447E0
4.372204417E0,9.713301086E-1,7.233857117E0,5.290149078E0,9.014313520E0
4.382212417E0,7.740403748E-1,8.019722900E0,6.026467896E0,1.006148146E1
4.392220417E0,8.445437622E-1,8.520581360E0,6.891668701E0,1.099129921E1
4.402229417E0,1.058149567E0,8.885522461E0,7.689210205E0,1.179814153E1
4.412237417E0,1.384920044E0,9.383536835E0,8.382568359E0,1.265844459E1
4.422245417E0,1.731449432E0,9.924960938E0,9.210796051E0,1.365069708E1
4.432254417E0,2.154320068E0,1.032732422E1,1.011222153E1,1.461340976E1
4.442262417E0,2.637365570E0,1.043599823E1,1.039648041E1,1.496504464E1
4.452270417E0,2.984643402E0,1.028586044E1,9.860744476E0,1.455820397E1
4.462279417E0,3.007994843E0,1.006282425E1,9.344767456E0,1.405820556E1
4.472287417E0,2.775079193E0,9.877958679E0,9.569001160E0,1.403000055E1
4.482296417E0,2.550845490E0,9.684710541E0,9.594597931E0,1.386927325E1
4.492304417E0,2.677931213E0,9.533524933E0,8.377329254E0,1.297070001E1
4.502312417E0,3.541335754E0,9.758357391E0,5.755980377E0,1.187004246E1
4.512321417E0,5.044360199E0,1.027837601E1,2.718197479E0,1.176771774E1
4.522329417E0,5.906866608E0,1.069406158E1,9.527687073E-1,1.225405217E1
4.532337417E0,5.344935150E0,1.057071808E1,9.253756714E-1,1.188127656E1
4.542346417E0,3.586541748E0,9.372908936E0,1.786534882E0,1.019344939E1
4.552354417E0,1.103205872E0,7.924670563E0,2.258054352E0,8.313619920E0
4.562363417E0,-1.178798676E0,6.668333130E0,1.992656250E0,7.058818030E0
4.572371417E0,-2.480342102E0,5.757327576E0,1.015039215E0,6.350529298E0
4.582379417E0,-3.327430573E0,5.263803864E0,1.344204712E-1,6.228763456E0
4.592388417E0,-3.836521912E0,6.170468445E0,-3.823049927E-1,7.275969923E0
4.602396417E0,-2.823877716E0,8.851094055E0,2.315684509E-1,9.293534057E0
4.612404417E0,-1.051114197E0,1.198602493E1,2.946173401E0,1.238747644E1
4.622413417E0,6.692582703E-1,1.420516022E1,5.136867828E0,1.512024783E1
4.632417042E0,2.417472839E0,1.495899261E1,3.575015717E0,1.556908386E1
4.642426042E0,3.937262421E0,1.427057419E1,-2.047741699E-1,1.480517665E1
4.652434042E0,4.930896149E0,1.257475067E1,-2.625091095E0,1.375969457E1
4.662442042E0,6.092630310E0,1.083641556E1,-3.045866089E0,1.279942758E1
4.672451042E0,8.000413055E0,9.590556335E0,-1.129850464E0,1.254041235E1
4.682459042E0,9.436676331E0,7.591762848E0,-3.275189209E-1,1.211581578E1
4.692467042E0,9.622440033E0,5.075196075E0,-9.601034546E-1,1.092111560E1
4.702476042E0,8.602610779E0,3.772754517E0,-1.062789917E-2,9.393545753E0
4.712484042E0,6.500981140E0,4.391417999E0,1.372795258E0,7.964413013E0
4.722493042E0,3.944597168E0,6.082301788E0,2.446662140E0,7.651169681E0
4.732501042E0,2.146236877E0,7.705376587E0,3.731290741E0,8.826193499E0
4.742509042E0,1.159937897E0,8.959618378E0,4.645739136E0,1.015889312E1
4.752518042E0,6.062393188E-1,9.815089417E0,4.173171844E0,1.068264338E1
4.762526042E0,5.266049194E-1,1.029065048E1,2.362537079E0,1.057148909E1
4.772534042E0,5.620811462E-1,1.019230499E1,3.219804382E-1,1.021286873E1
4.782543042E0,6.120771790E-1,9.672885132E0,-1.203497314E0,9.766665297E0
4.792551042E0,7.424560547E-1,9.244176636E0,-2.151026917E0,9.520134425E0
4.802560042E0,8.202941895E-1,9.017248535E0,-2.541714478E0,9.404465226E0
4.812568042E0,9.389973450E-1,8.927884369E0,-2.561024323E0,9.335292224E0
4.822576042E0,1.191821594E0,8.765921173E0,-2.155667267E0,9.105422236E0
4.832585042E0,1.663041687E0,8.672665100E0,-1.229992218E0,8.915924430E0
4.842593042E0,2.376907196E0,8.537795563E0,1.284927979E0,8.955148285E0
4.852601042E0,3.104095001E0,8.450227661E0,4.293371887E0,9.973705202E0
4.862610042E0,3.484454041E0,8.348888397E0,3.623814240E0,9.745634257E0
4.872618042E0,3.456911316E0,8.339458008E0,4.903802490E-1,9.040866579E0
4.882626042E0,3.408711548E0,8.217312012E0,-1.670526123E0,9.051750584E0
4.892635042E0,3.475023651E0,8.161178741E0,-2.701582031E0,9.272495527E0
4.902643042E0,3.490740967E0,8.168363800E0,-2.698438568E0,9.283803659E0
4.912652042E0,3.542533264E0,8.311017151E0,-1.779798889E0,9.208161168E0
4.922660042E0,3.650309143E0,8.499774628E0,2.968327332E-1,9.255216650E0
4.932668042E0,3.705544281E0,8.826395416E0,2.964285736E0,1.002114287E1
4.942677042E0,3.497177582E0,9.208550720E0,3.106340332E0,1.032845621E1
4.952685042E0,3.190615082E0,9.297166443E0,1.110989685E0,9.891998107E0
4.962693042E0,2.994672546E0,9.393266602E0,-2.369572449E-1,9.861930331E0
4.972702042E0,2.902613983E0,9.538314972E0,-4.270619202E-1,9.979328751E0
4.982710042E0,2.915487213E0,9.585616608E0,1.160087585E-1,1.001985876E1
4.992719042E0,3.022514648E0,9.521699524E0,9.009764099E-1,1.003045937E1
5.002727042E0,3.183430023E0,9.386530609E0,1.185534668E0,9.982318170E0
5.012735042E0,3.497776337E0,9.230105896E0,8.292755127E-1,9.905402164E0
5.022744042E0,4.082161102E0,9.142837372E0,-4.041595459E-2,1.001284914E1
5.032752042E0,4.638105011E0,9.199120331E0,-9.297166443E-1,1.034409039E1
5.042761042E0,5.100343781E0,9.361981659E0,-8.848100281E-1,1.069780800E1
5.052769042E0,5.808970184E0,9.509724426E0,1.945953369E-1,1.114526180E1
5.062777042E0,6.594686279E0,9.700128479E0,1.168470154E0,1.178760799E1
5.072786042E0,7.056326294E0,1.014395554E1,1.757345581E-1,1.235809279E1
5.082794042E0,7.344477081E0,1.064990341E1,-1.515747986E0,1.302533217E1
5.092802042E0,7.751031647E0,1.106169708E1,-2.542612610E0,1.374425381E1
5.102811042E0,8.411158905E0,1.147049698E1,-3.192710724E0,1.457783581E1
5.112819042E0,9.142687683E0,1.210143494E1,-2.592608643E0,1.538684780E1
5.122828042E0,9.107810211E0,1.348650467E1,-2.160008240E-1,1.627527792E1
5.132836042E0,7.993677063E0,1.448582657E1,1.790875854E0,1.664167301E1
5.142844042E0,7.142846375E0,1.407777512E1,1.552721100E0,1.586237527E1
5.152853042E0,5.989943848E0,1.358440109E1,1.664388885E0,1.493939660E1
5.162861042E0,3.935765533E0,1.329280746E1,3.270399170E0,1.424375271E1
5.172869042E0,1.301842804E0,1.249541565E1,3.423830109E0,1.302124493E1
5.182878042E0,-4.477189636E-1,1.178304703E1,-8.442443848E-2,1.179185215E1
5.192886042E0,-6.246510315E-1,1.192300598E1,-1.792223053E0,1.207312404E1
5.202895042E0,-5.379812622E-1,1.188752975E1,-1.159488831E0,1.195605294E1
5.212903042E0,-2.875520325E-1,1.169847290E1,-3.556604004E-1,1.170740999E1
5.222911042E0,-2.095642090E-2,1.192570038E1,-6.691085815E-2,1.192590650E1
5.232920042E0,9.550140381E-2,1.235126541E1,-1.785786438E-1,1.235292549E1
5.242928042E0,2.740800476E-1,1.254960297E1,-3.414399719E-1,1.255723838E1
5.252937042E0,5.068460083E-1,1.298684372E1,-8.566685486E-1,1.302493315E1
5.262945042E0,7.914042664E-1,1.407942169E1,-1.977837067E0,1.423967259E1
5.272953042E0,1.200204163E0,1.536315216E1,-3.037782898E0,1.570652919E1
5.282962042E0,1.623673553E0,1.648042877E1,-3.021466827E0,1.683360063E1
5.292970042E0,2.219883728E0,1.654733963E1,-6.029461670E-1,1.670646212E1
5.302978042E0,2.673739929E0,1.493264740E1,3.296295319E0,1.552412337E1
5.312987042E0,2.515219574E0,1.284164566E1,4.632416840E0,1.388140766E1
5.322995042E0,2.407294006E0,1.121572678E1,4.086352386E0,1.217726847E1
5.333004042E0,2.345023499E0,9.756710815E0,2.959196320E0,1.046180596E1
5.343012042E0,2.366428986E0,8.545729065E0,1.363963623E0,8.971614579E0
5.353020042E0,2.442770233E0,7.481891327E0,5.957611084E-1,7.893082765E0
5.363029042E0,2.491269379E0,6.371949463E0,6.246510315E-1,6.870105675E0
5.373037042E0,2.503992920E0,5.343138885E0,1.145268402E0,6.010886241E0
5.383045042E0,2.570005646E0,4.802014160E0,1.574276276E0,5.669445723E0
5.393054042E0,2.634820862E0,4.567002869E0,1.338366852E0,5.439763047E0
5.403062042E0,2.595303040E0,4.280348969E0,7.442523193E-1,5.060720964E0
5.413071042E0,2.349963226E0,3.895648956E0,3.338058472E-1,4.561779729E0
5.423079042E0,2.071841583E0,3.548071747E0,4.116439819E-2,4.108897075E0
5.433087042E0,1.681603088E0,3.526666260E0,-2.339634705E-1,3.914064736E0
5.443096042E0,1.188977509E0,3.662583618E0,-3.969744873E-1,3.871146474E0
5.453104042E0,7.412585449E-1,3.725303192E0,-4.020639038E-1,3.819555404E0
5.463113042E0,2.986289978E-1,3.764521637E0,-4.008663940E-1,3.797564522E0
5.473121042E0,-7.065307617E-2,3.797004089E0,-2.977308655E-1,3.809314319E0
5.483129042E0,-4.192781067E-1,3.916904755E0,1.131646729E-1,3.940906397E0
5.493138042E0,-6.941065979E-1,4.099375305E0,7.360194397E-1,4.222367402E0
5.503146042E0,-9.560618591E-1,4.335584106E0,1.578916626E0,4.712146171E0
5.513154042E0,-1.209933929E0,4.617897034E0,2.873125305E0,5.571692934E0
5.523163042E0,-1.465901642E0,4.997807007E0,5.019661560E0,7.233529199E0
5.533171042E0,-1.520837402E0,5.686375122E0,7.223378906E0,9.317993950E0
5.543180042E0,-7.012916565E-1,6.724915466E0,8.785979462E0,1.108646621E1
5.553188042E0,1.525028687E0,8.091573486E0,1.037297928E1,1.324378998E1
5.563196042E0,4.421355743E0,9.584119720E0,1.187450684E1,1.588734245E1
5.573205042E0,6.668931885E0,1.082174606E1,1.309821213E1,1.825234235E1
5.583213042E0,7.151827698E0,1.188483536E1,1.373768234E1,1.952234277E1
5.593222042E0,6.062991943E0,1.220995926E1,1.333037933E1,1.906677712E1
5.603230042E0,3.546275482E0,1.153680908E1,1.245065872E1,1.734049988E1
5.613238042E0,1.028062134E0,1.018092865E1,1.107472000E1,1.507838330E1
5.623247042E0,-2.263293457E-1,8.373736725E0,9.133706360E0,1.239335643E1
5.633255667E0,-4.855902100E-1,6.645879822E0,7.181615753E0,9.796893451E0
5.643263667E0,-2.618055725E-1,5.463039551E0,5.043761444E0,7.439951129E0
5.653272667E0,1.966909790E-1,5.112468567E0,2.540516968E0,5.712289265E0
5.663280667E0,1.135538635E0,6.193221130E0,4.153862000E-1,6.310149099E0
5.673289667E0,2.675386505E0,8.752299500E0,-4.420307922E-1,9.162741440E0
5.683297667E0,4.396956482E0,1.194815369E1,-4.822970581E-1,1.274065200E1
5.693305667E0,5.468278656E0,1.495031067E1,5.044509888E-1,1.592696868E1
5.703314667E0,6.317612457E0,1.841964615E1,3.581003265E0,1.979947413E1
5.713322667E0,7.625592499E0,2.215153564E1,6.820566559E0,2.440000657E1
5.723331667E0,6.322701874E0,2.159020294E1,7.105723572E0,2.359247188E1
5.733339667E0,2.323468323E0,1.428569275E1,3.056194611E0,1.479256056E1
5.743347667E0,2.362088013E-1,8.125852203E0,-1.201850739E0,8.217646490E0
5.753356667E0,-7.755372620E-1,5.038222961E0,-2.196831665E0,5.550785351E0
5.763364667E0,-1.524878998E0,3.028951263E0,-1.585951996E0,3.743667379E0
5.773372667E0,-2.068249054E0,2.227218475E0,-8.408015442E-1,3.153585820E0
5.783381667E0,-2.266436920E0,1.997296600E0,1.372645569E-1,3.024032338E0
5.793389667E0,-1.490899658E-1,3.279679871E0,1.523831177E-1,3.286601358E0
5.803398667E0,2.119592285E0,5.839806061E0,-1.518592072E0,6.395477165E0
5.813406667E0,3.077151031E0,7.941136322E0,-4.117337952E0,9.459544194E0
5.823414667E0,4.149371338E0,9.776170349E0,-5.554349670E0,1.198505692E1
5.833423667E0,5.084027710E0,1.055664734E1,-4.565056915E0,1.257497059E1
5.843431667E0,6.291716309E0,1.088401657E1,-1.068627777E0,1.261703119E1
5.853440667E0,8.109087067E0,1.123473724E1,3.879781952E0,1.438851354E1
5.863448667E0,8.514294434E0,1.089180038E1,4.157304840E0,1.443633294E1
5.873456667E0,7.441924438E0,9.866282959E0,2.732118530E0,1.265662872E1
5.883465667E0,5.519921265E0,9.376351776E0,2.928360443E0,1.126768824E1
5.893473667E0,2.878364410E0,9.660460968E0,3.113824768E0,1.055013708E1
5.903481667E0,1.099613342E0,9.945917358E0,3.302133179E0,1.053729117E1
5.913490667E0,2.107617188E-1,9.941277008E0,2.469714203E0,1.024562820E1
5.923498667E0,1.046324158E-1,9.792935486E0,-5.254074097E-2,9.793635377E0
5.933507667E0,4.715194702E-1,9.735155640E0,-2.279759216E0,1.000963975E1
5.943515667E0,1.028361511E0,9.564959564E0,-3.221450958E0,1.014513308E1
5.953523667E0,1.502425690E0,9.128018188E0,-3.287313995E0,9.817557349E0
5.963532667E0,1.666334839E0,8.442443848E0,-2.547851715E0,8.974579560E0
5.973540667E0,1.739532623E0,7.958949280E0,-1.618883514E0,8.306120106E0
5.983549667E0,1.857936401E0,7.836204529E0,-4.743635559E-1,8.067406639E0
5.993557667E0,2.191293182E0,7.914791107E0,1.423539734E0,8.334995468E0
6.003565667E0,2.783611450E0,7.999065857E0,3.833228760E0,9.296622506E0
6.013574667E0,3.328777771E0,8.101602631E0,3.191812592E0,9.322252638E0
6.023582667E0,3.447780304E0,8.421038361E0,2.848576355E-1,9.103967265E0
6.033591667E0,3.425776062E0,8.778944092E0,-1.324894867E0,9.516362089E0
6.043599667E0,3.460054779E0,8.929081879E0,-1.422491913E0,9.681113857E0
6.053607667E0,3.497626648E0,8.886719971E0,-7.541317749E-1,9.579973838E0
6.063616667E0,3.497776337E0,8.736881561E0,3.418890381E-1,9.417240935E0
6.073624667E0,3.347638550E0,8.587192841E0,1.327140198E0,9.311705850E0
6.083632667E0,3.016676788E0,8.557853851E0,1.381477203E0,9.178544582E0
6.093641667E0,2.691852264E0,8.539591827E0,9.228309631E-1,9.001239591E0
6.103649667E0,2.494263153E0,8.524922333E0,6.490502930E-1,8.906004477E0
6.113658667E0,2.353705444E0,8.536897430E0,6.662644958E-1,8.880453560E0
6.123666667E0,2.270029449E0,8.530610504E0,6.542893982E-1,8.851691584E0
6.133674667E0,2.237397308E0,8.549471283E0,5.646258545E-1,8.855405597E0
6.143683667E0,2.265089722E0,8.567733307E0,6.676116943E-1,8.887203769E0
6.153691667E0,2.371817780E0,8.577463074E0,8.475375366E-1,8.939614770E0
6.163700667E0,2.702629852E0,8.533604279E0,5.225633240E-1,8.966587006E0
6.173708667E0,3.583098907E0,8.331674194E0,-2.647993469E-1,9.073340694E0
6.183716667E0,4.724325714E0,8.491242371E0,-9.074130249E-1,9.759295510E0
6.193725667E0,5.389841766E0,8.888665924E0,-6.795867920E-1,1.041732280E1
6.203733667E0,6.036197662E0,9.157506866E0,4.534071350E-1,1.097730351E1
6.213742667E0,6.650969238E0,9.556576996E0,6.288423157E-1,1.166014573E1
6.223750667E0,7.014563141E0,1.013721954E1,-8.464897156E-1,1.235653111E1
6.233758667E0,7.494165802E0,1.078821579E1,-1.998494110E0,1.328691460E1
6.243767667E0,8.140970764E0,1.160192368E1,-2.149829407E0,1.433533412E1
6.253775667E0,8.833580475E0,1.261801071E1,-1.717678070E0,1.549828237E1
6.263784667E0,9.362730103E0,1.381028137E1,-9.681866455E-1,1.671292829E1
6.273792667E0,9.285640411E0,1.501033585E1,-1.299298096E-1,1.765078417E1
6.283800667E0,8.398585052E0,1.532483185E1,5.448669434E-1,1.748380914E1
6.293809667E0,7.371870117E0,1.416055298E1,1.285526733E0,1.601618896E1
6.303817667E0,6.226751404E0,1.291574158E1,2.202070770E0,1.450647887E1
6.313825667E0,4.398603058E0,1.224169327E1,3.661535797E0,1.351346023E1
6.323834667E0,2.164498901E0,1.141466309E1,3.245999908E0,1.206300561E1
6.333842667E0,6.120771790E-1,1.076112213E1,-3.796105957E-1,1.078519783E1
6.343851667E0,3.785627747E-1,1.097008759E1,-1.079555054E0,1.102957708E1
6.353859667E0,2.776725769E-1,1.113579300E1,-4.715194702E-2,1.113935416E1
6.363867667E0,3.005749512E-1,1.121647522E1,7.107220459E-1,1.124298837E1
6.373876667E0,4.474195862E-1,1.141286682E1,1.006956024E0,1.146593537E1
6.383884667E0,5.999523926E-1,1.154189850E1,7.502398682E-1,1.158180572E1
6.393893667E0,8.376580811E-1,1.163470551E1,1.224453735E-1,1.166546339E1
6.403901667E0,1.036295013E0,1.176897629E1,-4.680766296E-1,1.182378137E1
6.413909667E0,1.108145599E0,1.211595474E1,-8.493338013E-1,1.219613520E1
6.423918667E0,9.981243896E-1,1.277727951E1,-1.472787323E0,1.290055140E1
6.433926667E0,9.475296021E-1,1.344324463E1,-2.227817230E0,1.365949516E1
6.443935667E0,1.585053864E0,1.372974884E1,-1.829196167E0,1.394146182E1
6.453943667E0,2.477048950E0,1.360266312E1,-8.243357849E-1,1.385091134E1
6.463951667E0,3.129991150E0,1.293669800E1,5.553451538E-1,1.332153925E1
6.473960667E0,3.546275482E0,1.173379944E1,2.314487000E0,1.247457290E1
6.483968667E0,3.873345337E0,1.011940659E1,4.126319275E0,1.159446870E1
6.493977667E0,4.095333710E0,8.406518555E0,4.950056305E0,1.058037664E1
6.503985667E0,4.499343567E0,7.035818939E0,3.926185455E0,9.228313655E0
6.513993667E0,4.784799957E0,6.111341400E0,2.540367279E0,8.166778450E0
6.524002667E0,4.831053772E0,5.396727448E0,1.539997559E0,7.405088802E0
6.534010667E0,4.801864471E0,4.876409454E0,1.311273193E0,6.968264415E0
6.544019667E0,4.573589172E0,4.905598755E0,1.443897400E0,6.860572626E0
6.554027667E0,4.131708069E0,4.954696655E0,1.597178650E0,6.646127455E0
6.564035667E0,3.586392059E0,4.960983582E0,1.606609039E0,6.328882895E0
6.574044667E0,2.899171143E0,5.003495178E0,1.392703857E0,5.948090563E0
6.584052667E0,2.158960419E0,5.170398102E0,9.741741943E-1,5.687103127E0
6.594061667E0,1.669627991E0,5.311853943E0,5.158273315E-1,5.591916288E0
6.604069667E0,1.243913269E0,5.394182739E0,3.885919189E-1,5.549372156E0
6.614077667E0,8.416996765E-1,5.459297333E0,5.200186157E-1,5.548225399E0
6.624086667E0,4.309538269E-1,5.498515778E0,6.888674927E-1,5.558231318E0
6.634094667E0,7.484436035E-2,5.436844025E0,8.523275757E-1,5.503756619E0
6.644103667E0,-2.139051819E-1,5.150639191E0,1.196162567E0,5.292035940E0
6.654111667E0,-3.613485718E-1,4.954696655E0,1.389261017E0,5.158453054E0
6.664119667E0,-4.459226990E-1,4.812642059E0,1.634451141E0,5.102136923E0
6.674128667E0,-5.307962036E-1,4.742587738E0,2.132016449E0,5.226794161E0
6.684136667E0,-6.578819275E-1,4.952002258E0,2.851869507E0,5.752242578E0
6.694145667E0,-7.524851990E-1,5.455405426E0,3.844754791E0,6.716384574E0
6.704153667E0,-6.779402161E-1,6.355932770E0,5.281916199E0,8.291931201E0
6.714161667E0,-2.874023438E-1,8.010442200E0,7.373367004E0,1.089111222E1
6.724170667E0,9.395960999E-1,1.008497818E1,9.528734894E0,1.390634439E1
6.734178667E0,3.130889282E0,1.134281250E1,1.113100296E1,1.619756432E1
6.744187667E0,4.524790649E0,1.173484726E1,1.222792191E1,1.754144933E1
6.754195667E0,4.443359985E0,1.187031555E1,1.293969177E1,1.811307435E1
6.764203667E0,3.335064697E0,1.195009964E1,1.333007996E1,1.821039729E1
6.774212667E0,1.778601379E0,1.112306946E1,1.297591644E1,1.718314594E1
6.784220667E0,5.254074097E-1,9.456884308E0,1.090512268E1,1.444404425E1
6.794229667E0,-2.192939758E-1,7.785310364E0,7.770940247E0,1.100212069E1
6.804237667E0,-4.969665527E-1,6.798861694E0,5.063819733E0,8.491982476E0
6.814245667E0,4.071533203E-2,6.750961304E0,3.184627533E0,7.464515308E0
6.824254667E0,1.756896515E0,7.814349976E0,1.162183228E0,8.093294802E0
6.834262667E0,3.733536072E0,9.552685089E0,-1.408870239E0,1.035268078E1
6.844271667E0,4.924459534E0,1.138487503E1,-3.958218842E0,1.302049068E1
6.854279667E0,5.275180206E0,1.279060181E1,-4.300107880E0,1.448854543E1
6.864287667E0,4.939727783E0,1.405696838E1,-5.469625854E-1,1.490967601E1
6.874296667E0,4.925657043E0,1.555954376E1,5.801485748E0,1.732104894E1
6.884304667E0,4.101620636E0,1.577045517E1,8.974587250E0,1.860305793E1
6.894312667E0,2.420915680E0,1.295136749E1,5.251379700E0,1.418364345E1
6.904321667E0,1.380878448E0,9.743238831E0,1.800904999E0,1.000403854E1
6.914329667E0,6.750961304E-1,7.904761963E0,5.613327026E-2,7.933736032E0
6.924338667E0,4.155358887E-1,6.893764343E0,-1.064885559E0,6.987892254E0
6.934346667E0,7.816744995E-1,6.347250824E0,-1.495989075E0,6.567845260E0
6.944354667E0,1.735491028E0,6.352340240E0,-1.821562042E0,6.832440553E0
6.954363667E0,2.939886475E0,6.646777954E0,-2.360441437E0,7.641614583E0
6.964371667E0,4.097429352E0,7.066205750E0,-2.951412506E0,8.685103728E0
6.974380667E0,5.132526855E0,7.587721252E0,-3.099155273E0,9.670631269E0
6.984388667E0,6.058950348E0,8.125103760E0,-2.403102722E0,1.041648180E1
6.994396667E0,7.021149445E0,8.387807465E0,9.056167603E-2,1.093892385E1
7.004405667E0,7.650889893E0,8.506360931E0,2.822979584E0,1.178403607E1
7.014413667E0,7.547305298E0,8.634195099E0,3.771257629E0,1.207201418E1
7.024422667E0,6.741231537E0,8.787027283E0,3.406615906E0,1.158710848E1
7.034430667E0,5.566474457E0,9.230704651E0,3.097957764E0,1.121556457E1
7.044439667E0,3.942202148E0,9.966424713E0,2.657573547E0,1.104234017E1
7.054447667E0,2.231110382E0,1.040411453E1,2.174078979E0,1.086048213E1
7.064455667E0,1.216220856E0,1.062550415E1,1.262774048E0,1.076917499E1
7.074464667E0,9.553134155E-1,1.056398209E1,-3.478765869E-1,1.061279225E1
7.084472667E0,9.728269958E-1,1.017658768E1,-1.874102783E0,1.039334356E1
7.094480667E0,1.063089294E0,9.876611481E0,-2.560874634E0,1.025844492E1
7.104489667E0,1.167871399E0,9.514664154E0,-2.507735138E0,9.908657482E0
7.114497667E0,1.225950623E0,8.967402191E0,-1.881138153E0,9.244238083E0
7.124506667E0,1.351090393E0,8.487649841E0,-1.128353577E0,8.668265505E0
7.134514667E0,1.662293243E0,8.307574310E0,-3.664379883E-1,8.480170196E0
7.144522667E0,2.150278473E0,8.424481201E0,7.298822021E-1,8.725153812E0
7.154531667E0,2.702180786E0,8.588540039E0,2.290836182E0,9.290464542E0
7.164539667E0,3.237317963E0,8.636141052E0,3.038231964E0,9.710510457E0
7.174548667E0,3.496578827E0,8.741671600E0,8.833131409E-1,9.456380278E0
7.184556667E0,3.440744934E0,8.904383240E0,-9.196875000E-1,9.590234183E0
7.194565667E0,3.410807190E0,8.915609894E0,-1.212628326E0,9.622482680E0
7.204573667E0,3.516337738E0,8.733139343E0,-6.489006042E-1,9.436812273E0
7.214581667E0,3.661236420E0,8.482111359E0,2.100132751E-1,9.240939930E0
7.224590667E0,3.828738098E0,8.314459991E0,1.083297272E0,9.217538356E0
7.234598667E0,3.930077362E0,8.199049988E0,1.350042572E0,9.191982578E0
7.244607667E0,3.918551331E0,8.117769012E0,8.698411560E-1,9.055928550E0
7.254615667E0,3.891607361E0,8.091124420E0,2.860551453E-1,8.982913212E0
7.264623667E0,3.893253937E0,8.083490295E0,1.074765015E-1,8.972836384E0
7.274632667E0,3.860921173E0,8.085136871E0,3.568579102E-1,8.966799769E0
7.284640667E0,3.713477783E0,8.063282318E0,8.265811157E-1,8.915698252E0
7.294649667E0,3.460204468E0,8.067623291E0,1.346450043E0,8.881018424E0
7.304657667E0,3.315006409E0,8.068671112E0,1.666484528E0,8.880872237E0
7.314665667E0,3.391197968E0,8.002059631E0,1.469943237E0,8.814415189E0
7.324674667E0,3.663182373E0,7.898924103E0,7.354206848E-1,8.738006103E0
7.334682667E0,4.038152618E0,7.968080292E0,-2.284249878E-1,8.935835612E0
7.344691667E0,4.389322357E0,8.305628357E0,-1.069825287E0,9.454847397E0
7.354699667E0,4.689597931E0,8.717422028E0,-1.492845612E0,1.001071244E1
7.364707667E0,4.921166382E0,9.035660248E0,-1.244512024E0,1.036387210E1
7.374716667E0,5.099295959E0,9.174272003E0,-3.504212952E-1,1.050204176E1
7.384724667E0,5.143454132E0,9.251960449E0,6.755451965E-1,1.060708508E1
7.394733667E0,5.024002533E0,9.492061157E0,4.650828552E-1,1.074970365E1
7.404741667E0,4.976551208E0,9.776918793E0,-5.480104065E-1,1.098428507E1
7.414749667E0,5.110672302E0,1.010473709E1,-8.529263306E-1,1.135571074E1
7.424758667E0,5.406157837E0,1.079150894E1,-5.261558533E-1,1.208139263E1
7.434766667E0,5.692212982E0,1.183229462E1,-1.299298096E-1,1.313093166E1
7.444775667E0,5.975124664E0,1.282802399E1,3.727249146E-2,1.415138521E1
7.454783667E0,6.230493622E0,1.344279556E1,-1.498384094E-1,1.481722831E1
7.464791667E0,6.294261017E0,1.366343674E1,-2.730322266E-1,1.504598856E1
7.474800667E0,6.036646729E0,1.354638016E1,-9.340576172E-2,1.483085445E1
7.484808667E0,5.300327911E0,1.293834457E1,4.929249573E-1,1.399061154E1
7.494817667E0,4.069886627E0,1.188738007E1,1.428928528E0,1.264577474E1
7.504825667E0,2.168540497E0,1.063643143E1,1.295256500E0,1.093224272E1
7.514833667E0,7.674540710E-1,9.913434906E0,-1.031654663E0,9.996473815E0
7.524842667E0,5.486091614E-1,1.032358200E1,-1.412762146E0,1.043423280E1
7.534850667E0,5.929170227E-1,1.073612411E1,-4.147874451E-1,1.076048141E1
7.544859667E0,7.726931763E-1,1.091305618E1,4.047583008E-1,1.094786186E1
7.554867667E0,1.078058167E0,1.129955246E1,9.464817810E-1,1.139025561E1
7.564875667E0,1.442550201E0,1.187196213E1,1.028211823E0,1.200340183E1
7.574884667E0,1.823208618E0,1.227657074E1,6.822811890E-1,1.242995521E1
7.584892667E0,2.234104156E0,1.243194763E1,1.725910950E-1,1.263227339E1
7.594901667E0,2.549797668E0,1.228944397E1,-7.219487000E-1,1.257191756E1
7.604909667E0,2.686463470E0,1.215098190E1,-1.806742859E0,1.257488636E1
7.614918667E0,2.987487488E0,1.214229996E1,-2.453697510E0,1.274288669E1
7.624926667E0,3.577859802E0,1.212718140E1,-1.712588654E0,1.275941101E1
7.634934375E0,4.636907501E0,1.198677338E1,1.088686066E0,1.289840628E1
7.644943375E0,5.642965393E0,1.146091690E1,3.242856445E0,1.317997696E1
7.654951375E0,5.840105438E0,1.049183212E1,3.362308044E0,1.246958252E1
7.664960375E0,5.805677032E0,9.389823761E0,2.744093628E0,1.137561980E1
7.674968375E0,5.549559631E0,8.251141663E0,2.117197266E0,1.016668457E1
7.684976375E0,5.232668610E0,7.421566772E0,1.849404144E0,9.267187806E0
7.694985375E0,4.934937744E0,6.827901306E0,1.587448883E0,8.572854877E0
7.704993375E0,4.595892792E0,6.419849854E0,1.264420624E0,7.995965371E0
7.715002375E0,4.135150909E0,6.165229340E0,9.283694458E-1,7.481403323E0
7.725010375E0,3.698359222E0,6.093378754E0,2.243833923E-1,7.131442595E0
7.735018375E0,3.329376526E0,6.007457428E0,-5.511538696E-1,6.890432743E0
7.745027375E0,2.968327332E0,5.845344543E0,-1.021625519E0,6.634963352E0
7.755035375E0,2.668650513E0,5.646408234E0,-1.110839996E0,6.343310413E0
7.765044375E0,2.380200348E0,5.430257721E0,-9.131011963E-1,5.998900433E0
7.775052375E0,2.100881195E0,5.295238495E0,-7.237449646E-1,5.742565567E0
7.785060375E0,1.847158813E0,5.269941101E0,-6.155200195E-1,5.618108203E0
7.795069375E0,1.614841919E0,5.254223785E0,-5.751040649E-1,5.526782671E0
7.805077375E0,1.469643860E0,5.176535339E0,-5.679190063E-1,5.410998354E0
7.815086375E0,1.394500122E0,5.161416779E0,-3.796105957E-1,5.359940108E0
7.825094375E0,1.443448334E0,5.268593903E0,8.846603394E-2,5.463465113E0
7.835103375E0,1.724114685E0,5.516777802E0,7.447013855E-1,5.827691559E0
7.845111375E0,2.244582367E0,5.843099213E0,1.560355225E0,6.450943097E0
7.855119375E0,3.002905426E0,6.541097717E0,2.866239624E0,7.747175610E0
7.865128375E0,3.699407043E0,7.636669464E0,4.458927612E0,9.585737761E0
7.875136375E0,4.227808228E0,8.904832306E0,5.665867767E0,1.136980468E1
7.885145375E0,4.668042755E0,1.011626312E1,6.602470093E0,1.295075342E1
7.895153375E0,5.061574402E0,1.127215942E1,7.016658783E0,1.420966622E1
7.905161375E0,5.209915924E0,1.238015533E1,5.814808044E0,1.463637464E1
7.915170375E0,4.993915100E0,1.353859634E1,2.909349976E0,1.472063505E1
7.925178375E0,3.719764709E0,1.439421707E1,-6.015989685E-1,1.487924917E1
7.935187375E0,1.756297760E0,1.428659088E1,-2.466121674E0,1.460386993E1
7.945195375E0,2.888992310E-1,1.283206558E1,-2.103575592E0,1.300655220E1
7.955203375E0,-5.225633240E-1,1.103535187E1,-1.146166534E0,1.110701404E1
7.965212375E0,-8.957373047E-1,9.491462402E0,-5.716612244E-1,9.550759154E0
7.975220375E0,-9.330097961E-1,8.229586487E0,-6.405180359E-1,8.307037040E0
7.985229375E0,-8.608598328E-1,7.163204041E0,-8.681945801E-1,7.266796654E0
7.995237375E0,-9.527687073E-1,6.433621216E0,-6.541397095E-1,6.536600716E0
8.005245375E0,-1.197809143E0,6.130052490E0,4.655319214E-2,6.246155416E0
8.015254375E0,-1.808838501E0,6.514453125E0,1.993105316E0,7.048578938E0
8.025262375E0,-2.123035126E0,8.300538940E0,4.659959564E0,9.753022505E0
8.035271375E0,3.718267822E-1,1.094823303E1,2.987188110E0,1.135453013E1
8.045279375E0,3.270099792E0,1.251682114E1,-7.735913086E-1,1.296004659E1
8.055287375E0,4.296066284E0,1.326541443E1,-4.060156860E0,1.452281926E1
8.065296375E0,4.540358276E0,1.376821884E1,-6.152655487E0,1.574909118E1
8.075304375E0,4.681514740E0,1.453687042E1,-6.540498962E0,1.661370845E1
8.085313375E0,4.130211182E0,1.433224594E1,-5.484145660E0,1.589175169E1
8.095321375E0,3.443289642E0,1.288610321E1,-2.888094177E0,1.364730697E1
8.105330375E0,3.034639435E0,1.025442581E1,3.252735901E-1,1.069897603E1
8.115338375E0,3.062331848E0,8.043074341E0,5.035229187E0,9.971080893E0
8.125346375E0,3.532953186E0,7.303013306E0,7.890242157E0,1.131687602E1
8.135355375E0,4.209546204E0,7.741900635E0,6.853498077E0,1.116367953E1
8.145363375E0,5.045857086E0,8.388855286E0,4.067641296E0,1.060090904E1
8.155372375E0,5.516927490E0,8.834179230E0,1.431922302E0,1.051330648E1
8.165380375E0,5.459596710E0,8.983568573E0,-3.041674805E-1,1.051685402E1
8.175388375E0,5.047803040E0,8.800648956E0,-9.716294861E-1,1.019194787E1
8.185397375E0,4.308640137E0,8.585396576E0,-7.628137207E-1,9.636145441E0
8.195405375E0,3.456611938E0,8.627159729E0,2.499801636E-1,9.297232984E0
8.205414375E0,2.790646820E0,9.011560364E0,1.577868805E0,9.564810496E0
8.215422375E0,2.431543579E0,9.711504822E0,2.591111755E0,1.034116000E1
8.225430375E0,2.323019257E0,1.041878403E1,3.055895233E0,1.110342176E1
8.235439375E0,2.320773926E0,1.076246933E1,3.345991974E0,1.150705870E1
8.245447375E0,2.388882294E0,1.064017365E1,3.220103760E0,1.137053746E1
8.255456375E0,2.519111481E0,1.014036301E1,2.748733978E0,1.080409288E1
8.265464375E0,2.729723511E0,9.471703491E0,2.051932983E0,1.006851461E1
8.275473375E0,3.098556519E0,8.767567749E0,1.277144165E0,9.386287549E0
8.285481375E0,3.628604279E0,8.186476135E0,6.206094360E-1,8.976096958E0
8.295489375E0,4.225413208E0,7.935747528E0,3.034190369E-1,8.995680559E0
8.305498375E0,4.739144897E0,7.903714142E0,1.131646729E-1,9.216344060E0
8.315506375E0,5.212161255E0,7.992479553E0,1.152603149E-2,9.541828295E0
8.325515375E0,5.558690643E0,8.154293060E0,1.204994202E-1,9.869450699E0
8.335523375E0,5.637277222E0,8.442294159E0,4.053570557E-1,1.015950488E1
8.345531375E0,5.467530212E0,8.767118683E0,5.810916138E-1,1.034861943E1
8.355540375E0,5.264402618E0,8.951834564E0,6.430627441E-1,1.040494146E1
8.365548375E0,5.086572418E0,9.013356628E0,6.506968689E-1,1.037001558E1
8.375557375E0,4.940027161E0,9.064250793E0,5.963598633E-1,1.034022030E1
8.385565375E0,4.823868713E0,9.097332001E0,5.177732849E-1,1.031015267E1
8.395574375E0,4.688550110E0,9.081764374E0,3.826043701E-1,1.022777260E1
8.405582375E0,4.605772247E0,9.082662506E0,1.947450256E-1,1.018556929E1
8.415590375E0,4.520449677E0,9.111253052E0,1.032852173E-2,1.017101294E1
8.425599375E0,4.409829712E0,9.122330017E0,-2.037263489E-1,1.013434790E1
8.435607375E0,4.306394806E0,9.092092896E0,-4.480183411E-1,1.007034805E1
8.445616375E0,4.190086670E0,9.040300598E0,-7.461982727E-1,9.992030478E0
8.455624375E0,4.022135925E0,8.974287872E0,-9.259744263E-1,9.877896985E0
8.465632375E0,3.807182922E0,8.873098297E0,-9.982740784E-1,9.706856666E0
8.475641375E0,3.566633148E0,8.779542847E0,-9.936337280E-1,9.528302713E0
8.485649375E0,3.335064697E0,8.729995880E0,-9.189390564E-1,9.390417115E0
8.495658375E0,3.096610565E0,8.745114441E0,-8.677455139E-1,9.317671697E0
8.505666375E0,2.881358185E0,8.807384949E0,-8.634045410E-1,9.306864242E0
8.515675375E0,2.744243317E0,8.878038025E0,-8.934919739E-1,9.335349938E0
8.525683375E0,2.632276154E0,8.959319000E0,-9.391470337E-1,9.385109048E0
8.535691375E0,2.488275604E0,9.134903870E0,-9.845027161E-1,9.518782999E0
8.545700375E0,2.310445404E0,9.369915161E0,-9.129515076E-1,9.693655066E0
8.555708375E0,2.039359131E0,9.641151123E0,-6.159690857E-1,9.873712501E0
8.565717375E0,1.724863129E0,9.863438873E0,-1.020877075E-1,1.001364075E1
8.575725375E0,1.555714874E0,9.840087433E0,4.041595459E-1,9.970502214E0
8.585733375E0,1.738634491E0,9.482331390E0,9.210346985E-1,9.684305004E0
8.595742375E0,2.307152252E0,9.027277679E0,1.297651520E0,9.407369095E0
8.605750375E0,3.057841187E0,8.683442688E0,1.289119263E0,9.295934494E0
8.615759375E0,3.878285065E0,8.430468750E0,1.065783691E0,9.340759780E0
8.625767375E0,4.568499756E0,8.290360107E0,7.819738770E-1,9.498038949E0
8.635780000E0,5.057233429E0,8.254734192E0,5.800437927E-1,9.698076992E0
8.645788000E0,5.382956085E0,8.282576294E0,4.656816101E-1,9.889092256E0
8.655796000E0,5.529800720E0,8.372389526E0,4.246669006E-1,1.004270603E1
8.665805000E0,5.639372864E0,8.457263031E0,4.093986511E-1,1.017327044E1
8.675813000E0,5.774392090E0,8.528814240E0,3.174897766E-1,1.030461431E1
8.685822000E0,5.834716644E0,8.665779419E0,2.237846375E-1,1.044938902E1
8.695830000E0,5.842051392E0,8.849896545E0,1.308279419E-1,1.060506244E1
8.705839000E0,5.902974701E0,9.019344177E0,-2.290237427E-2,1.077934155E1
8.715847000E0,5.980513458E0,9.160650330E0,-2.293231201E-1,1.094242408E1
8.725855000E0,6.006708984E0,9.344468079E0,-4.337979126E-1,1.111700576E1
8.735864000E0,5.891298981E0,9.504934387E0,-5.625302124E-1,1.119676836E1
8.745872000E0,5.583389282E0,9.728269958E0,-5.158273315E-1,1.122851504E1
8.755881000E0,4.977000275E0,1.007809250E1,-2.071691895E-1,1.124194820E1
8.765889000E0,4.090393982E0,1.045905029E1,4.525090027E-1,1.123956495E1
8.775897000E0,3.121159515E0,1.078237793E1,1.496138763E0,1.132429873E1
8.785906000E0,1.966909790E0,1.116917358E1,2.969973907E0,1.172347720E1
8.795914000E0,8.137078857E-1,1.158890076E1,4.019441528E0,1.229311399E1
8.805923000E0,-5.418731689E-2,1.191926376E1,4.224215698E0,1.264578124E1
8.815931000E0,-5.713618469E-1,1.215726883E1,4.035009155E0,1.282212692E1
8.825940000E0,-6.861730957E-1,1.237087463E1,3.689677277E0,1.292760964E1
8.835948000E0,-5.507048035E-1,1.244766495E1,3.294199677E0,1.288795523E1
8.845956000E0,-2.462379456E-1,1.241413467E1,2.848127289E0,1.273904242E1
8.855965000E0,7.664062500E-2,1.218196747E1,2.394271088E0,1.241526235E1
8.865973000E0,4.953199768E-1,1.177930481E1,1.809437256E0,1.192775867E1
8.875982000E0,1.103056183E0,1.146450943E1,1.109792175E0,1.157079721E1
8.885990000E0,1.975142670E0,1.105526047E1,3.838018799E-1,1.123687129E1
8.895998000E0,2.590513000E0,1.061861847E1,-2.501298523E-1,1.093290358E1
8.906007000E0,2.775079193E0,1.039124130E1,-7.117698669E-1,1.077894135E1
8.916015000E0,2.781665497E0,1.027403503E1,-9.006770325E-1,1.068197912E1
8.926024000E0,2.770887909E0,1.018257523E1,-9.819580078E-1,1.059843854E1
8.936032000E0,2.843636627E0,1.012374756E1,-1.030008087E0,1.056586251E1
8.946041000E0,2.975213013E0,1.012988480E1,-1.134790192E0,1.061857840E1
8.956049000E0,3.138673096E0,1.007958939E1,-1.392853546E0,1.064844740E1
8.966057000E0,3.226690063E0,9.838440857E0,-1.497186584E0,1.046174053E1
8.976066000E0,3.222947845E0,9.544152832E0,-8.532257080E-1,1.010971019E1
8.986074000E0,3.198548584E0,9.207053833E0,1.492396545E-1,9.747965213E0
8.996083000E0,3.382965088E0,8.808432770E0,1.208886108E0,9.512851637E0
9.006091000E0,3.870950317E0,8.419092407E0,2.161804504E0,9.515186390E0
9.016099000E0,4.440815277E0,8.228089600E0,2.423161011E0,9.658882341E0
9.026108000E0,5.097799072E0,8.334218903E0,2.156116333E0,1.000477875E1
9.036116000E0,5.528303833E0,8.780291290E0,1.563348999E0,1.049284130E1
9.046125000E0,5.767805786E0,9.168434143E0,1.016536102E0,1.087938941E1
9.056133000E0,5.861211548E0,9.357790375E0,9.523196411E-1,1.108282248E1
9.066142000E0,5.598956909E0,9.207053833E0,1.616338806E0,1.089636223E1
9.076150000E0,4.986730042E0,8.906478882E0,3.043321381E0,1.065150917E1
9.086158000E0,4.203708344E0,9.029672699E0,3.970942383E0,1.072261798E1
9.096167000E0,3.453169098E0,9.434880066E0,3.494932251E0,1.063747574E1
9.106175000E0,2.902464294E0,9.623787231E0,2.499053192E0,1.035793640E1
9.116184000E0,2.467019806E0,9.543404388E0,1.703906708E0,1.000330206E1
9.126192000E0,2.023043060E0,9.224417725E0,1.363813934E0,9.541623239E0
9.136201000E0,1.608554993E0,8.776249695E0,1.620979156E0,9.068493882E0
9.146209000E0,1.345252533E0,8.298742676E0,2.107766876E0,8.667266904E0
9.156217000E0,1.237326965E0,7.879614258E0,2.524500275E0,8.366146096E0
9.166226000E0,1.292113037E0,7.528145142E0,2.676883392E0,8.093715468E0
9.176234000E0,1.291065216E0,7.187603302E0,2.794688416E0,7.819128721E0
9.186243000E0,1.246757355E0,6.790778503E0,2.762056274E0,7.436264617E0
9.196251000E0,1.155746613E0,6.401288452E0,2.603535919E0,7.006471534E0
9.206259000E0,9.627978516E-1,5.998925171E0,2.521057434E0,6.577979439E0
9.216268000E0,7.780819702E-1,5.573958893E0,2.574496307E0,6.188898168E0
9.226276000E0,7.243437195E-1,5.177134094E0,2.734214172E0,5.899433735E0
9.236285000E0,7.792794800E-1,4.879253540E0,3.024460602E0,5.793250689E0
9.246293000E0,9.539662170E-1,4.766687622E0,3.312461700E0,5.882496489E0
9.256302000E0,1.211580505E0,4.887935486E0,3.734883270E0,6.269704433E0
9.266310000E0,1.409618683E0,5.285059662E0,4.530927887E0,7.102688785E0
9.276318000E0,1.496587830E0,6.069578247E0,5.699847107E0,8.459776136E0
9.286327000E0,1.417552185E0,7.138056335E0,6.973997498E0,1.007958052E1
9.296335000E0,1.301693115E0,8.092471619E0,7.820038147E0,1.132852587E1
9.306344000E0,1.164428558E0,8.726103973E0,7.952961731E0,1.186382673E1
9.316352000E0,1.100661163E0,8.904832306E0,7.782017212E0,1.187717497E1
9.326361000E0,1.037342834E0,8.700507202E0,7.972720642E0,1.184648387E1
9.336369000E0,1.186881866E0,8.225395203E0,8.167615356E0,1.165228542E1
9.346377000E0,1.755549316E0,7.614814911E0,7.898774414E0,1.111116541E1
9.356386000E0,2.268981628E0,7.257957001E0,7.417375488E0,1.062279043E1
9.366394000E0,2.618205414E0,7.376061401E0,6.934928741E0,1.045727106E1
9.376403000E0,3.228336639E0,7.970175934E0,6.316714325E0,1.066989886E1
9.386411000E0,4.624782715E0,8.943302307E0,5.607040100E0,1.152432948E1
9.396420000E0,6.570287018E0,1.022972717E1,5.064268799E0,1.317052801E1
9.406428000E0,8.027506714E0,1.183813248E1,4.503085785E0,1.499533348E1
9.416436000E0,7.882158966E0,1.340133179E1,2.749931488E0,1.578880131E1
9.426445000E0,6.519542542E0,1.396071854E1,1.000669098E0,1.544044804E1
9.436453000E0,4.446054382E0,1.304103104E1,7.397616577E-1,1.379793961E1
9.446462000E0,1.462608490E0,1.082039886E1,8.330177307E-1,1.095053303E1
9.456470000E0,-1.529968414E0,7.773784332E0,-9.596543884E-1,7.980818425E0
9.466478000E0,-2.901266785E0,6.183191986E0,-1.860481110E0,7.078884238E0
9.476487000E0,-3.782184906E0,6.206842804E0,-2.438429260E-1,7.272501607E0
9.486495000E0,-5.041216736E0,7.229516144E0,3.146456909E0,9.358416583E0
9.496504000E0,-5.528004456E0,9.148076477E0,6.187832336E0,1.235052248E1
9.506512000E0,-3.572920074E0,1.110211304E1,5.958060150E0,1.309660844E1
9.516521000E0,3.341052246E-1,1.166494263E1,3.567381592E0,1.220281624E1
9.526529000E0,2.883154449E0,1.096784225E1,-9.145980835E-1,1.137728583E1
9.536537000E0,4.015998688E0,1.081830322E1,-5.532944183E0,1.279755451E1
9.546546000E0,5.570815430E0,1.040950333E1,-7.191644897E0,1.382430831E1
9.556554000E0,7.400011597E0,9.805659027E0,-4.665348358E0,1.314064671E1
9.566563000E0,9.233997803E0,9.220076752E0,-3.522175598E-1,1.305375762E1
9.576571000E0,9.906100159E0,8.117619324E0,2.290387115E0,1.301047413E1
9.586580000E0,9.849517822E0,6.877148895E0,3.791315918E0,1.259691449E1
9.596588000E0,9.223369904E0,5.894891510E0,3.932472382E0,1.163119243E1
9.606596000E0,8.355774078E0,5.574557648E0,3.139122162E0,1.052372279E1
9.616605000E0,7.199279022E0,5.765859833E0,2.396516418E0,9.529850418E0
9.626613000E0,4.910089417E0,7.333699493E0,1.611698456E0,8.971605110E0
9.636621750E0,3.043471069E0,9.014703827E0,8.086184692E-1,9.548898631E0
9.646629750E0,2.499202881E0,9.849218445E0,-1.067280579E-1,1.016191468E1
9.656638750E0,2.140548706E0,1.047910858E1,-1.036295013E0,1.074558387E1
9.666646750E0,1.825154572E0,1.072549622E1,-1.618284760E0,1.099937743E1
9.676654750E0,1.565294952E0,1.080153809E1,-1.880389709E0,1.107516315E1
9.686663750E0,1.409468994E0,1.070962921E1,-1.839824066E0,1.095754139E1
9.696671750E0,1.334624634E0,1.026056305E1,-1.687740326E0,1.048374191E1
9.706680750E0,1.432970123E0,9.678124237E0,-1.508862305E0,9.899300863E0
9.716688750E0,1.632954254E0,9.075178070E0,-1.249601440E0,9.305208238E0
9.726697750E0,1.799857178E0,8.597221985E0,-8.485853577E-1,8.824500486E0
9.736705750E0,1.923949127E0,8.274642792E0,-2.378553772E-1,8.498698062E0
9.746713750E0,2.045047302E0,8.111631775E0,6.884184265E-1,8.393730306E0
9.756722750E0,2.213746490E0,8.126450958E0,2.753524017E0,8.861251222E0
9.766730750E0,2.602787476E0,8.237519989E0,3.548820190E0,9.339451962E0
9.776739750E0,2.837649078E0,8.578810272E0,1.683399353E0,9.191412914E0
9.786747750E0,2.819686432E0,8.946595459E0,1.694476318E-1,9.381946194E0
9.796756750E0,2.749632111E0,9.113947449E0,-4.553530884E-1,9.530575076E0
9.806764750E0,2.713108063E0,9.112001495E0,-7.313790894E-1,9.535430876E0
9.816772750E0,2.742746429E0,8.991053009E0,-7.867639160E-1,9.432957630E0
9.826781750E0,2.795885925E0,8.804540863E0,-5.409750366E-1,9.253624798E0
9.836789750E0,2.905009003E0,8.499774628E0,-5.089416504E-3,8.982498090E0
9.846798750E0,3.049907684E0,8.309520264E0,9.620494080E-1,8.903684797E0
9.856806750E0,3.087479553E0,8.326734467E0,1.860181732E0,9.073439973E0
9.866815750E0,2.916385345E0,8.597221985E0,1.727557526E0,9.241319405E0
9.876823750E0,2.746638336E0,8.930728455E0,9.217831421E-1,9.388909257E0
9.886831750E0,2.684517517E0,9.188193054E0,4.915777588E-1,9.584945206E0
9.896840750E0,2.759511566E0,9.331894226E0,6.030958557E-1,9.750019412E0
9.906848750E0,2.946622467E0,9.425000610E0,1.165326691E0,9.943400161E0
9.916857750E0,3.212020569E0,9.460027771E0,1.812730408E0,1.015358031E1
9.926865750E0,3.847299500E0,9.404343567E0,1.707499237E0,1.030334630E1
9.936874750E0,4.880001984E0,9.267677765E0,8.443940735E-1,1.050796231E1
9.946882750E0,5.697152710E0,9.350455627E0,-1.874102783E-1,1.095096763E1
9.956890750E0,6.080056458E0,9.590706024E0,-9.937834167E-1,1.139896197E1
9.966899750E0,6.270909576E0,9.665251007E0,-9.208850098E-1,1.155808865E1
9.976907750E0,6.553072815E0,9.520801392E0,6.001020813E-1,1.157361417E1
9.986916750E0,7.150181122E0,9.087452545E0,3.014431458E0,1.194963099E1
9.996924750E0,7.529043274E0,9.284143524E0,1.176403656E0,1.201106736E1
1.000693375E1,7.703879700E0,1.016431320E1,-2.381846924E0,1.297444488E1
1.001694175E1,8.046966248E0,1.105810455E1,-3.400927734E0,1.409260982E1
1.002694975E1,8.585396576E0,1.187510559E1,-2.816393280E0,1.492177061E1
1.003695875E1,9.182654572E0,1.243209732E1,-1.720821533E0,1.555118695E1
1.004696675E1,9.384135590E0,1.300540512E1,-5.261558533E-1,1.604616475E1
1.005697575E1,8.500822449E0,1.352332809E1,-3.338058472E-2,1.597327453E1
1.006698375E1,7.270231476E0,1.303848633E1,-2.435435486E-1,1.493042883E1
1.007699275E1,6.149661713E0,1.192046127E1,8.038284302E-2,1.341350803E1
1.008700075E1,4.798721008E0,1.125015518E1,1.284329224E0,1.229809808E1
1.009700875E1,3.374732208E0,1.092787537E1,1.773511963E0,1.157379031E1
1.010701775E1,1.795665894E0,1.068732559E1,3.790118408E-1,1.084375370E1
1.011702575E1,6.480024719E-1,1.064182022E1,-1.454525299E0,1.076029222E1
1.012703475E1,4.110452271E-1,1.094164673E1,-1.236728210E0,1.101898761E1
1.013704275E1,5.613327026E-1,1.123264160E1,-6.331832886E-1,1.126446860E1
1.014705175E1,8.111631775E-1,1.167691772E1,-2.174977112E-1,1.170707899E1
1.015705975E1,8.831634521E-1,1.224708206E1,-6.436614990E-3,1.227888587E1
1.016706875E1,8.873547363E-1,1.274434799E1,-1.541793823E-1,1.277613304E1
1.017707675E1,7.937992859E-1,1.312440765E1,-6.197113037E-1,1.316298734E1
1.018708475E1,5.020559692E-1,1.377540390E1,-1.546434174E0,1.387102273E1
1.019709375E1,2.227368164E-1,1.455902435E1,-3.165766754E0,1.490090202E1
1.020710175E1,4.828958130E-1,1.424752213E1,-3.977528687E0,1.480019627E1
1.021711075E1,1.124162292E0,1.295211594E1,-4.060156860E0,1.362005587E1
1.022711875E1,1.099763031E0,1.168515060E1,-2.860850830E0,1.208042594E1
1.023712775E1,1.059347076E0,1.037387741E1,-5.129832458E-1,1.044043584E1
1.024713575E1,1.587897949E0,9.292825470E0,2.190245361E0,9.678594932E0
1.025714375E1,2.236499176E0,7.979007568E0,4.834646301E0,9.593763349E0
1.026715275E1,3.097508698E0,7.052733765E0,6.099366302E0,9.825369356E0
1.027716075E1,3.928580475E0,6.585106201E0,5.564977570E0,9.474510203E0
1.028716975E1,4.471052399E0,6.149362335E0,3.999233551E0,8.590624871E0
1.029717775E1,4.784201202E0,5.832770691E0,2.432890778E0,7.926459021E0
1.030718675E1,5.045108643E0,5.549709320E0,1.537901917E0,7.656209053E0
1.031719475E1,5.013973389E0,5.414091339E0,1.419647827E0,7.514500258E0
1.032720275E1,4.580325165E0,5.334906006E0,1.624571686E0,7.216635911E0
1.033721175E1,3.892056427E0,5.430257721E0,1.678908691E0,6.888725320E0
1.034721975E1,2.915936279E0,5.851781158E0,1.337618408E0,6.673473617E0
1.035722875E1,2.051932983E0,6.107000427E0,9.101074219E-1,6.506472063E0
1.036723675E1,1.442250824E0,6.039341125E0,5.152285767E-1,6.230504727E0
1.037724575E1,8.952882385E-1,5.709427185E0,4.146377563E-1,5.794050766E0
1.038725375E1,2.143542480E-1,4.953648834E0,8.068222046E-1,5.023499436E0
1.039726175E1,-1.651066589E-1,4.535119171E0,8.119116211E-1,4.610180754E0
1.040727075E1,-3.715274048E-1,4.291875000E0,9.246272278E-1,4.406036670E0
1.041727875E1,-5.394781494E-1,4.152963867E0,1.301393738E0,4.385404339E0
1.042728775E1,-6.867718506E-1,4.231550446E0,1.784439240E0,4.643479100E0
1.043729575E1,-7.426057434E-1,4.623585205E0,2.431842957E0,5.276633738E0
1.044730475E1,-6.313870239E-1,5.271138611E0,3.249742126E0,6.224498029E0
1.045731275E1,-4.809498596E-1,6.051316223E0,4.501888275E0,7.557561700E0
1.046732175E1,-2.971321106E-1,6.924001465E0,6.114933929E0,9.242429374E0
1.047732975E1,-1.481918335E-2,8.005652161E0,8.100854187E0,1.138922845E1
1.048733775E1,7.298822021E-1,9.243577881E0,9.980944519E0,1.362335177E1
1.049734675E1,2.231110382E0,1.012524445E1,1.133323242E1,1.536035760E1
1.050735475E1,3.738026733E0,1.074974579E1,1.202778809E1,1.655891194E1
1.051736375E1,4.468956757E0,1.108998825E1,1.225621307E1,1.712232965E1
1.052737175E1,4.433779907E0,1.116168915E1,1.205173828E1,1.701429118E1
1.053738075E1,3.748205566E0,1.080333435E1,1.103280716E1,1.588974235E1
1.054738875E1,2.792592773E0,9.901759186E0,9.641151123E0,1.409947532E1
1.055739675E1,2.113155670E0,8.738079071E0,8.005652161E0,1.203785360E1
1.056740575E1,1.692081299E0,7.625891876E0,6.347699890E0,1.006531966E1
1.057741375E1,1.479972382E0,6.793023834E0,4.912484436E0,8.512813542E0
1.058742275E1,1.512155457E0,6.350843353E0,3.337459717E0,7.332016284E0
1.059743075E1,1.960473175E0,6.568939819E0,1.302740936E0,6.977933746E0
1.060743975E1,3.176843719E0,7.650889893E0,-7.080276489E-1,8.314430547E0
1.061744775E1,5.086422729E0,9.575737152E0,-1.189127197E0,1.090781654E1
1.062745575E1,7.054530029E0,1.240754837E1,9.425898743E-1,1.430391996E1
1.063746538E1,8.479416962E0,1.530103134E1,4.816234589E0,1.814437069E1
1.064747338E1,7.744295654E0,1.636262375E1,6.334527283E0,1.917904604E1
1.065748237E1,5.045408020E0,1.478640152E1,4.725373535E0,1.632246817E1
1.066749038E1,2.075284424E0,1.135478760E1,2.708467712E0,1.185638242E1
1.067749938E1,-6.465055847E-1,7.676786041E0,4.246669006E-1,7.715656509E0
1.068750737E1,-2.312391357E0,5.248236237E0,-2.109862518E0,6.110863869E0
1.069751638E1,-2.921325073E0,4.683161316E0,-2.611170044E0,6.106091147E0
1.070752438E1,-3.638334045E0,5.398823090E0,-7.167095947E-1,6.549689918E0
1.071753237E1,-4.248614960E0,7.766599274E0,2.073637848E0,9.092346632E0
1.072754138E1,-3.513643341E0,1.118459152E1,4.623585205E0,1.260231396E1
1.073754938E1,-2.727328491E-1,1.268043091E1,4.036805420E0,1.331027833E1
1.074755838E1,2.052232361E0,1.176568314E1,7.047344971E-1,1.196409662E1
1.075756638E1,2.485132141E0,1.079375427E1,-2.452949066E0,1.134451287E1
1.076757538E1,3.082689514E0,9.501341858E0,-4.549489288E0,1.097617076E1
1.077758338E1,3.958817596E0,8.461604004E0,-5.746100922E0,1.096761847E1
1.078759138E1,5.017266541E0,7.714208221E0,-5.384902039E0,1.066204211E1
1.079760038E1,6.662046204E0,7.362439728E0,-2.512674866E0,1.024216351E1
1.080760838E1,8.185278625E0,7.474855957E0,1.752405853E0,1.122244109E1
1.081761737E1,8.501870270E0,7.364235992E0,3.471281433E0,1.177130259E1
1.082762538E1,7.901169434E0,7.353009338E0,3.347638550E0,1.130052692E1
1.083763438E1,6.980883179E0,7.859555969E0,2.777025146E0,1.087277419E1
1.084764237E1,5.752986603E0,9.060508575E0,2.428250427E0,1.100391161E1
1.085765038E1,3.866759033E0,1.015129028E1,1.732646942E0,1.100011751E1
1.086765938E1,2.693049774E0,1.060814026E1,3.475772095E-1,1.095015830E1
1.087766737E1,2.189347229E0,1.099164276E1,-1.250649261E0,1.127712621E1
1.088767638E1,2.022294617E0,1.103460342E1,-2.519859924E0,1.149790600E1
1.089768438E1,2.189496918E0,1.063777863E1,-3.212769012E0,1.132599292E1
1.090769338E1,2.326312408E0,1.015817596E1,-3.170407104E0,1.089273839E1
1.091770138E1,2.345322876E0,9.629924469E0,-2.425256653E0,1.020381568E1
1.092771038E1,2.413730621E0,8.924441528E0,-1.250649261E0,9.329301993E0
1.093771838E1,2.522853699E0,8.184979248E0,2.125579834E-2,8.564994331E0
1.094772637E1,2.694995728E0,7.674540710E0,1.229094086E0,8.226314446E0
1.095773538E1,2.933300171E0,7.365134125E0,2.306104431E0,8.256365315E0
1.096774338E1,3.258124695E0,7.349865875E0,2.251318359E0,8.348912460E0
1.097775237E1,3.532354431E0,7.911348267E0,5.625302124E-1,8.682361399E0
1.098776038E1,3.740421753E0,8.538843384E0,-7.304809570E-1,9.350732787E0
1.099776938E1,3.901037750E0,8.976682892E0,-1.151555328E0,9.855202227E0
1.100777737E1,3.982169037E0,9.160800018E0,-9.566606140E-1,1.003459649E1
1.101778637E1,4.052822113E0,8.957522736E0,-6.110293579E-1,9.850682084E0
1.102779438E1,4.075574799E0,8.641978912E0,-3.849993896E-1,9.562548509E0
1.103780237E1,3.968547363E0,8.300389252E0,-3.285667419E-1,9.206181945E0
1.104781137E1,3.746708679E0,8.056097260E0,-3.305126953E-1,8.890881150E0
1.105781938E1,3.454067230E0,7.927963715E0,-2.197430420E-1,8.650518834E0
1.106782838E1,3.171155548E0,8.003107452E0,-2.559677124E-2,8.608519710E0
1.107783637E1,2.965483246E0,8.184679871E0,1.555265808E-1,8.706736701E0
1.108784538E1,2.889291687E0,8.406817932E0,2.549198914E-1,8.893119720E0
1.109785338E1,2.921774139E0,8.565038910E0,1.969903564E-1,9.051820858E0
1.110786137E1,3.001707916E0,8.655450897E0,6.735992432E-2,9.161420087E0
1.111787038E1,3.057092743E0,8.763975220E0,1.869612122E-1,9.283750976E0
1.112787838E1,3.148103485E0,8.916957092E0,4.275109863E-1,9.466015264E0
1.113788737E1,3.328927460E0,9.148525543E0,6.143225098E-1,9.754725511E0
1.114789538E1,3.941004639E0,9.247918854E0,5.243595886E-1,1.006630387E1
1.115790438E1,4.888234863E0,9.198970642E0,1.344204712E-1,1.041796380E1
1.116791238E1,5.521717529E0,9.359436951E0,-5.275030518E-1,1.087964540E1
1.117792137E1,5.942193146E0,9.560169525E0,-7.726931763E-1,1.128288773E1
1.118792938E1,6.349795532E0,9.545799408E0,4.999603271E-2,1.146493302E1
1.119793738E1,6.759643250E0,9.303902435E0,1.230890350E0,1.156591840E1
1.120794637E1,6.901099091E0,8.961414642E0,1.525328064E0,1.141309541E1
1.121795438E1,6.706503754E0,9.128317566E0,5.882766724E-2,1.132726070E1
1.122796338E1,6.893015900E0,9.449699249E0,-1.397643585E0,1.177980864E1
1.123797137E1,7.505093079E0,9.743987274E0,-1.494641876E0,1.238974029E1
1.124798038E1,8.306376801E0,1.065738785E1,-9.460327148E-1,1.354513895E1
1.125798838E1,8.842412109E0,1.190938431E1,-4.839436340E-1,1.484102045E1
1.126799738E1,8.761131134E0,1.298235306E1,-2.821632385E-1,1.566456274E1
1.127800538E1,8.280330963E0,1.376283005E1,-1.553768921E-1,1.606248778E1
1.128801338E1,7.290289764E0,1.379082184E1,-3.103047180E-1,1.560228768E1
1.129802238E1,6.217470703E0,1.308354263E1,-7.000941467E-1,1.450262602E1
1.130803038E1,5.286556549E0,1.239332794E1,-7.005432129E-2,1.347394394E1
1.131803938E1,4.098926239E0,1.191851532E1,7.861651611E-1,1.262815344E1
1.132804738E1,2.506238251E0,1.137469620E1,3.185375977E-1,1.165188440E1
1.133805637E1,1.091679840E0,1.121063736E1,-1.054407349E0,1.131290987E1
1.134806438E1,7.406597900E-1,1.162752045E1,-7.696994019E-1,1.167648260E1
1.135807338E1,7.081773376E-1,1.213421677E1,-2.070195007E-1,1.215662736E1
1.136808137E1,9.490264893E-1,1.263821869E1,-1.227447510E-2,1.267380659E1
1.137808938E1,1.145118713E0,1.295870224E1,-4.670288086E-2,1.300928291E1
1.138809838E1,1.169667664E0,1.306438248E1,-2.418969727E-1,1.311886909E1
1.139810637E1,1.114582214E0,1.313129333E1,-4.962181091E-1,1.318785011E1
1.140811538E1,9.361532593E-1,1.323472824E1,-7.738906860E-1,1.329034692E1
1.141812338E1,6.703060913E-1,1.350835922E1,-1.426084442E0,1.359995573E1
1.142813238E1,6.976991272E-1,1.384725449E1,-2.212249603E0,1.404020260E1
1.143814038E1,1.226848755E0,1.370370300E1,-2.497406616E0,1.398333557E1
1.144814938E1,2.059267731E0,1.303998322E1,-1.863474884E0,1.333245231E1
1.145815738E1,2.493664398E0,1.214454529E1,-1.355581055E0,1.247180590E1
1.146816538E1,2.557581482E0,1.130748596E1,-5.819897461E-1,1.160772044E1
1.147817438E1,2.557282104E0,1.028346542E1,9.271719360E-1,1.063715191E1
1.148818238E1,2.813100128E0,9.005123749E0,2.723436584E0,9.819515919E0
1.149819137E1,3.173251190E0,8.041278076E0,3.669918365E0,9.391484282E0
1.150819938E1,3.589535522E0,7.285350037E0,3.944746857E0,9.028959973E0
1.151820838E1,3.971990204E0,6.746171265E0,3.491788788E0,8.572054704E0
1.152821637E1,4.177363129E0,6.356830902E0,2.371967468E0,7.967803430E0
1.153822538E1,4.238885193E0,5.919590149E0,1.419947205E0,7.417947511E0
1.154823338E1,3.914659424E0,5.489384766E0,9.720785522E-1,6.811963023E0
1.155824137E1,3.745960236E0,4.627626801E0,6.376739502E-1,5.987802264E0
1.156825038E1,3.523672485E0,4.054768066E0,6.496490479E-1,5.411049412E0
1.157825838E1,3.135230255E0,3.860771484E0,3.228785706E-1,4.983921727E0
1.158826738E1,2.466570740E0,3.904779968E0,5.912704468E-2,4.618958088E0
1.159827538E1,1.733395386E0,4.051923981E0,-1.172062683E-1,4.408682889E0
1.160828438E1,1.138382721E0,4.047283630E0,-2.137554932E-1,4.209763819E0
1.161829238E1,6.812333679E-1,4.035458221E0,-2.209405518E-1,4.098513961E0
1.162830137E1,3.417393494E-1,3.948339386E0,1.257385254E-2,3.963120966E0
1.163830492E1,1.721420288E-1,3.896696777E0,2.341131592E-1,3.907516810E0
1.164831292E1,4.760101318E-2,3.908372498E0,6.524931335E-1,3.962750147E0
1.165832192E1,-2.454895020E-1,3.849245453E0,1.750310211E0,4.235627638E0
1.166832992E1,-4.674778748E-1,4.032165070E0,2.977308655E0,5.034010085E0
1.167833892E1,-5.345384216E-1,4.662055206E0,4.530478821E0,6.522708672E0
1.168834692E1,-3.912863159E-1,5.811814270E0,6.853198700E0,8.994254973E0
1.169835592E1,4.137396240E-1,7.628735962E0,9.902807007E0,1.250737300E1
1.170836392E1,2.472707977E0,9.256600800E0,1.246862137E1,1.572467685E1
1.171837292E1,4.863685913E0,1.056547897E1,1.339384735E1,1.773922020E1
1.172838092E1,6.067632294E0,1.161883850E1,1.300106415E1,1.846188611E1
1.173838892E1,5.322481842E0,1.252041367E1,1.178140045E1,1.799697108E1
1.174839792E1,3.826492767E0,1.258687546E1,1.075214081E1,1.699058600E1
1.175840592E1,2.198927307E0,1.158860138E1,9.912237396E0,1.540725198E1
1.176841492E1,1.254840546E0,9.840237122E0,8.554710388E0,1.309915880E1
1.177842292E1,9.373507690E-1,7.886949005E0,7.188202057E0,1.071227520E1
1.178843192E1,8.738827515E-1,6.157894592E0,5.624703369E0,8.385739375E0
1.179843992E1,9.602531433E-1,5.125192108E0,3.161276093E0,6.097814918E0
1.180844892E1,1.150806885E0,5.020859070E0,3.682342529E-1,5.164201657E0
1.181845692E1,1.501976624E0,5.844296722E0,-1.469943237E0,6.210673963E0
1.182846492E1,2.376607819E0,7.509134674E0,-1.201850739E0,7.967422009E0
1.183847392E1,4.052822113E0,9.627679138E0,1.436113586E0,1.054419247E1
1.184848192E1,5.721102905E0,1.240215958E1,4.172573090E0,1.428127959E1
1.185849092E1,6.706354065E0,1.562136520E1,5.416785736E0,1.784219166E1
1.186849892E1,7.147337036E0,1.831710938E1,6.077212372E0,2.057992791E1
1.187850792E1,6.677164764E0,1.983914429E1,6.421945496E0,2.189560594E1
1.188851592E1,3.660937042E0,1.698368225E1,4.412973175E0,1.792546387E1
1.189852492E1,3.595523071E-1,1.067280579E1,5.150788879E-1,1.069127530E1
1.190853292E1,-1.174457703E0,6.072122955E0,-1.748364258E0,6.427037082E0
1.191854092E1,-1.932780762E0,4.148922272E0,-1.423240356E0,4.793204628E0
1.192854992E1,-2.625989227E0,3.277284851E0,9.535171509E-2,4.200655588E0
1.193855792E1,-3.335962830E0,3.345842285E0,1.795366516E0,5.054369350E0
1.194856692E1,-2.844235382E0,5.307812347E0,2.614163818E0,6.564784787E0
1.195857492E1,4.586462402E-1,7.199428711E0,2.580184479E0,7.661558724E0
1.196858392E1,2.896327057E0,7.805967407E0,9.954299927E-1,8.385267942E0
1.197859192E1,3.352428589E0,8.267906799E0,-1.623972931E0,9.068315630E0
1.198860092E1,4.102668457E0,8.743467865E0,-4.181404724E0,1.052446028E1
1.199860892E1,5.052293701E0,9.306297455E0,-5.794001312E0,1.207076200E1
1.200861692E1,6.038892059E0,9.660760345E0,-5.851332092E0,1.280767719E1
1.201862592E1,7.094646606E0,1.003827530E1,-3.750600586E0,1.285176977E1
1.202863392E1,8.647667084E0,1.046743286E1,1.983824615E0,1.372169293E1
1.203864292E1,9.354048157E0,1.081216599E1,5.332211609E0,1.525888695E1
1.204865092E1,8.381520538E0,1.018691620E1,4.756658478E0,1.402315756E1
1.205865992E1,6.783443756E0,9.390272827E0,3.808081055E0,1.219400731E1
1.206866792E1,4.383334808E0,9.209448853E0,2.845732269E0,1.058894538E1
1.207867692E1,2.352507935E0,9.452094269E0,2.293081512E0,1.000672786E1
1.208868492E1,1.614392853E0,9.630223846E0,1.217568054E0,9.840220911E0
1.209869392E1,1.693578186E0,1.006581802E1,-1.062789917E0,1.026247641E1
1.210870192E1,1.998344421E0,1.046413971E1,-3.359164581E0,1.117029932E1
1.211870992E1,2.394720154E0,1.029094986E1,-4.462819519E0,1.146974680E1
1.212871892E1,2.759062500E0,9.579329681E0,-4.250261536E0,1.083700633E1
1.213872692E1,2.776725769E0,8.861272888E0,-2.899620209E0,9.728317457E0
1.214873592E1,2.567011871E0,8.428073730E0,-1.134191437E0,8.883038161E0
1.215874392E1,2.347119141E0,8.076155548E0,7.520361328E-1,8.443862567E0
1.216875292E1,2.235601044E0,7.792645111E0,2.858006744E0,8.596012588E0
1.217876092E1,2.312091980E0,7.647596741E0,4.102369080E0,8.981143429E0
1.218876992E1,2.776426392E0,7.909851379E0,1.873803406E0,8.589844676E0
1.219877792E1,3.258723450E0,8.458310852E0,-5.611830139E-1,9.081697384E0
1.220878592E1,3.557202759E0,8.944799194E0,-1.566941528E0,9.752867776E0
1.221879492E1,3.602259064E0,9.169182587E0,-1.491797791E0,9.963716190E0
1.222880292E1,3.474424896E0,9.090446320E0,-7.786807251E-1,9.762898459E0
1.223881192E1,3.263663177E0,8.760083313E0,2.219883728E-1,9.350927003E0
1.224881992E1,3.069067841E0,8.383915558E0,9.584568787E-1,8.979301592E0
1.225882892E1,2.925216980E0,8.103398895E0,9.990225220E-1,8.672947252E0
1.226883692E1,2.882555695E0,8.055797882E0,5.102888489E-1,8.571196040E0
1.227884592E1,2.846929779E0,8.158933411E0,-3.517684937E-2,8.641437437E0
1.228885392E1,2.797981567E0,8.257129211E0,-3.658392334E-1,8.725979716E0
1.229886292E1,2.777174835E0,8.346643066E0,-4.715194702E-1,8.809170287E0
1.230887092E1,2.733615417E0,8.435558167E0,-3.360511780E-1,8.873794297E0
1.231887892E1,2.680625610E0,8.511450348E0,4.834945679E-2,8.923725587E0
1.232888792E1,2.689606934E0,8.649762726E0,6.318360901E-1,9.080286202E0
1.233889592E1,2.845732269E0,8.888067169E0,1.011596375E0,9.387185807E0
1.234890492E1,3.254831543E0,9.226213989E0,1.110091553E0,9.846281339E0
1.235891292E1,4.225712585E0,9.364226990E0,1.097368011E0,1.033197031E1
1.236892192E1,5.326074371E0,9.372010803E0,6.089337158E-1,1.079687246E1
1.237892992E1,5.861959991E0,9.542206879E0,-1.270857239E-1,1.119966240E1
1.238893892E1,6.219266968E0,9.788594513E0,-6.307882690E-1,1.161437721E1
1.239894692E1,6.645131378E0,9.885143738E0,-3.001258850E-1,1.191486103E1
1.240895592E1,7.120093689E0,9.779912567E0,1.096469879E0,1.214679670E1
1.241896392E1,7.557633820E0,9.471404114E0,2.143991547E0,1.230536568E1
1.242897192E1,7.808512115E0,9.544302521E0,4.495152283E-1,1.233971783E1
1.243898092E1,8.139773254E0,1.018182678E1,-1.724114685E0,1.314907132E1
1.244898892E1,8.480015717E0,1.105151825E1,-1.835183716E0,1.405043136E1
1.245899792E1,8.638386383E0,1.204290665E1,-9.056167603E-1,1.484834878E1
1.246900592E1,8.630901947E0,1.293505142E1,-1.161584473E-1,1.555061145E1
1.247901492E1,8.309520264E0,1.370190674E1,3.272195435E-1,1.602802071E1
1.248902292E1,7.459737396E0,1.379291748E1,1.029858398E-1,1.568129015E1
1.249903192E1,6.508315887E0,1.301393738E1,-3.146456909E-1,1.455402843E1
1.250903992E1,5.537883911E0,1.232791397E1,-1.107696533E-1,1.351509863E1
1.251904892E1,4.216880951E0,1.189142166E1,8.590635681E-1,1.264618457E1
1.252905692E1,2.466421051E0,1.132290390E1,9.771679688E-1,1.162954181E1
1.253906492E1,6.373745728E-1,1.088326813E1,-6.819818115E-1,1.092322620E1
1.254907392E1,9.475296021E-2,1.122231308E1,-9.614506531E-1,1.126382157E1
1.255908192E1,4.251159668E-2,1.174577454E1,-1.695973206E-1,1.174707580E1
1.256909092E1,2.818638611E-1,1.218002151E1,4.414320374E-1,1.219127695E1
1.257909892E1,5.376818848E-1,1.250304977E1,6.879693604E-1,1.253350140E1
1.258910792E1,6.694079590E-1,1.271605682E1,7.499404907E-1,1.275572887E1
1.259911592E1,6.737489319E-1,1.285841080E1,6.469546509E-1,1.289229290E1
1.260912492E1,4.499642944E-1,1.315030380E1,3.200344849E-1,1.316189120E1
1.261913292E1,1.642085266E-1,1.358679611E1,-4.945715332E-1,1.359678617E1
1.262914092E1,-2.305206299E-2,1.420590866E1,-1.957629089E0,1.434017726E1
1.263915025E1,3.975732422E-1,1.440230026E1,-2.942580872E0,1.470520654E1
1.264915825E1,1.473535767E0,1.373334137E1,-3.367247772E0,1.421669196E1
1.265916725E1,1.731150055E0,1.270258484E1,-3.272794189E0,1.323116487E1
1.266917525E1,1.537752228E0,1.146615601E1,-1.723216553E0,1.169644778E1
1.267918425E1,1.731748810E0,1.022418869E1,4.132905579E-1,1.037804401E1
1.268919225E1,2.262994080E0,8.889564056E0,2.872227173E0,9.612241167E0
1.269920125E1,2.959346008E0,7.803422699E0,4.798571320E0,9.626911308E0
1.270920925E1,3.665727081E0,7.024143219E0,5.263055420E0,9.511881799E0
1.271921825E1,4.126918030E0,6.472540283E0,4.093687134E0,8.699626687E0
1.272922625E1,4.356241150E0,6.105653229E0,2.166295166E0,7.806963113E0
1.273923425E1,4.455185394E0,5.661975861E0,7.569758606E-1,7.244284644E0
1.274924325E1,4.305496674E0,5.068460083E0,1.954934692E-1,6.653180211E0
1.275925125E1,4.102967834E0,4.231999512E0,5.813909912E-1,5.923021223E0
1.276926025E1,3.746708679E0,3.781735840E0,9.220825195E-1,5.402738941E0
1.277926825E1,3.310815125E0,3.843706970E0,7.668553162E-1,5.130657574E0
1.278927725E1,2.692301331E0,4.254901886E0,3.153941345E-1,5.045012386E0
1.279928525E1,2.046394501E0,4.615951080E0,-4.445755005E-2,5.049426829E0
1.280929425E1,1.479074249E0,4.798571320E0,-2.619552612E-1,5.028177394E0
1.281930225E1,9.774673462E-1,4.901108093E0,-3.601510620E-1,5.010589959E0
1.282931125E1,5.975573730E-1,4.959486694E0,-3.336561584E-1,5.006486744E0
1.283931925E1,2.917433167E-1,5.037773895E0,-1.977388000E-1,5.050087189E0
1.284932725E1,3.173400879E-2,5.033283234E0,3.927832031E-1,5.048685552E0
1.285933625E1,-2.130070496E-1,5.046156464E0,1.352736969E0,5.228667552E0
1.286934425E1,-4.424798584E-1,5.189707947E0,2.684667206E0,5.859717997E0
1.287935325E1,-5.866300964E-1,5.519172821E0,4.305197296E0,7.024252790E0
1.288936125E1,-6.262976074E-1,6.263724518E0,6.037993927E0,8.722606502E0
1.289937025E1,-4.550537109E-1,7.582033081E0,7.587272186E0,1.073596753E1
1.290937825E1,1.481918335E-1,9.334438934E0,9.097481689E0,1.303525543E1
1.291938725E1,1.655706940E0,1.091859467E1,1.041893372E1,1.518259710E1
1.292939525E1,3.440744934E0,1.225336899E1,1.114686996E1,1.691852497E1
1.293940425E1,4.429888000E0,1.303399567E1,1.162093414E1,1.801541177E1
1.294941225E1,4.257745972E0,1.294657745E1,1.136676270E1,1.774670569E1
1.295942025E1,3.332819366E0,1.193123886E1,1.021805145E1,1.605835363E1
1.296942925E1,2.294578400E0,1.036250107E1,8.754395142E0,1.375812315E1
1.297943725E1,1.942061462E0,8.696914673E0,7.013066254E0,1.133979832E1
1.298944625E1,2.211201782E0,7.189100189E0,5.337301025E0,9.222762986E0
1.299945425E1,2.788401489E0,6.099515991E0,4.123325500E0,7.872807084E0
1.300946325E1,3.281925201E0,5.370382233E0,3.091970215E0,7.012297638E0
1.301947125E1,3.441343689E0,4.877606964E0,2.149530029E0,6.344633593E0
1.302948025E1,3.173999634E0,4.438569946E0,1.820963287E0,5.752485040E0
1.303948825E1,2.890638885E0,4.594994659E0,2.796334991E0,6.106493140E0
1.304949725E1,3.307222595E0,6.134393463E0,4.734654236E0,8.425286653E0
1.305950525E1,4.426744537E0,8.796158295E0,6.545438690E0,1.182418012E1
1.306951425E1,5.381010132E0,1.178379547E1,6.804549866E0,1.463266909E1
1.307952225E1,5.929619293E0,1.431503174E1,4.715045013E0,1.619605409E1
1.308953025E1,6.096971283E0,1.628059433E1,2.638862457E0,1.758392464E1
1.309953925E1,5.675148468E0,1.803509583E1,1.888622589E0,1.900102331E1
1.310954725E1,3.080893250E0,1.767359756E1,6.706054688E-2,1.794024669E1
1.311955625E1,-7.334747314E-1,1.298624496E1,-2.184257813E0,1.318906841E1
1.312956425E1,-2.257006531E0,8.910819855E0,-2.440375214E0,9.510637210E0
1.313957325E1,-2.811453552E0,7.067702637E0,-1.342258759E0,7.723881810E0
1.314958125E1,-3.597618713E0,6.022426300E0,7.453001404E-1,7.054640405E0
1.315959025E1,-4.585264893E0,5.760920105E0,4.464615784E0,8.610786764E0
1.316959825E1,-4.035458221E0,6.338868256E0,7.062313843E0,1.031224760E1
1.317960725E1,5.465135193E-1,6.795418854E0,5.216502228E0,8.584188367E0
1.318961525E1,3.167113953E0,7.471712494E0,1.279688873E0,8.215515930E0
1.319962325E1,3.725452881E0,7.949069824E0,-3.228486328E0,9.353600067E0
1.320963225E1,4.831353149E0,8.214168549E0,-7.442223816E0,1.209137021E1
1.321964025E1,6.015839996E0,8.223598938E0,-9.392967224E0,1.385805699E1
1.322964925E1,6.954388275E0,8.142317963E0,-7.920329590E0,1.331887679E1
1.323965725E1,7.812853088E0,8.667126617E0,-1.900897064E0,1.182257023E1
1.324966625E1,8.664731598E0,9.407187653E0,5.021158447E0,1.373989757E1
1.325967425E1,8.186027069E0,9.620194702E0,5.612279205E0,1.382233204E1
1.326968325E1,7.050937500E0,9.751322021E0,4.582720184E0,1.287654166E1
1.327969125E1,5.097649384E0,9.966724091E0,3.655847626E0,1.177653770E1
1.328970025E1,2.642904053E0,9.814790039E0,2.574795685E0,1.048544792E1
1.329970825E1,1.313368835E0,9.529483337E0,1.228944397E0,9.697746888E0
1.330971725E1,8.951385498E-1,9.538165283E0,-9.367520142E-1,9.625766168E0
1.331972525E1,9.976753235E-1,9.830806732E0,-3.328179016E0,1.042673931E1
1.332973325E1,1.282532959E0,1.026475433E1,-4.719236298E0,1.137019189E1
1.333974225E1,1.531315613E0,1.045545776E1,-4.844675446E0,1.162464643E1
1.334975025E1,1.717378693E0,1.016595978E1,-3.882775726E0,1.101689952E1
1.335975925E1,1.724563751E0,9.723330231E0,-1.908531189E0,1.005782095E1
1.336976725E1,1.717079315E0,9.295070801E0,3.634442139E-1,9.459323140E0
1.337977625E1,1.934277649E0,8.758137360E0,2.165247345E0,9.226846487E0
1.338978425E1,2.310295715E0,8.242310028E0,2.827470245E0,9.014861556E0
1.339979325E1,2.863545227E0,7.921078033E0,2.285447388E0,8.727350013E0
1.340980125E1,3.404969330E0,7.986941071E0,7.262896729E-1,8.712780296E0
1.341981025E1,3.685785370E0,8.356821899E0,-6.246510315E-1,9.154871652E0
1.342981825E1,3.785328369E0,8.769663391E0,-1.091230774E0,9.613869744E0
1.343982625E1,3.865561523E0,8.979377289E0,-8.367599487E-1,9.811827027E0
1.344983525E1,3.970343628E0,8.972042542E0,-2.417472839E-1,9.814255837E0
1.345984325E1,4.034410400E0,8.818761292E0,8.547225952E-2,9.698160831E0
1.346985225E1,3.951333160E0,8.617879028E0,-2.544708252E-3,9.480552683E0
1.347986025E1,3.691623230E0,8.458909607E0,-1.613644409E-1,9.230778531E0
1.348986925E1,3.357967072E0,8.328680420E0,-1.896556091E-1,8.982139480E0
1.349987725E1,3.082539825E0,8.232879639E0,-9.490264893E-2,8.791550798E0
1.350988625E1,2.916834412E0,8.267008667E0,3.472778320E-2,8.766559263E0
1.351989425E1,2.799927521E0,8.474327545E0,1.338217163E-1,8.925902179E0
1.352990325E1,2.711461487E0,8.814270630E0,2.838098145E-1,9.226263498E0
1.353991125E1,2.660267944E0,9.167236633E0,5.367837524E-1,9.560512006E0
1.354992025E1,2.634970551E0,9.287137299E0,8.758287048E-1,9.693351584E0
1.355992825E1,2.659220123E0,9.219028931E0,1.000968475E0,9.646962422E0
1.356993625E1,2.758912811E0,9.064400482E0,8.171507263E-1,9.510136240E0
1.357994525E1,2.867137756E0,8.908724213E0,4.502636719E-1,9.369556200E0
1.358995325E1,3.101101227E0,8.703051910E0,-2.769241333E-2,9.239085899E0
1.359996225E1,3.636238403E0,8.431366882E0,-4.514611816E-1,9.193149320E0
1.360997025E1,4.467010803E0,8.255482635E0,-8.614585876E-1,9.425990132E0
1.361997925E1,5.071603546E0,8.410260773E0,-9.464817810E-1,9.866583834E0
1.362998725E1,5.486091614E0,8.672365723E0,-1.532812500E-1,1.026307086E1
1.363999638E1,5.935457153E0,8.798104248E0,1.291813660E0,1.069135504E1
1.365000438E1,6.223458252E0,8.972940674E0,1.950294342E0,1.109273388E1
1.366001337E1,6.024521942E0,9.267827454E0,9.253756714E-1,1.109251146E1
1.367002138E1,5.604495392E0,9.490863647E0,-1.185534668E-1,1.102274541E1
1.368003038E1,5.536985779E0,9.432934113E0,-2.697390747E-1,1.094126211E1
1.369003837E1,5.728437653E0,9.363628235E0,1.002914429E-2,1.097691360E1
1.370004738E1,6.083948364E0,9.872869263E0,2.484832764E-2,1.159692169E1
1.371005538E1,6.747219086E0,1.109822113E1,-2.667453003E-1,1.299102116E1
1.372006337E1,7.586374054E0,1.240530304E1,-6.487509155E-1,1.455560004E1
1.373007238E1,8.093070374E0,1.324490707E1,-9.660910034E-1,1.555180643E1
1.374008038E1,8.258326721E0,1.383288437E1,-1.404379578E0,1.617160883E1
1.375008938E1,7.837102661E0,1.401415741E1,-1.690883789E0,1.614545986E1
1.376009737E1,6.490053864E0,1.360535751E1,-1.421444092E0,1.514090669E1
1.377010638E1,4.986280975E0,1.278626083E1,-6.710545349E-1,1.374051594E1
1.378011438E1,3.673061829E0,1.207568848E1,3.582051086E-1,1.262703236E1
1.379012337E1,2.124232635E0,1.157842255E1,9.662406921E-1,1.181125963E1
1.380013138E1,8.650511169E-1,1.134415970E1,1.004411316E-1,1.137753757E1
1.381014038E1,5.162763977E-1,1.155477173E1,-7.288343811E-1,1.158924029E1
1.382014837E1,7.125183105E-1,1.197255295E1,-7.220983887E-1,1.201545390E1
1.383015737E1,8.743318176E-1,1.222223373E1,-3.363505554E-1,1.225808245E1
1.384016538E1,8.620573425E-1,1.245230530E1,-4.340972900E-3,1.248210996E1
1.385017337E1,7.188052368E-1,1.266411484E1,3.185375977E-1,1.268849683E1
1.386018237E1,3.841012573E-1,1.288819885E1,6.427633667E-1,1.290993215E1
1.387019038E1,-1.556762695E-2,1.336435867E1,6.376739502E-1,1.337957223E1
1.388019938E1,-3.938310242E-1,1.418570068E1,-1.252894592E-1,1.419171956E1
1.389020737E1,-4.788542175E-1,1.467682938E1,-1.445993042E0,1.475566053E1
1.390021638E1,5.628295898E-2,1.410322220E1,-3.186423798E0,1.445881533E1
1.391022438E1,7.625143433E-1,1.318473221E1,-4.202660522E0,1.385932708E1
1.392023337E1,7.689509583E-1,1.234497849E1,-4.020788727E0,1.300601866E1
1.393024138E1,9.292675781E-1,1.131062943E1,-2.432890778E0,1.160658579E1
1.394025038E1,1.620380402E0,1.008872040E1,-1.850152588E-1,1.021969386E1
1.395025837E1,2.243833923E0,8.632099457E0,2.996169434E0,9.408770535E0
1.396026737E1,2.872077484E0,7.404951324E0,6.099815369E0,1.001448355E1
1.397027538E1,3.691623230E0,6.593189392E0,7.148085480E0,1.040160346E1
1.398028337E1,4.244723053E0,6.270011444E0,5.791456604E0,9.532664208E0
1.399029237E1,4.555027771E0,6.104006653E0,3.108885040E0,8.226320040E0
1.400030038E1,4.770579529E0,5.781577148E0,8.710386658E-1,7.546109708E0
1.401030938E1,4.855003967E0,5.073100433E0,-1.049317932E-1,7.022707612E0
1.402031737E1,4.504283295E0,4.255500641E0,4.550537109E-2,6.196767257E0
1.403032638E1,3.877087555E0,3.832630005E0,5.496569824E-1,5.479323267E0
1.404033438E1,3.363056488E0,3.750750275E0,4.291575623E-1,5.055932434E0
1.405034338E1,2.669099579E0,3.937412109E0,1.817221069E-1,4.760286715E0
1.406035138E1,1.975591736E0,4.061504059E0,2.395019531E-3,4.516501263E0
1.407036038E1,1.384770355E0,4.019740906E0,-7.454498291E-2,4.252230337E0
1.408036838E1,9.204359436E-1,3.957620087E0,-1.086740112E-1,4.064697912E0
1.409037737E1,6.102809143E-1,3.825444946E0,-2.380050659E-2,3.873891880E0
1.410038538E1,3.823049927E-1,3.768263855E0,2.430944824E-1,3.795400442E0
1.411039438E1,1.233435059E-1,3.924389191E0,7.860154724E-1,4.004230820E0
1.412040237E1,-1.420545959E-1,4.294419708E0,1.516197052E0,4.556432117E0
1.413041038E1,-2.704875183E-1,4.767136688E0,2.339784393E0,5.317268726E0
1.414041938E1,-2.236349487E-1,5.617218933E0,3.725153503E0,6.743880912E0
1.415042737E1,-1.341210938E-1,7.292684784E0,6.845863953E0,1.000335409E1
1.416043638E1,2.597099304E-1,9.436676331E0,1.020712418E1,1.390336986E1
1.417044438E1,1.603615265E0,1.120584732E1,1.187241119E1,1.640416848E1
1.418045338E1,3.348087616E0,1.228210922E1,1.241922409E1,1.778474134E1
1.419046138E1,4.341871033E0,1.251248016E1,1.204185883E1,1.790028960E1
1.420047038E1,4.103716278E0,1.216684891E1,1.116872452E1,1.701802300E1
1.421047838E1,2.977757721E0,1.142304565E1,1.003019211E1,1.549057025E1
1.422048737E1,1.482816467E0,1.000803818E1,9.083410950E0,1.359661455E1
1.423049538E1,4.206253052E-1,8.082891541E0,7.971373444E0,1.136014330E1
1.424050438E1,1.616638184E-2,6.493347015E0,6.076014862E0,8.892793342E0
1.425051237E1,2.017803955E-1,6.012247467E0,3.779191132E0,7.104232579E0
1.426052138E1,6.267466736E-1,6.366111603E0,1.728605347E0,6.626331170E0
1.427052938E1,1.068927155E0,7.086413727E0,-1.924996948E-1,7.169164589E0
1.428053737E1,1.620679779E0,8.508606262E0,-1.346899109E0,8.765678564E0
1.429054638E1,2.189796295E0,1.057041870E1,-9.171427917E-1,1.083374867E1
1.430055438E1,2.819536743E0,1.259795242E1,1.415007477E0,1.298693339E1
1.431056338E1,3.756139069E0,1.441607162E1,4.416416016E0,1.553822487E1
1.432057138E1,4.644541626E0,1.583556976E1,5.913752289E0,1.753024537E1
1.433058038E1,5.421875153E0,1.686078781E1,6.659501495E0,1.892172973E1
1.434058838E1,6.365961914E0,1.748169662E1,7.707921295E0,2.013820346E1
1.435059737E1,6.006858673E0,1.566088303E1,6.653813324E0,1.804491175E1
1.436060538E1,3.914360046E0,1.117321518E1,4.162094879E0,1.254934205E1
1.437061438E1,1.586101685E0,7.216193848E0,1.254690857E0,7.494225867E0
1.438062237E1,-4.236190796E-2,5.081033936E0,-1.156195679E0,5.211092864E0
1.439063138E1,-6.417155457E-1,4.304149475E0,-1.985920258E0,4.783448632E0
1.440063938E1,-8.755293274E-1,3.760180664E0,-1.515298920E0,4.147486112E0
1.441064838E1,-1.218316498E0,3.669918365E0,-2.954855347E-1,3.878131973E0
1.442065638E1,-1.139879608E0,4.341871033E0,1.346450043E0,4.686586957E0
1.443066438E1,1.048419800E0,5.729335785E0,1.793570251E0,6.094371736E0
1.444067338E1,2.965034180E0,7.104975128E0,2.459385681E-1,7.702764766E0
1.445068138E1,3.217109985E0,8.066874847E0,-1.872456207E0,8.884275925E0
1.446069038E1,3.733536072E0,9.198970642E0,-3.658841400E0,1.058052328E1
1.447069838E1,4.411625977E0,1.028526169E1,-4.740342407E0,1.215400748E1
1.448070737E1,5.338348846E0,1.109447891E1,-4.406386871E0,1.307676091E1
1.449071538E1,6.561305695E0,1.173873917E1,-1.401535492E0,1.352083693E1
1.450072438E1,7.353009338E0,1.199231186E1,2.279908905E0,1.425062366E1
1.451073237E1,7.076534271E0,1.163754959E1,2.713706818E0,1.388791210E1
1.452074138E1,6.348598022E0,1.117665802E1,1.807341614E0,1.298032608E1
1.453074938E1,5.537434845E0,1.075618240E1,1.537303162E0,1.219516074E1
1.454075838E1,3.748205566E0,1.025966492E1,1.564396820E0,1.103436027E1
1.455076638E1,1.838776245E0,9.922266541E0,1.639241180E0,1.022348194E1
1.456077538E1,8.556207275E-1,9.770631866E0,1.232387238E0,9.885146038E0
1.457078338E1,4.556524658E-1,9.994266815E0,1.276844788E-1,1.000546309E1
1.458079237E1,4.535568237E-1,1.044123734E1,-1.169817352E0,1.051635029E1
1.459080038E1,6.159690857E-1,1.088760910E1,-2.281405792E0,1.114110687E1
1.460080838E1,8.164022827E-1,1.101978424E1,-2.999911652E0,1.144996189E1
1.461081737E1,9.916877747E-1,1.052985306E1,-3.072660370E0,1.101374105E1
1.462082538E1,1.207987976E0,9.657467194E0,-2.597847748E0,1.007346616E1
1.463083438E1,1.542093201E0,8.869206390E0,-1.904938660E0,9.201612072E0
1.464084237E1,1.976789246E0,8.258626099E0,-1.160386963E0,8.570828353E0
1.465085137E1,2.418520660E0,7.983498230E0,-5.789959717E-1,8.361861187E0
1.466085938E1,2.800077209E0,8.018824768E0,-1.749861145E-1,8.495446026E0
1.467086838E1,3.051254883E0,8.298892365E0,8.277786255E-2,8.842433093E0
1.468087637E1,3.291355591E0,8.763825531E0,2.583627319E-1,9.365063313E0
1.469088538E1,3.507506104E0,9.239685974E0,2.929408264E-1,9.887376310E0
1.470089338E1,3.634442139E0,9.570498047E0,1.546284485E-1,1.023853078E1
1.471090237E1,3.638483734E0,9.659562836E0,-6.436614990E-2,1.032229921E1
1.472091038E1,3.550766144E0,9.558073883E0,-3.718267822E-1,1.020308638E1
1.473091938E1,3.400179291E0,9.367071075E0,-6.533912659E-1,9.986498880E0
1.474092737E1,3.266058197E0,9.054670715E0,-7.063810730E-1,9.651589099E0
1.475093637E1,3.193309479E0,8.774154053E0,-4.885839844E-1,9.349958239E0
1.476094438E1,3.251538391E0,8.562494202E0,-3.457809448E-2,9.159148678E0
1.477095237E1,3.338507538E0,8.450826416E0,6.798861694E-1,9.111769581E0
1.478096137E1,3.377276917E0,8.538693695E0,1.402134247E0,9.288771169E0
1.479096938E1,3.360362091E0,8.915460205E0,1.721719666E0,9.682034015E0
1.480097838E1,3.170257416E0,9.637109528E0,1.329535217E0,1.023191458E1
1.481098637E1,2.701731720E0,1.045860123E1,5.733078003E-1,1.081713343E1
1.482099538E1,2.004331970E0,1.097607513E1,-1.267863464E-1,1.115829946E1
1.483100338E1,1.343156891E0,1.091859467E1,-1.019978943E0,1.104808295E1
1.484101237E1,9.949809265E-1,1.026250900E1,-2.041005707E0,1.051069847E1
1.485102038E1,9.511221313E-1,9.338630219E0,-2.812351685E0,9.799182092E0
1.486102938E1,1.220561829E0,8.466543732E0,-3.127745819E0,9.107959587E0
1.487103738E1,1.742077332E0,8.089178467E0,-3.217858429E0,8.878302460E0
1.488104637E1,2.345173187E0,8.323441315E0,-3.149300995E0,9.203130411E0
1.489105438E1,2.984194336E0,8.847501526E0,-2.673141174E0,9.712331482E0
1.490106338E1,3.575015717E0,9.320667572E0,-1.787882080E0,1.014160262E1
1.491107137E1,4.148622894E0,9.603878632E0,-7.908055115E-1,1.049146939E1
1.492108038E1,4.684508514E0,9.699978790E0,1.197509766E-3,1.077191766E1
1.493108838E1,5.016069031E0,9.690249023E0,4.785548401E-1,1.092203687E1
1.494109637E1,5.095404053E0,9.759704590E0,4.336482239E-1,1.101830418E1
1.495110538E1,5.014871521E0,1.014679962E1,6.137237549E-3,1.131841493E1
1.496111338E1,4.798122253E0,1.097772171E1,-6.503974915E-1,1.199814019E1
1.497112238E1,4.573738861E0,1.186747147E1,-1.371148682E0,1.279202935E1
1.498113038E1,4.354145508E0,1.238030502E1,-2.050885162E0,1.328294642E1
1.499113938E1,3.992796936E0,1.245035934E1,-2.224224701E0,1.326276935E1
1.500114738E1,3.339106293E0,1.207703568E1,-2.183359680E0,1.271894182E1
1.501115637E1,2.642454987E0,1.149489624E1,-2.101030884E0,1.198038141E1
1.502116438E1,1.967209167E0,1.106454117E1,-1.850601654E0,1.138941217E1
1.503117338E1,1.257684631E0,1.081141754E1,-1.486858063E0,1.098541154E1
1.504118137E1,6.381230164E-1,1.052311707E1,-1.138682098E0,1.060376304E1
1.505119038E1,1.282832336E-1,1.014455429E1,-8.184979248E-1,1.017832880E1
1.506119838E1,-2.362088013E-1,9.742640076E0,-5.189707947E-1,9.759311499E0
1.507120738E1,-5.137316895E-1,9.404792633E0,-2.823129272E-1,9.423043315E0
1.508121538E1,-7.141648865E-1,9.215436401E0,-2.121089172E-1,9.245501054E0
1.509122438E1,-7.544311523E-1,9.144034882E0,-3.113525391E-1,9.180385650E0
1.510123238E1,-5.370831299E-1,9.142238617E0,-6.270460510E-1,9.179442901E0
1.511124137E1,2.004331970E-1,9.031319275E0,-8.241860962E-1,9.071063005E0
1.512124938E1,1.125359802E0,8.870553589E0,-8.298742676E-1,8.980080565E0
1.513125738E1,1.541344757E0,8.950187988E0,-9.222322083E-1,9.128642886E0
1.514126637E1,1.683698730E0,9.080566864E0,-1.109941864E0,9.301801273E0
1.515127438E1,1.793719940E0,9.101672974E0,-1.172212372E0,9.350506082E0
1.516128338E1,1.848056946E0,9.143286438E0,-9.029223633E-1,9.371780522E0
1.517129137E1,1.674567719E0,9.335786133E0,-4.023632813E-1,9.493312171E0
1.518130038E1,1.283880157E0,9.593250732E0,4.146377563E-2,9.678870136E0
1.519130838E1,9.297166443E-1,9.805509338E0,5.016069031E-1,9.862251057E0
1.520131738E1,7.072792053E-1,9.988578644E0,1.048270111E0,1.006830757E1
1.521132538E1,6.039939880E-1,1.019889130E1,1.607207794E0,1.034240346E1
1.522133438E1,5.242098999E-1,1.035262161E1,2.001487885E0,1.055734455E1
1.523134238E1,3.881428528E-1,1.045800247E1,2.147434387E0,1.068325536E1
1.524135137E1,2.796185303E-1,1.043060944E1,2.035467224E0,1.063103601E1
1.525135938E1,3.180885315E-1,1.022493713E1,1.651066589E0,1.036226522E1
1.526136838E1,4.549040222E-1,9.868079224E0,1.117575989E0,9.941574389E0
1.527137637E1,6.566844177E-1,9.463320923E0,5.511538696E-1,9.502075979E0
1.528138538E1,8.825646973E-1,9.101373596E0,1.101708984E-1,9.144728504E0
1.529139338E1,1.111438751E0,8.828940125E0,-4.730163574E-2,8.898748073E0
1.530140238E1,1.347797241E0,8.677604828E0,7.110214233E-2,8.781938195E0
1.531141038E1,1.547631683E0,8.623417511E0,4.803511047E-1,8.774350721E0
1.532141838E1,1.718875580E0,8.600515137E0,9.336085510E-1,8.820148457E0
1.533142738E1,1.785487061E0,8.607849884E0,1.103505249E0,8.860065886E0
1.534143538E1,1.707499237E0,8.733289032E0,9.252259827E-1,8.946615789E0
1.535144438E1,1.550176392E0,8.848998413E0,6.991960144E-1,9.010920865E0
1.536145238E1,1.341809692E0,8.934470673E0,5.459147644E-1,9.051145915E0
1.537146137E1,1.122066650E0,9.095236359E0,5.279521179E-1,9.179384044E0
1.538146938E1,8.481362915E-1,9.300459595E0,7.979905701E-1,9.373082353E0
1.539147838E1,5.779481506E-1,9.528435516E0,1.231040039E0,9.624996989E0
1.540148637E1,2.740800476E-1,9.770781555E0,1.741478577E0,9.928546707E0
1.541149538E1,-1.076261902E-1,9.937684479E0,2.151625671E0,1.016851264E1
1.542150338E1,-5.116360474E-1,9.991273041E0,2.107916565E0,1.022402175E1
1.543151238E1,-7.352709961E-1,1.000130219E1,1.500629425E0,1.013994859E1
1.544152038E1,-7.050338745E-1,9.947563934E0,5.611830139E-1,9.988294517E0
1.545152938E1,-6.042933655E-1,9.847721558E0,7.634124756E-3,9.866247951E0
1.546153738E1,-6.316864014E-1,9.763297119E0,-1.302291870E-2,9.783719535E0
1.547154637E1,-8.111631775E-1,9.745334473E0,3.227288818E-1,9.784359132E0
1.548155438E1,-1.139280853E0,9.774823151E0,6.881190491E-1,9.865020847E0
1.549156338E1,-1.513652344E0,9.849817200E0,8.437953186E-1,1.000110158E1
1.550157137E1,-1.927242279E0,9.999505920E0,9.505233765E-1,1.022779918E1
1.551157938E1,-2.334694977E0,1.015473312E1,1.007554779E0,1.046826500E1
1.552158838E1,-2.543211365E0,1.020742355E1,8.622070313E-1,1.055475346E1
1.553159637E1,-2.504292297E0,1.009515701E1,5.899232483E-1,1.041785412E1
1.554160537E1,-2.128423920E0,9.888885956E0,2.200424194E-1,1.011774048E1
1.555161338E1,-1.418600006E0,9.645342407E0,-3.406915283E-1,9.755056476E0
1.556162238E1,-5.060975647E-1,9.352850647E0,-6.306385803E-1,9.387739610E0
1.557163037E1,4.300556946E-1,9.070537720E0,-3.978726196E-1,9.089439204E0
1.558163938E1,1.171463928E0,8.796906738E0,1.889071655E-1,8.876574892E0
1.559164738E1,1.625619507E0,8.611442413E0,1.052461395E0,8.826508608E0
1.560165637E1,1.827250214E0,8.435707855E0,1.928290100E0,8.844111774E0
1.561166438E1,1.813628540E0,8.207133179E0,2.508034515E0,8.771346568E0
1.562167338E1,1.608255615E0,7.966583405E0,2.763253784E0,8.584201113E0
1.563168137E1,1.344953156E0,7.735913086E0,2.714754639E0,8.308016792E0
1.564169367E1,1.119072876E0,7.565267944E0,2.532583466E0,8.056027692E0
1.565170167E1,9.568103027E-1,7.554190979E0,2.541864166E0,8.027599937E0
1.566171067E1,8.922944641E-1,7.641758881E0,2.749632111E0,8.170259784E0
1.567171867E1,9.383985901E-1,7.695646820E0,3.006348267E0,8.315148934E0
1.568172767E1,1.033750305E0,7.809859314E0,3.263214111E0,8.527080892E0
1.569173567E1,1.038240967E0,8.064030762E0,3.411405945E0,8.817268679E0
1.570174467E1,8.940907288E-1,8.536298676E0,3.416195984E0,9.237867087E0
1.571175267E1,6.837780762E-1,9.303603058E0,3.470233612E0,9.953245885E0
1.572176167E1,4.730163574E-1,1.033914963E1,3.592529297E0,1.095573029E1
1.573176967E1,2.968327332E-1,1.163769928E1,3.722159729E0,1.222205495E1
1.574177767E1,1.263372803E-1,1.314401688E1,3.993844757E0,1.373797426E1
1.575178667E1,-1.990859985E-2,1.476634323E1,4.615502014E0,1.547088063E1
1.576179467E1,-1.881587219E-1,1.603899673E1,5.362748108E0,1.691283203E1
1.577180367E1,-5.122348022E-1,1.617775818E1,5.638325043E0,1.713980611E1
1.578181167E1,-8.220904541E-1,1.463835938E1,4.971312103E0,1.548132236E1
1.579182067E1,-8.476872253E-1,1.162976578E1,3.197500763E0,1.209107261E1
1.580182867E1,-1.140178986E0,8.932375031E0,8.357121277E-1,9.043547234E0
1.581183767E1,-1.533710632E0,6.979236603E0,-1.000220032E0,7.215431517E0
1.582184567E1,-1.711989899E0,5.840404816E0,-1.535806274E0,6.276937051E0
1.583185467E1,-1.874551849E0,5.521567841E0,-8.405021667E-1,5.891358073E0
1.584186267E1,-1.905238037E0,6.181994476E0,3.294648743E-1,6.477309224E0
1.585187167E1,-9.571096802E-1,7.626790009E0,1.194665680E0,7.778895221E0
1.586187967E1,6.885681152E-1,9.196725311E0,1.378034363E0,9.324851806E0
1.587188867E1,2.028132477E0,1.046563660E1,8.523275757E-1,1.069435987E1
1.588189667E1,3.045117645E0,1.126557312E1,-3.143463135E-2,1.166991291E1
1.589190567E1,3.886517944E0,1.145148651E1,-8.264314270E-1,1.212124391E1
1.590191367E1,4.542603607E0,1.108879074E1,-1.490749969E0,1.207554815E1
1.591192267E1,5.019661560E0,1.048419800E1,-1.775457916E0,1.175872700E1
1.592193067E1,5.286107483E0,9.925859070E0,-1.437460785E0,1.133719119E1
1.593193967E1,5.386847992E0,9.489217072E0,-1.000070343E0,1.095734971E1
1.594194767E1,5.205125885E0,9.068142700E0,-4.818479919E-1,1.046693484E1
1.595195667E1,4.818030853E0,8.636889496E0,2.447410583E-1,9.892885305E0
1.596196467E1,4.305646362E0,8.210276642E0,1.082698517E0,9.333781078E0
1.597197367E1,3.713178406E0,7.965685272E0,1.681303711E0,8.947995189E0
1.598198167E1,3.101550293E0,8.024363251E0,1.655557251E0,8.760758507E0
1.599198967E1,2.642305298E0,8.314459991E0,1.106499023E0,8.794109524E0
1.600199867E1,2.489772491E0,8.707841949E0,4.878355408E-1,9.069920727E0
1.601200667E1,2.677033081E0,8.994046783E0,1.152603149E-1,9.384703970E0
1.602201567E1,3.011737061E0,9.186995544E0,1.362167358E-2,9.668072859E0
1.603202367E1,3.193908234E0,9.318122864E0,3.951782227E-2,9.850381981E0
1.604203267E1,3.319347382E0,9.323811035E0,4.445755005E-2,9.897145838E0
1.605204067E1,3.382965088E0,9.223669281E0,1.257385254E-2,9.824494180E0
1.606204967E1,3.506458282E0,9.134305115E0,-1.070274353E-1,9.784796088E0
1.607205767E1,3.644770660E0,9.032816162E0,-2.128573608E-1,9.742762916E0
1.608206667E1,3.753294983E0,8.848848724E0,-2.167492676E-1,9.614381271E0
1.609207467E1,3.811074829E0,8.656648407E0,-3.156935120E-1,9.463694595E0
1.610208367E1,3.815864868E0,8.538394318E0,-3.228785706E-1,9.357844452E0
1.611209167E1,3.763174438E0,8.540190582E0,-1.672023010E-1,9.334039514E0
1.612210067E1,3.589984589E0,8.754544830E0,-3.802093506E-2,9.462108123E0
1.613210867E1,3.314108276E0,9.079668732E0,-8.397537231E-2,9.665958297E0
1.614211767E1,2.988684998E0,9.303752747E0,-1.152603149E-1,9.772683261E0
1.615212567E1,2.692001953E0,9.466165009E0,-8.098159790E-2,9.841834814E0
1.616213467E1,2.445614319E0,9.610614624E0,1.649569702E-1,9.918273723E0
1.617214267E1,2.118095398E0,9.826016693E0,5.971083069E-1,1.006943248E1
1.618215167E1,1.656156006E0,1.012374756E1,9.162446594E-1,1.029915635E1
1.619215967E1,1.258433075E0,1.042641815E1,8.574169922E-1,1.053703057E1
1.620216867E1,1.052162018E0,1.058074722E1,3.906875610E-1,1.064010778E1
1.621217667E1,1.103056183E0,1.062146255E1,-2.957849121E-1,1.068268171E1
1.622218567E1,1.346749420E0,1.057910065E1,-1.008153534E0,1.071202493E1
1.623219367E1,1.644180908E0,1.042746597E1,-1.545685730E0,1.066885757E1
1.624220167E1,2.000140686E0,1.009186386E1,-1.973945160E0,1.047581684E1
1.625221067E1,2.305505676E0,9.503587189E0,-2.057321777E0,9.993302696E0
1.626221867E1,2.541564789E0,8.892408142E0,-1.805096283E0,9.422995635E0
1.627222767E1,2.778072968E0,8.330326996E0,-1.338666229E0,8.882795987E0
1.628223567E1,3.070265350E0,7.872578888E0,-7.961943054E-1,8.487517484E0
1.629224467E1,3.456162872E0,7.677833862E0,-2.089654541E-1,8.422461705E0
1.630225267E1,3.883224792E0,7.870782623E0,4.370910645E-2,8.776705782E0
1.631226167E1,4.256997528E0,8.468789062E0,-3.315605164E-1,9.484321194E0
1.632226967E1,4.547842712E0,9.149124298E0,-7.569758606E-1,1.024511402E1
1.633227867E1,4.745431824E0,9.691296844E0,-8.586145020E-1,1.082485919E1
1.634228667E1,4.926106110E0,9.902507629E0,-6.993457031E-1,1.108220480E1
1.635229567E1,5.073399811E0,9.731263733E0,-2.936892700E-1,1.097830282E1
1.636230367E1,5.149142303E0,9.320068817E0,2.456391907E-1,1.065071302E1
1.637231267E1,5.126988373E0,8.864566040E0,6.289920044E-1,1.025973546E1
1.638232067E1,4.997507629E0,8.466843109E0,8.330177307E-1,9.866936367E0
1.639232967E1,4.812791748E0,8.288863220E0,8.647517395E-1,9.623721394E0
1.640233767E1,4.522395630E0,8.502019958E0,8.355624390E-1,9.666155916E0
1.641234667E1,4.246968384E0,9.025780792E0,9.156459045E-1,1.001697893E1
1.642235467E1,4.155807953E0,9.354946289E0,9.503736877E-1,1.028051409E1
1.643236367E1,4.281247101E0,9.285191345E0,8.011340332E-1,1.025600657E1
1.644237167E1,4.525090027E0,8.951086121E0,7.770341492E-1,1.005992866E1
1.645238067E1,4.738097076E0,8.517886963E0,7.427554321E-1,9.775256920E0
1.646238867E1,4.798571320E0,8.188571777E0,1.874102783E-1,9.492845573E0
1.647239767E1,4.762047272E0,8.007448425E0,-4.466711426E-1,9.327156030E0
1.648240567E1,4.705914001E0,7.955207062E0,-5.677693176E-1,9.260308201E0
1.649241467E1,4.612657928E0,8.055498505E0,-4.064048767E-1,9.291546386E0
1.650242267E1,4.749174042E0,8.585097198E0,-7.735913086E-1,9.841594967E0
1.651243167E1,5.194048920E0,9.312584381E0,-1.542093201E0,1.077406253E1
1.652243967E1,5.476661224E0,1.009425888E1,-2.026186523E0,1.166161706E1
1.653244867E1,5.671256561E0,1.100122284E1,-1.819915466E0,1.251008182E1
1.654245667E1,5.938001862E0,1.193318481E1,-9.391470337E-1,1.336198949E1
1.655246567E1,5.948779449E0,1.286978714E1,-3.727249146E-2,1.417817997E1
1.656247367E1,5.628595276E0,1.341210938E1,3.522175598E-1,1.454956425E1
1.657248167E1,5.222938843E0,1.338741074E1,5.875282288E-1,1.438217806E1
1.658249067E1,4.661606140E0,1.312425797E1,1.145717468E0,1.397459794E1
1.659249867E1,3.541784821E0,1.296992889E1,2.424957275E0,1.366176098E1
1.660250767E1,1.790576477E0,1.304896454E1,3.394341431E0,1.360158790E1
1.661251567E1,6.468049622E-1,1.305734711E1,7.415579224E-1,1.309437201E1
1.662252467E1,5.890251160E-1,1.303713913E1,-1.545086975E0,1.314158442E1
1.663253267E1,1.099463654E0,1.276560379E1,-1.882934418E0,1.295047885E1
1.664253888E1,1.463506622E0,1.263522491E1,-1.364562378E0,1.279268505E1
1.665254688E1,1.513951721E0,1.266516266E1,-3.712280273E-1,1.276072902E1
1.666255588E1,1.753753052E0,1.278670990E1,4.977149963E-1,1.291601022E1
1.667256388E1,2.263443146E0,1.293071045E1,9.364526367E-1,1.316067594E1
1.668257288E1,2.625989227E0,1.288445663E1,1.336271210E0,1.321705954E1
1.669258088E1,2.991229706E0,1.278506332E1,5.780978394E-1,1.314303985E1
1.670258987E1,3.596570892E0,1.276515472E1,-5.878276062E-1,1.327516624E1
1.671259788E1,4.299808502E0,1.265124161E1,-1.385818176E0,1.343364282E1
1.672260688E1,4.715045013E0,1.230516129E1,-1.420995026E0,1.325397565E1
1.673261487E1,5.034630432E0,1.143651764E1,-1.633103943E-1,1.249672395E1
1.674262388E1,5.377716980E0,9.927805023E0,9.177415466E-1,1.132799197E1
1.675263188E1,5.499862976E0,8.221353607E0,1.490600281E0,1.000305139E1
1.676264088E1,5.350922699E0,6.857389984E0,2.178569641E0,8.966735014E0
1.677264888E1,5.037324829E0,6.256689148E0,2.292931824E0,8.353342856E0
1.678265788E1,4.395010529E0,6.289620667E0,1.857487335E0,7.894663063E0
1.679266588E1,3.562292175E0,6.586752777E0,1.254840546E0,7.592750653E0
1.680267487E1,2.778372345E0,7.086264038E0,7.009922791E-1,7.643682429E0
1.681268288E1,2.172881470E0,7.610773315E0,1.935475159E-1,7.917243522E0
1.682269188E1,1.707798615E0,7.924670563E0,-7.679031372E-2,8.106964684E0
1.683269987E1,1.405876465E0,8.013435974E0,-2.014810181E-1,8.138319197E0
1.684270888E1,1.277443542E0,7.860753479E0,-2.567161560E-1,7.968011700E0
