"Time (s)","Acceleration x (m/s^2)","Acceleration y (m/s^2)","Acceleration z (m/s^2)","Absolute acceleration (m/s^2)"
0.000000000E0,-1.962419128E0,4.315376129E0,6.495442657E0,8.041413762E0
1.004400000E-2,-1.944306793E0,4.537364502E0,6.585255890E0,8.230042568E0
2.008699998E-2,-1.973645782E0,4.887336731E0,7.249125366E0,8.962765007E0
3.012999997E-2,-2.160457306E0,5.369783478E0,8.659342804E0,1.041567896E1
4.017300007E-2,-2.471510468E0,5.566324768E0,1.058224411E1,1.220967755E1
5.021600006E-2,-1.780697021E0,4.991969147E0,1.155596924E1,1.271342058E1
6.025900005E-2,-9.726773071E-1,4.650678864E0,1.158785294E1,1.252410678E1
7.030200004E-2,-4.529580688E-1,4.258045349E0,1.212074478E1,1.285490472E1
8.034500002E-2,7.634124756E-3,3.934568024E0,1.344773529E1,1.401151199E1
9.038800001E-2,5.950126648E-1,3.216810608E0,1.460258377E1,1.496453686E1
1.004310000E-1,8.110134888E-1,2.676584015E0,1.443972244E1,1.470807360E1
1.104740000E-1,1.292262726E0,2.294428711E0,1.297606613E1,1.324056790E1
1.205170000E-1,6.201603699E-1,1.858984222E0,1.153171967E1,1.169705004E1
1.305610000E-1,-1.604663086E-1,1.740281067E0,1.066816544E1,1.081036916E1
1.406040001E-1,-4.077520752E-1,1.474433899E0,9.866432648E0,9.984323225E0
1.506470001E-1,-5.072950745E-1,7.198530579E-1,8.156239014E0,8.203643798E0
1.606900000E-1,-1.661395111E0,-1.147214355E0,5.980962524E0,6.312546809E0
1.707330000E-1,-1.806742859E0,-1.299747162E0,4.230352936E0,4.780120124E0
1.807760000E-1,-2.520159302E0,-4.426295471E-1,5.054389343E0,5.665154495E0
1.908190000E-1,-2.606529694E0,-3.526666260E-1,4.966821442E0,5.620292343E0
2.008620000E-1,-2.939437408E0,-6.616241455E-1,5.469775543E0,6.244716429E0
2.109050000E-1,-3.993246002E0,-1.249152374E0,7.763156433E0,8.818899767E0
2.209480000E-1,-4.518354034E0,-5.149291992E-1,6.940467224E0,8.297635841E0
2.309910001E-1,-9.915979614E0,1.870659943E0,9.215885468E0,1.366596375E1
2.410340001E-1,-7.651937714E0,3.794160004E0,8.348439331E0,1.194337641E1
2.510770001E-1,-1.376687164E0,4.240831146E0,2.918930054E0,5.329171513E0
2.611210000E-1,2.410587158E0,4.987777863E0,3.067870331E0,6.332510310E0
2.711640000E-1,2.542163544E0,5.452561340E0,3.299139404E0,6.861292988E0
2.812070000E-1,4.076023865E-1,6.320905609E0,4.420457611E0,7.724016631E0
2.912500000E-1,1.711391144E0,4.919070740E0,6.936874695E0,8.674465235E0
3.012930000E-1,3.721710663E0,3.502416687E0,6.392157440E0,8.183992281E0
3.113360000E-1,2.774480438E0,3.594774628E0,6.451583862E0,7.889428411E0
3.213790000E-1,2.379451904E0,3.158132629E0,6.031108246E0,7.211786169E0
3.314220001E-1,2.021097107E0,2.775677948E0,5.167104950E0,6.203885488E0
3.414650001E-1,1.213975525E0,2.716251526E0,4.861739960E0,5.699848626E0
3.515080001E-1,7.074288940E-1,2.465073853E0,5.348377991E0,5.931457820E0
3.615510000E-1,4.845423889E-1,2.050735474E0,6.304739227E0,6.647558502E0
3.715950000E-1,7.551795959E-1,1.853445740E0,7.094796295E0,7.371681749E0
3.816380000E-1,1.057550812E0,1.503024445E0,6.888974304E0,7.129899239E0
3.916810000E-1,9.038204956E-1,1.022224274E0,5.814059601E0,5.972028382E0
4.017240000E-1,6.554869080E-1,7.858657837E-1,4.586462402E0,4.699243076E0
4.117670000E-1,8.184979248E-1,6.761439514E-1,3.627706146E0,3.779862614E0
4.218100000E-1,1.146316223E0,3.971241760E-1,3.053799591E0,3.285945897E0
4.318530001E-1,1.902393951E0,2.043251038E-1,3.011287994E0,3.567731335E0
4.418960001E-1,3.294199677E0,3.411405945E-1,3.234922943E0,4.629563139E0
4.519390000E-1,5.261408844E0,6.176156616E-1,3.721111908E0,6.473835491E0
4.619820000E-1,7.122339020E0,8.149053955E-1,4.934338989E0,8.702843511E0
4.720250000E-1,8.360564117E0,8.644523621E-1,6.480773163E0,1.061351643E1
4.820680000E-1,8.780141602E0,6.330335999E-1,7.523205414E0,1.157973393E1
4.921110000E-1,8.416996765E0,1.805245972E-1,7.561376038E0,1.131604309E1
5.021550000E-1,7.863148499E0,-1.558259583E-1,6.830446014E0,1.041673552E1
5.121980000E-1,7.822732544E0,-1.531315613E-1,5.989045715E0,9.853286878E0
5.222416250E-1,8.192763062E0,-6.571334839E-1,4.952451324E0,9.595830611E0
5.322846250E-1,8.851992188E0,-9.092092896E-1,3.927233276E0,9.726643225E0
5.423276250E-1,9.622589722E0,-5.739065552E-1,3.239712982E0,1.016953007E1
5.523706250E-1,1.003782623E1,-7.011419678E-1,3.587290192E0,1.068261234E1
5.624136251E-1,9.972262573E0,-1.594334564E0,4.476441193E0,1.104655826E1
5.724566251E-1,9.647887115E0,-2.401755524E0,5.172643433E0,1.120742591E1
5.824996250E-1,9.333690491E0,-2.964136047E0,5.462291107E0,1.121340737E1
5.925426250E-1,9.122180328E0,-3.527714081E0,5.118755493E0,1.103904880E1
6.025856250E-1,9.010512543E0,-4.026626587E0,4.544100494E0,1.086516945E1
6.126286250E-1,8.834777985E0,-4.830455017E0,3.642675018E0,1.070773921E1
6.226726250E-1,9.214388580E0,-5.270689545E0,2.836750946E0,1.098782422E1
6.327156250E-1,9.699829102E0,-5.503455505E0,2.158062286E0,1.135922268E1
6.427586250E-1,9.777816925E0,-5.955066376E0,1.574425964E0,1.155626828E1
6.528016250E-1,9.876910858E0,-6.649622040E0,1.138532410E0,1.196106590E1
6.628446251E-1,1.037836807E1,-7.466024323E0,8.623567200E-1,1.281388708E1
6.728876251E-1,1.098625397E1,-8.244405670E0,6.707551575E-1,1.375201489E1
6.829306250E-1,1.135808075E1,-9.222322083E0,5.502557373E-1,1.464103836E1
6.929736250E-1,1.168859344E1,-1.030427216E1,4.812492371E-1,1.558951065E1
7.030166250E-1,1.190773773E1,-1.107307343E1,5.846841431E-1,1.627111024E1
7.130596250E-1,1.210682373E1,-1.141047180E1,9.425898743E-1,1.666320867E1
7.231026250E-1,1.222627533E1,-1.130524063E1,1.351988525E0,1.670682936E1
7.331456250E-1,1.231953140E1,-1.101140167E1,1.749112701E0,1.661569186E1
7.431886250E-1,1.245380219E1,-1.060215271E1,2.192191315E0,1.650177365E1
7.532326251E-1,1.244691650E1,-9.974208527E0,2.526895294E0,1.614917230E1
7.632756251E-1,1.247640518E1,-9.452393646E0,2.759212189E0,1.589407700E1
7.733186251E-1,1.265752853E1,-9.248068542E0,2.782264252E0,1.592108020E1
7.833616250E-1,1.281305511E1,-9.345815277E0,2.420316925E0,1.604296041E1
7.934046250E-1,1.273536667E1,-9.579030304E0,1.782044220E0,1.603505745E1
8.034476250E-1,1.239467514E1,-9.690997467E0,1.219364319E0,1.578069241E1
8.134906250E-1,1.197869019E1,-9.633966064E0,9.451345825E-1,1.540115580E1
8.235336250E-1,1.161374908E1,-9.442663879E0,9.268725586E-1,1.499673837E1
8.335766250E-1,1.128712830E1,-9.013506317E0,1.056353302E0,1.448303986E1
8.436196250E-1,1.081950073E1,-8.579409027E0,1.149759064E0,1.385603844E1
8.536626251E-1,1.015682877E1,-8.024662628E0,1.159189453E0,1.299615717E1
8.637066251E-1,9.473050690E0,-7.515720978E0,1.080004120E0,1.214047611E1
8.737496251E-1,8.854387207E0,-7.218588867E0,9.102571106E-1,1.146022539E1
8.837926250E-1,8.260871429E0,-6.958280182E0,7.343728638E-1,1.082584700E1
8.938356250E-1,7.913743286E0,-6.586752777E0,6.042933655E-1,1.031396216E1
9.038786250E-1,7.791597290E0,-6.306086426E0,4.845423889E-1,1.003546191E1
9.139216250E-1,7.363337860E0,-6.093378754E0,1.417552185E-1,9.558666414E0
9.239646250E-1,7.091802521E0,-5.849236450E0,-3.059637451E-1,9.197871703E0
9.340076250E-1,7.249574432E0,-5.607788544E0,-5.074447632E-1,9.179385709E0
9.440506250E-1,7.538473663E0,-5.358407135E0,-3.688330078E-1,9.256195222E0
9.540936251E-1,7.862699432E0,-5.138963470E0,-9.535171509E-2,9.393619104E0
9.641366251E-1,8.123606873E0,-5.092260590E0,2.203417969E-1,9.590237590E0
9.741796250E-1,8.296048279E0,-5.109025726E0,6.239025879E-1,9.762981889E0
9.842236250E-1,8.446934509E0,-5.004393311E0,1.047821045E0,9.873833296E0
9.942666250E-1,8.662336578E0,-4.819228363E0,1.416055298E0,1.001330363E1
1.004309625E0,8.841813354E0,-4.530029755E0,1.747615814E0,1.008726891E1
1.014352625E0,8.806786194E0,-4.192631378E0,1.914818115E0,9.940028639E0
1.024395625E0,9.020990753E0,-4.048930206E0,1.925146637E0,1.007364381E1
1.034438625E0,9.044042816E0,-3.815715179E0,1.750160522E0,9.970830188E0
1.044481625E0,8.990454254E0,-3.633244629E0,1.519041138E0,9.815101640E0
1.054524625E0,9.128616943E0,-3.668271790E0,1.409319305E0,9.938513275E0
1.064567625E0,9.182055817E0,-3.885170746E0,1.440604248E0,1.007373026E1
1.074610625E0,9.098379822E0,-4.146078186E0,1.492995300E0,1.010937756E1
1.084653625E0,9.017996979E0,-4.342469788E0,1.586251373E0,1.013397784E1
1.094696625E0,8.930129700E0,-4.421056366E0,1.773362274E0,1.012115456E1
1.104739625E0,8.988807678E0,-4.459975433E0,1.986219635E0,1.022913060E1
1.114783625E0,9.065597992E0,-4.482728119E0,2.156565399E0,1.034072979E1
1.124826625E0,9.094038849E0,-4.472249908E0,2.133962402E0,1.035646452E1
1.134869625E0,9.089697876E0,-4.542753296E0,1.919308777E0,1.034132299E1
1.144912625E0,9.187893677E0,-4.736300812E0,1.569935303E0,1.045536381E1
1.154955625E0,9.305549011E0,-5.040617981E0,1.081051941E0,1.063812697E1
1.164998625E0,9.602980499E0,-5.592220917E0,5.447172546E-1,1.112595552E1
1.175041625E0,9.923913116E0,-6.183491364E0,1.773811340E-1,1.169406179E1
1.185084625E0,1.013437546E1,-6.775061188E0,8.038284302E-2,1.219071292E1
1.195127625E0,1.012704071E1,-7.398365021E0,8.292755127E-2,1.254191515E1
1.205170625E0,1.018197647E1,-7.977061615E0,9.235794067E-2,1.293501785E1
1.215213625E0,1.040920395E1,-8.582402802E0,2.454895020E-2,1.349109956E1
1.225256625E0,1.056323364E1,-9.257349243E0,3.891906738E-2,1.404570876E1
1.235300625E0,1.041474243E1,-9.788893890E0,3.308120728E-1,1.429680874E1
1.245343625E0,1.002585114E1,-9.958940277E0,6.857240295E-1,1.414808821E1
1.255386625E0,9.918973389E0,-9.978998566E0,9.080117798E-1,1.409932377E1
1.265429625E0,9.996362457E0,-1.012120285E1,9.434880066E-1,1.425679414E1
1.275472625E0,1.002839584E1,-1.014635056E1,6.059399414E-1,1.427880653E1
1.285515625E0,1.028586044E1,-1.005489075E1,2.218386841E-1,1.438572089E1
1.295558625E0,1.049557434E1,-9.943821716E0,1.221459961E-1,1.445861649E1
1.305601625E0,1.056967026E1,-9.668544159E0,2.243833923E-1,1.432651470E1
1.315644625E0,1.064541275E1,-9.396559753E0,4.195774841E-1,1.420549869E1
1.325687625E0,1.058419006E1,-9.207053833E0,6.598278809E-1,1.404387028E1
1.335730625E0,1.035681290E1,-9.041797485E0,8.662486267E-1,1.377563290E1
1.345773625E0,1.012374756E1,-8.943152618E0,1.030756531E0,1.354742420E1
1.355817625E0,9.955497437E0,-9.029822388E0,1.127904510E0,1.348783860E1
1.365860625E0,9.923763428E0,-9.388326874E0,1.174008636E0,1.371131133E1
1.375903625E0,1.018751495E1,-1.014320709E1,1.217867432E0,1.442751926E1
1.385946625E0,1.052326675E1,-1.107786346E1,1.308279419E0,1.533524689E1
1.395989625E0,1.060335022E1,-1.173754166E1,1.425036621E0,1.588180246E1
1.406032625E0,1.037133270E1,-1.202135147E1,1.462907867E0,1.594420060E1
1.416075625E0,9.923763428E0,-1.192375443E1,1.533261566E0,1.558871038E1
1.426118625E0,9.369017029E0,-1.142020157E1,1.649869080E0,1.486343002E1
1.436161625E0,9.123677216E0,-1.080528030E1,1.786085815E0,1.425432113E1
1.446204625E0,9.096433868E0,-1.020577698E1,1.837728424E0,1.379421033E1
1.456247625E0,9.374555511E0,-9.676477661E0,1.975442047E0,1.361686022E1
1.466290625E0,9.564360809E0,-9.227860565E0,2.232008514E0,1.347635968E1
1.476334625E0,9.474248199E0,-8.913963318E0,2.465971985E0,1.324013364E1
1.486377625E0,9.172026672E0,-8.772058411E0,2.552042999E0,1.294557861E1
1.496420625E0,8.638087006E0,-8.724906464E0,2.415975952E0,1.251309233E1
1.506463625E0,8.022117920E0,-8.738827515E0,2.068398743E0,1.204158443E1
1.516506625E0,7.309150543E0,-8.791368256E0,1.751507721E0,1.156631388E1
1.526549292E0,6.425238647E0,-8.636889496E0,1.498982849E0,1.086860163E1
1.536592292E0,5.760171661E0,-8.293503571E0,1.285227356E0,1.017907601E1
1.546635292E0,5.432952118E0,-7.799231415E0,1.048868866E0,9.562693411E0
1.556678292E0,4.814588013E0,-7.320077820E0,9.822573853E-1,8.816383986E0
1.566721292E0,4.229903870E0,-6.971452789E0,9.187893677E-1,8.205937767E0
1.576764292E0,4.003275146E0,-6.651867371E0,7.538323975E-1,7.800116326E0
1.586807292E0,3.896397400E0,-6.201454010E0,5.828878784E-1,7.347088050E0
1.596850292E0,3.522474976E0,-5.742358704E0,4.719685364E-1,6.753167237E0
1.606894292E0,3.129242706E0,-5.458698578E0,2.888992310E-1,6.298651669E0
1.616937292E0,2.779120789E0,-5.194048920E0,1.278341675E-1,5.892198071E0
1.626980292E0,2.405198364E0,-4.901407471E0,-4.939727783E-2,5.459964694E0
1.637023292E0,2.164349213E0,-4.637057190E0,-1.996847534E-1,5.121189403E0
1.647066292E0,2.121238861E0,-4.481530609E0,-2.981799316E-1,4.967160374E0
1.657109292E0,2.133513336E0,-4.418361969E0,-3.438349915E-1,4.918538822E0
1.667152292E0,2.129322052E0,-4.360133057E0,-4.595443726E-1,4.874007971E0
1.677195292E0,2.164648590E0,-4.296964417E0,-6.659651184E-1,4.857274571E0
1.687238292E0,2.120340729E0,-4.427792358E0,-8.526269531E-1,4.982786640E0
1.697281292E0,1.993554382E0,-4.823269958E0,-1.125659180E0,5.339035564E0
1.707324292E0,2.008822632E0,-5.292993164E0,-1.394051056E0,5.830482257E0
1.717367292E0,2.160008240E0,-5.776038666E0,-1.531315613E0,6.353989752E0
1.727411292E0,2.478246460E0,-6.399043121E0,-1.594484253E0,7.044986758E0
1.737454292E0,2.830613708E0,-7.101532288E0,-1.552272034E0,7.800877083E0
1.747497292E0,3.134481812E0,-7.666756897E0,-1.552721100E0,8.427044580E0
1.757540292E0,3.683989105E0,-8.261919250E0,-1.623523865E0,9.190588402E0
1.767583292E0,4.450844421E0,-9.057814178E0,-1.576970673E0,1.021473692E1
1.777626292E0,5.209616547E0,-9.851014709E0,-1.413660278E0,1.123303302E1
1.787669292E0,5.846242676E0,-1.049602341E1,-1.116378479E0,1.206612455E1
1.797712292E0,6.226452026E0,-1.113414642E1,-6.601272583E-1,1.277394573E1
1.807755292E0,6.584956512E0,-1.157243500E1,-1.076261902E-1,1.331519761E1
1.817798292E0,7.071295166E0,-1.164293839E1,4.035607910E-1,1.362806262E1
1.827841292E0,7.638914795E0,-1.157093811E1,9.952803040E-1,1.390072699E1
1.837884292E0,8.516240387E0,-1.141750717E1,1.400637360E0,1.431249822E1
1.847928292E0,9.853858795E0,-1.115944382E1,1.419198761E0,1.495479336E1
1.857971292E0,1.100301910E1,-1.095167587E1,1.273851013E0,1.557653139E1
1.868014292E0,1.190324707E1,-1.088476501E1,1.092577972E0,1.616660530E1
1.878057292E0,1.270093826E1,-1.099269058E1,9.135502625E-1,1.682223686E1
1.888100292E0,1.315778824E1,-1.120360199E1,7.280859375E-1,1.729676843E1
1.898143292E0,1.326795914E1,-1.128982269E1,6.586303711E-1,1.743366370E1
1.908186292E0,1.320059921E1,-1.121003860E1,6.918612671E-1,1.733203557E1
1.918229292E0,1.290211990E1,-1.105870331E1,7.372169495E-1,1.700891254E1
1.928272292E0,1.259241394E1,-1.086485641E1,7.671546936E-1,1.664939999E1
1.938315292E0,1.233060837E1,-1.059287201E1,7.867639160E-1,1.627488364E1
1.948358292E0,1.213885712E1,-1.010503647E1,8.141569519E-1,1.581538699E1
1.958401292E0,1.207419159E1,-9.445208588E0,9.979747009E-1,1.536209690E1
1.968444292E0,1.205757614E1,-8.639583893E0,1.349593506E0,1.489459482E1
1.978488292E0,1.193183762E1,-7.796237640E0,1.578168182E0,1.434017730E1
1.988531292E0,1.163440613E1,-7.117548981E0,1.767674103E0,1.375294809E1
1.998574292E0,1.123548569E1,-6.503076782E0,1.917213135E0,1.312257035E1
2.008617292E0,1.078118042E1,-6.012995911E0,2.022144928E0,1.250915829E1
2.018660292E0,1.032792297E1,-5.601351929E0,1.964065704E0,1.191212368E1
2.028703292E0,9.892328796E0,-5.254223785E0,1.907782745E0,1.136242367E1
2.038746292E0,9.545200653E0,-4.933141479E0,1.786983948E0,1.089220143E1
2.048789292E0,9.191785583E0,-4.685556335E0,1.418600006E0,1.041421079E1
2.058832292E0,8.841214600E0,-4.576283569E0,9.993218994E-1,1.000540310E1
2.068875292E0,8.512498169E0,-4.403842163E0,7.433541870E-1,9.612961371E0
2.078918292E0,8.348888397E0,-4.209246826E0,6.221063232E-1,9.370630320E0
2.088961292E0,8.194858704E0,-4.091591492E0,7.544311523E-1,9.190538421E0
2.099005292E0,8.149503021E0,-4.082909546E0,1.049467621E0,9.175289213E0
2.109048292E0,8.105344849E0,-4.088148651E0,1.504521332E0,9.201801940E0
2.119091292E0,8.024363251E0,-3.925736389E0,1.944306793E0,9.142326875E0
2.129134292E0,7.970325623E0,-3.725303192E0,2.205663300E0,9.070221882E0
2.139177292E0,7.928412781E0,-3.633693695E0,2.351609802E0,9.032913581E0
2.149220292E0,7.792645111E0,-3.611988831E0,2.415377197E0,8.922209824E0
2.159263292E0,7.521708527E0,-3.711831207E0,2.466421051E0,8.742826938E0
2.169306292E0,7.344926147E0,-3.846700745E0,2.389780426E0,8.628794656E0
2.179349292E0,7.326963501E0,-3.976331177E0,2.463726654E0,8.692844920E0
2.189392292E0,7.464826813E0,-4.055366821E0,2.579885101E0,8.878369588E0
2.199435292E0,7.685467987E0,-4.186793518E0,2.753074951E0,9.174697806E0
2.209478292E0,8.296497345E0,-4.563859406E0,2.839295654E0,9.885458041E0
2.219521292E0,8.859027557E0,-5.021457825E0,2.862946472E0,1.057798991E1
2.229565292E0,9.044791260E0,-5.385351105E0,3.025807800E0,1.095288858E1
2.239608292E0,9.113199005E0,-5.663323059E0,3.201991425E0,1.119715916E1
2.249651292E0,9.205706635E0,-6.026617584E0,3.238066406E0,1.146953479E1
2.259694292E0,9.363777924E0,-6.426735535E0,3.209775238E0,1.180194576E1
2.269737292E0,9.726623383E0,-7.048392792E0,3.034938812E0,1.238942682E1
2.279780292E0,9.992470551E0,-7.701933746E0,3.107388153E0,1.299327181E1
2.289823292E0,1.009261230E1,-8.449030151E0,3.274889832E0,1.356362183E1
2.299866292E0,1.044737457E1,-8.650511169E0,3.604504395E0,1.403465108E1
2.309909292E0,1.067729645E1,-9.038654022E0,3.916455688E0,1.452723481E1
2.319952292E0,1.056802368E1,-9.488618317E0,4.164340210E0,1.480063281E1
2.329995292E0,1.072624466E1,-9.646539917E0,4.394711151E0,1.508050208E1
2.340038292E0,1.080962128E1,-9.368268585E0,4.799619141E0,1.508803209E1
2.350082292E0,1.078552139E1,-8.739875336E0,5.095254364E0,1.478764720E1
2.360125292E0,1.100047440E1,-7.967780914E0,5.079237671E0,1.450153871E1
2.370168292E0,1.142364441E1,-7.322472839E0,4.807402954E0,1.439546398E1
2.380211292E0,1.179142960E1,-6.896159363E0,4.441264343E0,1.436383148E1
2.390254292E0,1.197404984E1,-6.752458191E0,4.017944641E0,1.432192167E1
2.400297292E0,1.196851135E1,-6.997947693E0,3.358715515E0,1.426525520E1
2.410340292E0,1.203287750E1,-7.764952698E0,2.356100464E0,1.451329876E1
2.420383292E0,1.163156204E1,-8.457113342E0,1.768422546E0,1.448942097E1
2.430426292E0,1.120599701E1,-9.105714569E0,1.411414948E0,1.450794606E1
2.440469292E0,1.086844894E1,-9.943522339E0,1.228944397E0,1.478198645E1
2.450512292E0,1.042177780E1,-1.066846481E1,1.153052216E0,1.495858026E1
2.460555292E0,1.002929398E1,-1.112396759E1,1.200802917E0,1.502568868E1
2.470598292E0,9.599837036E0,-1.125240051E1,1.379381561E0,1.485517021E1
2.480642292E0,9.217232666E0,-1.103056183E1,1.522783356E0,1.445508704E1
2.490685292E0,9.032367096E0,-1.064107178E1,1.610201569E0,1.405022466E1
2.500728292E0,9.098529510E0,-1.022793091E1,1.692380676E0,1.379340285E1
2.510771292E0,9.349108429E0,-9.999505920E0,1.755399628E0,1.380135410E1
2.520814292E0,9.568402405E0,-9.827663269E0,1.848356323E0,1.384029302E1
2.530857292E0,9.711654510E0,-9.694589996E0,1.903142395E0,1.385363705E1
2.540900292E0,9.672436066E0,-9.569300537E0,1.855242004E0,1.373205939E1
2.550943292E0,9.478589172E0,-9.446705475E0,1.659299469E0,1.348470140E1
2.560986292E0,9.273365936E0,-9.331295471E0,1.409169617E0,1.323080307E1
2.571029292E0,8.945397949E0,-9.312584381E0,1.128054199E0,1.296213249E1
2.581072292E0,8.340954895E0,-9.426497498E0,8.071215820E-1,1.261276452E1
2.591115292E0,7.699239349E0,-9.374256134E0,4.764591980E-1,1.214009794E1
2.601158292E0,7.319778442E0,-9.202263794E0,2.354603577E-1,1.176079321E1
2.611202292E0,7.115752716E0,-9.033265228E0,1.332229614E-1,1.150006808E1
2.621245292E0,6.893015900E0,-8.789422302E0,1.637594604E-1,1.117114272E1
2.631288292E0,6.595883789E0,-8.462801514E0,2.133064270E-1,1.073173761E1
2.641331292E0,6.378685455E0,-8.118367767E0,2.529739380E-1,1.032760956E1
2.651374292E0,6.140231323E0,-7.817044373E0,3.486250305E-1,9.946364302E0
2.661417292E0,5.796995087E0,-7.484286346E0,4.487667847E-1,9.477398682E0
2.671460292E0,5.425767059E0,-7.250023499E0,4.457730103E-1,9.066449277E0
2.681503292E0,4.701273651E0,-7.255711670E0,2.697390747E-1,8.649860401E0
2.691546292E0,3.854634247E0,-7.308402100E0,-1.028361511E-1,8.263263381E0
2.701589292E0,3.254831543E0,-7.344028015E0,-3.796105957E-1,8.041938825E0
2.711632292E0,2.771935730E0,-7.195087738E0,-3.236270142E-1,7.717360280E0
2.721675292E0,2.592309265E0,-6.923552399E0,-1.248403931E-1,7.393999612E0
2.731718292E0,2.486479340E0,-6.823410645E0,8.996292114E-2,7.262892375E0
2.741762292E0,2.266586609E0,-6.693181458E0,2.680924988E-1,7.071631104E0
2.751805292E0,2.144889679E0,-6.484365692E0,4.842430115E-1,6.847046185E0
2.761848292E0,1.969304810E0,-6.361171875E0,5.541476440E-1,6.682046742E0
2.771891292E0,1.651815033E0,-6.492598572E0,2.571652222E-1,6.704361496E0
2.781934292E0,1.271755371E0,-6.822213135E0,-2.698887634E-1,6.944983349E0
2.791977292E0,8.997789001E-1,-6.998097382E0,-7.223977661E-1,7.092589623E0
2.802020292E0,6.855743408E-1,-7.076534271E0,-8.900491333E-1,7.165161333E0
2.812063292E0,8.425978088E-1,-7.127428436E0,-8.129594421E-1,7.222957167E0
2.822106292E0,1.370400238E0,-7.262148285E0,-6.990463257E-1,7.423305213E0
2.832149292E0,2.082319794E0,-7.808512115E0,-5.903723145E-1,8.102928893E0
2.842192292E0,3.004701691E0,-8.658594360E0,-6.376739502E-1,9.187280153E0
2.852235292E0,3.598067780E0,-9.354646912E0,-6.051914978E-1,1.004100430E1
2.862279292E0,4.173321533E0,-9.916278992E0,-5.131329346E-1,1.077091022E1
2.872322292E0,4.740641785E0,-1.043420197E1,-5.703140259E-1,1.147482084E1
2.882365292E0,5.236261139E0,-1.080123871E1,-6.503974915E-1,1.202115657E1
2.892408292E0,5.456602936E0,-1.084614532E1,-5.816903687E-1,1.215531767E1
2.902451292E0,5.580245819E0,-1.079540085E1,-4.016148376E-1,1.215899327E1
2.912494292E0,6.029910736E0,-1.077758789E1,-2.294728088E-1,1.235187767E1
2.922537292E0,6.994654541E0,-1.073597443E1,1.425036621E-1,1.281431412E1
2.932580292E0,8.009394379E0,-1.070603668E1,5.357359314E-1,1.338120446E1
2.942623292E0,9.207802277E0,-1.087518494E1,7.232958984E-1,1.426802114E1
2.952666292E0,1.029259644E1,-1.115869537E1,8.216413879E-1,1.520293124E1
2.962709292E0,1.111064529E1,-1.140568176E1,8.677455139E-1,1.594644153E1
2.972752292E0,1.170341263E1,-1.158740387E1,7.939489746E-1,1.648842474E1
2.982795292E0,1.201461548E1,-1.158994858E1,4.776567078E-1,1.670048050E1
2.992839292E0,1.200817886E1,-1.147498764E1,-1.718426514E-1,1.661027486E1
3.002882292E0,1.173080566E1,-1.131407227E1,-9.750723267E-1,1.632699601E1
3.012925292E0,1.148381927E1,-1.095496902E1,-1.437760162E0,1.593601599E1
3.022968292E0,1.137873779E1,-1.030008087E1,-1.369352417E0,1.540916824E1
3.033011292E0,1.138083344E1,-9.492510223E0,-8.620573425E-1,1.484500801E1
3.043054292E0,1.140208923E1,-8.784931641E0,-6.825805664E-2,1.439400299E1
3.053097292E0,1.148860931E1,-8.189769287E0,8.249345398E-1,1.413297499E1
3.063140292E0,1.154893387E1,-7.747888184E0,1.618135071E0,1.400092875E1
3.073183292E0,1.149309998E1,-7.416327667E0,2.093845825E0,1.383753784E1
3.083226292E0,1.113983459E1,-7.052584076E0,2.189496918E0,1.336520683E1
3.093269292E0,1.061188248E1,-6.705755310E0,1.945653992E0,1.270294349E1
3.103312292E0,1.016685791E1,-6.421945496E0,1.544488220E0,1.212401862E1
3.113355292E0,9.837393036E0,-6.186036072E0,1.197509766E0,1.168226749E1
3.123399292E0,9.663604431E0,-5.921685791E0,1.035696259E0,1.138087343E1
3.133442292E0,9.633666687E0,-5.727090454E0,1.086440735E0,1.125999344E1
3.143485292E0,9.587712250E0,-5.574407959E0,1.310973816E0,1.116767221E1
3.153528292E0,9.614057465E0,-5.341791687E0,1.632954254E0,1.111896483E1
3.163571292E0,9.725725250E0,-5.120402069E0,2.006128235E0,1.117285995E1
3.173614292E0,9.692344666E0,-4.803511047E0,2.423759766E0,1.108557057E1
3.183657292E0,9.567354584E0,-4.435127106E0,2.639311523E0,1.087062977E1
3.193700292E0,9.408085785E0,-4.172573090E0,2.575544128E0,1.060923522E1
3.203743292E0,9.218430176E0,-4.008065186E0,2.393073578E0,1.033299775E1
3.213786292E0,8.925489349E0,-3.908671875E0,2.154619446E0,9.979201416E0
3.223829292E0,8.541837158E0,-3.870501251E0,1.858385468E0,9.560196573E0
3.233872292E0,8.204588470E0,-3.900289307E0,1.728605347E0,9.247464793E0
3.243915292E0,8.080047455E0,-3.918850708E0,1.726958771E0,9.144776888E0
3.253958292E0,8.184081116E0,-3.942651215E0,1.859283600E0,9.272573419E0
3.264002292E0,8.408314819E0,-4.051025848E0,2.034269714E0,9.552424917E0
3.274045292E0,8.659642181E0,-4.415667572E0,2.236499176E0,9.974439903E0
3.284088292E0,8.948990479E0,-4.799469452E0,2.516267395E0,1.046188029E1
3.294131292E0,9.270372162E0,-5.107528839E0,2.716550903E0,1.092731896E1
3.304174292E0,9.640851746E0,-5.512287140E0,2.855162659E0,1.146661614E1
3.314217292E0,9.896969147E0,-5.837710419E0,3.087629242E0,1.189799628E1
3.324260292E0,1.006776398E1,-6.016438751E0,3.409459991E0,1.221400115E1
3.334303292E0,1.030696655E1,-6.150110779E0,3.708088989E0,1.256213939E1
3.344346292E0,1.079989151E1,-6.592291260E0,3.798351288E0,1.321073174E1
3.354389292E0,1.117620895E1,-7.251071320E0,3.847149811E0,1.386673154E1
3.364432292E0,1.122231308E1,-7.738457794E0,3.920197906E0,1.418421628E1
3.374475292E0,1.124222168E1,-8.266409912E0,4.070485382E0,1.453581550E1
3.384518292E0,1.116198853E1,-8.633296967E0,4.216880951E0,1.472772519E1
3.394562292E0,1.086620361E1,-8.645721130E0,4.429738312E0,1.457550878E1
3.404605292E0,1.057925034E1,-8.304879913E0,4.668042755E0,1.423664958E1
3.414648292E0,1.049991531E1,-7.669900360E0,4.806355133E0,1.386277904E1
3.424691292E0,1.072594528E1,-6.964118042E0,4.735402679E0,1.363704077E1
3.434734292E0,1.110331055E1,-6.527326355E0,4.304897919E0,1.358019295E1
3.444777292E0,1.162946640E1,-6.429729309E0,3.708987122E0,1.379646669E1
3.454820292E0,1.198782120E1,-6.626719666E0,3.114722900E0,1.404716232E1
3.464863292E0,1.215637070E1,-7.186106415E0,2.459086304E0,1.433403570E1
3.474906292E0,1.200533478E1,-7.895930328E0,1.914219360E0,1.449613792E1
3.484949292E0,1.157258469E1,-8.443192291E0,1.575773163E0,1.441163674E1
3.494992292E0,1.129266678E1,-9.101672974E0,1.237027588E0,1.455661400E1
3.505035292E0,1.107965973E1,-9.889035645E0,9.351054382E-1,1.488040012E1
3.515078292E0,1.079390396E1,-1.053688843E1,9.951306152E-1,1.511703229E1
3.525122750E0,1.039393570E1,-1.093446167E1,1.297950897E0,1.514202853E1
3.535165750E0,1.012434631E1,-1.106708588E1,1.758692780E0,1.510217793E1
3.545208750E0,9.869576111E0,-1.090736801E1,2.150428162E0,1.486618817E1
3.555251750E0,9.702224121E0,-1.057281372E1,2.391876068E0,1.454780444E1
3.565294750E0,9.603279877E0,-1.019140686E1,2.557282104E0,1.423472690E1
3.575337750E0,9.539362793E0,-9.823471985E0,2.515968018E0,1.392228930E1
3.585380750E0,9.456435242E0,-9.583071899E0,2.402204590E0,1.367589198E1
3.595423750E0,9.313781891E0,-9.506281586E0,2.360740814E0,1.351625022E1
3.605466750E0,9.120982819E0,-9.516610107E0,2.323767700E0,1.338499503E1
3.615509750E0,9.016500092E0,-9.635462952E0,2.306553497E0,1.339625355E1
3.625552750E0,8.962462463E0,-9.883946228E0,2.186503143E0,1.352031518E1
3.635595750E0,8.965007172E0,-1.021041733E1,2.029329987E0,1.373834618E1
3.645638750E0,8.870703278E0,-1.028421387E1,1.707798615E0,1.368835299E1
3.655681750E0,8.555608521E0,-1.011611343E1,1.014889526E0,1.328774582E1
3.665725750E0,8.076155548E0,-9.745484161E0,1.381626892E-1,1.265771855E1
3.675768750E0,7.526797943E0,-9.238039398E0,-7.060816956E-1,1.193702687E1
3.685811750E0,7.010970612E0,-8.744964752E0,-1.131197662E0,1.126533291E1
3.695854750E0,6.606212311E0,-8.292306061E0,-1.059347076E0,1.065488607E1
3.705897750E0,6.212830353E0,-7.902816010E0,-6.788383484E-1,1.007544457E1
3.715940750E0,5.850733337E0,-7.768395538E0,-1.588197327E-1,9.726472821E0
3.725983750E0,5.618266754E0,-7.800578613E0,4.564009094E-1,9.624045397E0
3.736026750E0,5.293891296E0,-7.742050323E0,1.081650696E0,9.441112037E0
3.746069750E0,4.836442566E0,-7.503895569E0,1.450034637E0,9.044458295E0
3.756112750E0,4.418511658E0,-7.192842407E0,1.445543976E0,8.564451211E0
3.766155750E0,4.233945465E0,-6.946005707E0,1.211430817E0,8.224406003E0
3.776198750E0,4.032763824E0,-6.811136169E0,8.250842285E-1,7.958361890E0
3.786241750E0,3.766018524E0,-6.873107300E0,2.300715637E-1,7.840627041E0
3.796285750E0,3.359164581E0,-7.084916840E0,-4.911286926E-1,7.856286699E0
3.806328750E0,2.695145416E0,-7.168592834E0,-1.194515991E0,7.751090278E0
3.816371750E0,2.062261505E0,-7.335046692E0,-1.760039978E0,7.820075013E0
3.826414750E0,1.691183167E0,-7.629035339E0,-2.139051819E0,8.101717312E0
3.836457750E0,1.373992767E0,-7.793094177E0,-2.176923065E0,8.207263065E0
3.846500750E0,9.276210022E-1,-7.632328491E0,-2.072140961E0,7.962831600E0
3.856543750E0,5.089416504E-1,-7.552245026E0,-2.173031158E0,7.875118472E0
3.866586750E0,4.978646851E-1,-8.009993134E0,-2.396666107E0,8.375671177E0
3.876629750E0,7.770341492E-1,-8.754544830E0,-2.466121674E0,9.128394895E0
3.886672750E0,1.025966492E0,-9.333241425E0,-2.357597351E0,9.680922890E0
3.896715750E0,1.423689423E0,-9.788893890E0,-2.232906647E0,1.014076956E1
3.906758750E0,1.982627106E0,-1.031235535E1,-2.120939484E0,1.071325662E1
3.916801750E0,2.458038483E0,-1.085377945E1,-1.987566833E0,1.130472925E1
3.926844750E0,2.856060791E0,-1.116393448E1,-1.770518188E0,1.165869851E1
3.936888750E0,3.609444122E0,-1.125584335E1,-1.444945221E0,1.190839885E1
3.946931750E0,4.474495239E0,-1.129610962E1,-1.087787933E0,1.219862627E1
3.956974750E0,5.677693176E0,-1.134730316E1,-7.167095947E-1,1.270870416E1
3.967017750E0,7.095993805E0,-1.140687927E1,-4.082011414E-1,1.344011350E1
3.977060750E0,8.365204468E0,-1.136287079E1,-1.661544800E-1,1.411095623E1
3.987103750E0,9.488768005E0,-1.139625137E1,-1.781295776E-1,1.483047517E1
3.997146750E0,1.027044250E1,-1.174906769E1,-5.595364380E-1,1.561523813E1
4.007189750E0,1.087488556E1,-1.225157272E1,-1.049018555E0,1.641537724E1
4.017232750E0,1.141271713E1,-1.252864655E1,-1.363813934E0,1.700226706E1
4.027275750E0,1.197270264E1,-1.252580246E1,-1.249900818E0,1.737249515E1
4.037318750E0,1.245754440E1,-1.243778549E1,-8.108638000E-1,1.762232733E1
4.047361750E0,1.254256760E1,-1.216580109E1,-3.191363525E-1,1.747640026E1
4.057404750E0,1.233988907E1,-1.160566589E1,1.181044006E-1,1.694043363E1
4.067448750E0,1.218466187E1,-1.094344299E1,5.472619629E-1,1.638671489E1
4.077491750E0,1.208856171E1,-1.007629623E1,6.330335999E-1,1.575010481E1
4.087534750E0,1.139176071E1,-9.666897583E0,5.168751526E-1,1.494952444E1
4.097577750E0,1.122051682E1,-8.751850433E0,1.014590149E0,1.426619349E1
4.107620750E0,1.108025848E1,-8.048912201E0,1.284179535E0,1.375522565E1
4.117663750E0,1.099822906E1,-7.503745880E0,1.296004944E0,1.337710259E1
4.127706750E0,1.082743423E1,-7.034172363E0,1.455722809E0,1.299353846E1
4.137749750E0,1.059002792E1,-6.640940094E0,1.555265808E0,1.259641332E1
4.147792750E0,1.035396881E1,-6.347101135E0,1.585652618E0,1.224763884E1
4.157835750E0,1.017074982E1,-6.102210388E0,1.623823242E0,1.197154649E1
4.167878750E0,1.003138962E1,-5.834716644E0,1.642684021E0,1.172054209E1
4.177921750E0,9.877060547E0,-5.523962860E0,1.687590637E0,1.144196019E1
4.187964750E0,9.842332764E0,-5.331762543E0,1.701811066E0,1.132233929E1
4.198007750E0,9.805509338E0,-5.238356781E0,1.745819550E0,1.125327868E1
4.208051750E0,9.646988983E0,-5.159770203E0,1.824855194E0,1.109133542E1
4.218094750E0,9.525292053E0,-5.115462341E0,1.881287842E0,1.097444247E1
4.228137750E0,9.491612091E0,-5.094206543E0,2.030976563E0,1.096204845E1
4.238180750E0,9.416917419E0,-5.093009033E0,2.218686218E0,1.093341864E1
4.248223750E0,9.345665588E0,-5.027744751E0,2.332898712E0,1.086563845E1
4.258266750E0,9.208401031E0,-4.934039612E0,2.301015015E0,1.069738597E1
4.268309750E0,9.052724762E0,-4.757855988E0,2.239642639E0,1.046924154E1
4.278352750E0,8.820856934E0,-4.492906952E0,2.262095947E0,1.015434922E1
4.288395750E0,8.649613037E0,-4.285438385E0,2.362986145E0,9.938032570E0
4.298438750E0,8.559350739E0,-4.175716553E0,2.482886810E0,9.841941917E0
4.308481750E0,8.516539764E0,-4.207300873E0,2.566562805E0,9.839719245E0
4.318524750E0,8.552165680E0,-4.326004028E0,2.605930939E0,9.932005071E0
4.328567750E0,8.626710663E0,-4.576133881E0,2.600691833E0,1.010567841E1
4.338611750E0,8.783584442E0,-4.919220428E0,2.594255219E0,1.039616494E1
4.348654750E0,8.982969818E0,-5.344635773E0,2.614014130E0,1.077459736E1
4.358697750E0,9.123228149E0,-5.846542053E0,2.617456970E0,1.114748522E1
4.368740750E0,9.229058075E0,-6.223158875E0,2.646346893E0,1.144143222E1
4.378783750E0,9.128766632E0,-6.368656311E0,2.850671997E0,1.149001716E1
4.388826750E0,9.182355194E0,-6.420897675E0,3.068469086E0,1.161718883E1
4.398869750E0,9.670789490E0,-6.715934143E0,3.135379944E0,1.218435670E1
4.408912750E0,1.005010071E1,-7.141499176E0,3.221151581E0,1.274289419E1
4.418955750E0,1.014036301E1,-7.438331909E0,3.437451782E0,1.303732404E1
4.428998750E0,1.015173935E1,-7.723937988E0,3.671265564E0,1.327385478E1
4.439041750E0,1.020517822E1,-8.088430023E0,3.801195374E0,1.356530313E1
4.449084750E0,1.016581009E1,-8.290060730E0,3.937412109E0,1.369569333E1
4.459127750E0,1.008557693E1,-8.157286835E0,4.087849274E0,1.360039346E1
4.469170750E0,1.018422180E1,-7.877817993E0,4.128714294E0,1.352126739E1
4.479214750E0,1.039393570E1,-7.588170319E0,3.897894287E0,1.344647939E1
4.489257750E0,1.067954178E1,-7.169640656E0,3.585344238E0,1.335331618E1
4.499300750E0,1.103086121E1,-6.891519012E0,3.135529633E0,1.337925556E1
4.509343750E0,1.144265488E1,-6.998097382E0,2.488574982E0,1.364187388E1
4.519386750E0,1.179756683E1,-7.406597900E0,1.709744568E0,1.403436860E1
4.529428917E0,1.182046921E1,-7.867938538E0,1.049617310E0,1.423831611E1
4.539471917E0,1.181972076E1,-8.317154388E0,6.089337158E-1,1.446553339E1
4.549514917E0,1.181687668E1,-8.813671875E0,3.495231628E-1,1.474589952E1
4.559557917E0,1.160791122E1,-9.323062592E0,2.610571289E-1,1.489064303E1
4.569600917E0,1.128742767E1,-9.746681671E0,3.279679871E-1,1.491681568E1
4.579643917E0,1.085767136E1,-1.008677444E1,6.140231323E-1,1.483270273E1
4.589686917E0,1.044632675E1,-1.031504974E1,1.032702484E0,1.471708083E1
4.599729917E0,1.031340317E1,-1.061951660E1,1.450932770E0,1.487432767E1
4.609772917E0,1.033825150E1,-1.090931396E1,2.005080414E0,1.516287976E1
4.619816917E0,1.040950333E1,-1.087293961E1,2.582579498E0,1.527246843E1
4.629859917E0,1.065948349E1,-1.066487228E1,2.878663788E0,1.535092161E1
4.639902917E0,1.093101883E1,-1.040112076E1,2.698139191E0,1.532809319E1
4.649945917E0,1.090227859E1,-1.008512787E1,2.156415710E0,1.500731859E1
4.659988917E0,1.072744217E1,-9.716893616E0,1.478475494E0,1.454929300E1
4.670031917E0,1.046054718E1,-9.377998352E0,8.315208435E-1,1.407342628E1
4.680074917E0,9.927505646E0,-9.185199280E0,2.633024597E-1,1.352747509E1
4.690117917E0,9.238488464E0,-9.094038849E0,-9.834548950E-2,1.296382982E1
4.700160917E0,8.592282257E0,-9.057963867E0,-2.167492676E-1,1.248683323E1
4.710203917E0,7.961643677E0,-9.001082153E0,-1.106199646E-1,1.201746590E1
4.720246917E0,7.390880585E0,-8.940458221E0,7.454498291E-2,1.160010629E1
4.730289917E0,6.966662750E0,-8.802894287E0,3.354524231E-1,1.123111152E1
4.740332917E0,6.669380951E0,-8.589887238E0,6.650669861E-1,1.089537145E1
4.750375917E0,6.441255341E0,-8.226443024E0,9.539662170E-1,1.049162460E1
4.760419917E0,6.219416656E0,-7.805967407E0,1.245709534E0,1.005813417E1
4.770462917E0,5.982160034E0,-7.372768250E0,1.410666504E0,9.598642108E0
4.780505917E0,5.758225708E0,-7.190746765E0,1.463356934E0,9.327669369E0
4.790548917E0,5.506000214E0,-7.104226685E0,1.529669037E0,9.117344049E0
4.800591917E0,5.365891571E0,-6.692283325E0,1.507515106E0,8.709308253E0
4.810634917E0,5.547913055E0,-5.773943024E0,1.381776581E0,8.125703898E0
4.820677917E0,6.013145599E0,-4.689448242E0,1.278491364E0,7.731971610E0
4.830720917E0,6.722221069E0,-3.881877594E0,1.162632294E0,7.849136488E0
4.840763917E0,7.546706543E0,-3.361559601E0,1.002914429E0,8.322181201E0
4.850806917E0,8.228089600E0,-3.005899200E0,8.156538391E-1,8.797850854E0
4.860849917E0,8.607400818E0,-3.155138855E0,8.196954346E-1,9.204029044E0
4.870892917E0,8.418493652E0,-3.738026733E0,1.066681824E0,9.272631199E0
4.880935917E0,7.911198578E0,-4.327051849E0,1.340462494E0,9.116319452E0
4.890978917E0,7.631430359E0,-4.654570770E0,1.661395111E0,9.091974048E0
4.901022917E0,7.944728851E0,-4.489613800E0,2.007774811E0,9.343795176E0
4.911065917E0,8.740174713E0,-3.922443237E0,2.303559723E0,9.853050409E0
4.921108917E0,9.573042755E0,-3.101849670E0,2.583028564E0,1.038925674E1
4.931151917E0,1.008901978E1,-2.052681427E0,3.026705933E0,1.073139180E1
4.941194917E0,1.066247726E1,-1.819616089E0,2.868484955E0,1.119051518E1
4.951237917E0,1.069900131E1,-2.045496368E0,2.568059692E0,1.119140809E1
4.961280917E0,1.046309189E1,-2.100731506E0,2.287692719E0,1.091434390E1
4.971323917E0,1.048883835E1,-2.259401550E0,2.299667816E0,1.097310792E1
4.981366917E0,1.037372772E1,-2.686613159E0,2.361040192E0,1.097299539E1
4.991409917E0,9.661209412E0,-2.955454102E0,2.681074677E0,1.045283874E1
5.001452917E0,7.960595856E0,-3.400778046E0,4.470453644E0,9.742758001E0
5.011495917E0,7.740403748E0,-2.557581482E0,5.933361511E0,1.008265104E1
5.021538917E0,8.662186890E0,-8.806187439E-1,6.984475708E0,1.116207293E1
5.031581917E0,1.008243347E1,-3.399430847E-1,7.599396973E0,1.263019637E1
5.041625917E0,1.106409210E1,-5.538482666E-1,7.529043274E0,1.339430381E1
5.051668917E0,1.068358337E1,-5.370831299E-1,7.392377472E0,1.300287109E1
5.061711917E0,9.532327423E0,-3.308120728E-1,7.029532013E0,1.184858739E1
5.071754917E0,8.194709015E0,-3.628454590E-1,6.880292358E0,1.070622882E1
5.081797917E0,7.659122772E0,-9.337582397E-1,5.096601562E0,9.247130018E0
5.091840917E0,7.010371857E0,-8.915460205E-1,4.441414032E0,8.346635638E0
5.101883917E0,6.392606506E0,-5.459147644E-1,4.794978790E0,8.009698026E0
5.111926917E0,6.433770905E0,-6.557862854E-1,4.807552643E0,8.058289280E0
5.121969917E0,6.269263000E0,-8.454418945E-1,4.970114594E0,8.044903333E0
5.132012917E0,6.098019104E0,-8.593629456E-1,4.934189301E0,7.891170111E0
5.142055917E0,5.809568939E0,-7.595205688E-1,5.049150238E0,7.734460607E0
5.152098917E0,5.512137451E0,-7.743397522E-1,5.480852509E0,7.811722317E0
5.162141917E0,5.075794830E0,-8.643026733E-1,6.707701263E0,8.456001922E0
5.172184917E0,4.352049866E0,-7.699987793E-1,7.541317749E0,8.740978752E0
5.182227917E0,3.869902496E0,-2.044747925E-1,7.256310425E0,8.226299062E0
5.192271917E0,3.105442200E0,2.809657288E-1,6.829697571E0,7.507828042E0
5.202314917E0,2.236349487E0,4.165837097E-1,6.092480621E0,6.503316165E0
5.212357917E0,2.585722961E0,4.863386536E-1,5.236111450E0,5.859978809E0
5.222400917E0,3.001408539E0,4.387376404E-1,4.848866730E0,5.719480090E0
5.232443917E0,2.856809235E0,4.411326599E-1,5.274282074E0,6.014483222E0
5.242486917E0,2.564018097E0,7.578739929E-1,5.428910522E0,6.051580889E0
5.252529917E0,2.444416809E0,1.032552795E0,5.094356232E0,5.744023348E0
5.262572917E0,1.970652008E0,1.258433075E0,4.469256134E0,5.043944244E0
5.272615917E0,1.699565735E0,1.062490540E0,4.193828888E0,4.648183578E0
5.282658917E0,1.732946320E0,7.661068726E-1,5.582790527E0,5.895555339E0
5.292701917E0,1.710792389E0,5.251080322E-1,7.639214172E0,7.846027161E0
5.302744917E0,1.625320129E0,2.231858826E-1,8.623417511E0,8.778086752E0
5.312787917E0,1.507964172E0,9.804611206E-2,9.121282196E0,9.245612899E0
5.322830917E0,1.848356323E0,5.957611084E-2,9.733658752E0,9.907778920E0
5.332873917E0,2.574196930E0,-1.633103943E-1,9.896819458E0,1.022742370E1
5.342917917E0,3.174448700E0,-3.827540588E-1,9.888436890E0,1.039253623E1
5.352960917E0,3.613036652E0,-5.337899780E-1,1.024903702E1,1.088033664E1
5.363003917E0,3.630101166E0,-7.650590515E-1,1.055425232E1,1.118727813E1
5.373046917E0,3.202739868E0,-8.607101440E-1,1.077549225E1,1.127428924E1
5.383089917E0,1.991159363E0,-6.047424316E-1,1.074525513E1,1.094490460E1
5.393132917E0,3.243754578E-1,-1.323248291E-1,1.017553986E1,1.018156867E1
5.403175917E0,-2.360591125E-1,2.888992310E-1,9.671388245E0,9.678581366E0
5.413218917E0,4.745132446E-2,5.492079163E-1,9.382039948E0,9.398220818E0
5.423261917E0,2.932402039E-1,6.268963623E-1,9.365723877E0,9.391260438E0
5.433304917E0,4.819976807E-1,5.704637146E-1,9.742340698E0,9.770923851E0
5.443347917E0,6.453080750E-1,5.063969421E-1,1.013542328E1,1.016856260E1
5.453390917E0,6.156697083E-1,5.851332092E-1,1.055215668E1,1.058628550E1
5.463433917E0,3.353027344E-1,8.087681580E-1,1.139939484E1,1.143296709E1
5.473476917E0,-2.637515259E-1,1.291065216E0,1.242146942E1,1.249116955E1
5.483520917E0,-6.475534058E-1,1.395248566E0,1.248074615E1,1.257517668E1
5.493563917E0,-5.507048035E-1,9.184899902E-1,1.170700516E1,1.175588659E1
5.503606917E0,-5.655239868E-1,8.045768738E-1,1.033899994E1,1.038566710E1
5.513649917E0,-8.628057861E-1,8.771759033E-1,9.082213440E0,9.165177159E0
5.523692917E0,-1.218017120E0,8.660989380E-1,8.639583893E0,8.767901854E0
5.533736375E0,-1.706900482E0,1.275048523E0,9.221873016E0,9.464787368E0
5.543779375E0,-1.159937897E0,1.753303986E0,1.003947281E1,1.025721917E1
5.553822375E0,-9.695338440E-1,1.864822083E0,1.078372513E1,1.098664120E1
5.563865375E0,-1.398541718E0,1.737436981E0,1.078956299E1,1.101768014E1
5.573908375E0,-2.211800537E0,1.130449219E0,1.032687515E1,1.062140892E1
5.583951375E0,-2.486179962E0,1.969903564E-1,9.354347534E0,9.681100857E0
5.593994375E0,-1.875899048E0,-7.020401001E-2,8.766220551E0,8.964962274E0
5.604037375E0,-1.080303497E0,6.346801758E-1,8.888815613E0,8.976687450E0
5.614080375E0,-7.319778442E-2,1.595831451E0,9.094038849E0,9.233286442E0
5.624123375E0,6.571334839E-2,1.627864838E0,8.536747742E0,8.690818384E0
5.634167375E0,-1.499880981E-1,1.472637634E0,7.653733978E0,7.795562959E0
5.644210375E0,-3.293151855E-1,1.486109619E0,7.222929840E0,7.381577458E0
5.654253375E0,-6.899153137E-1,1.320104828E0,7.185357971E0,7.338121631E0
5.664296375E0,-9.963281250E-1,8.824150085E-1,7.414531403E0,7.533034043E0
5.674339375E0,-2.842588806E-1,8.831634521E-2,8.531209259E0,8.536400548E0
5.684382375E0,1.089584198E0,-4.887336731E-1,9.317224731E0,9.393440851E0
5.694425375E0,2.382745056E0,-8.717871094E-1,9.711804199E0,1.003776009E1
5.704468375E0,3.430266724E0,-1.318458252E0,1.044318329E1,1.107091411E1
5.714511375E0,4.142186279E0,-8.083190918E-1,1.147079636E1,1.222253067E1
5.724554375E0,4.513264618E0,-2.888992310E-2,1.222163498E1,1.302838262E1
5.734597375E0,3.376528473E0,7.424560547E-1,1.211086533E1,1.259465142E1
5.744640375E0,2.164798279E0,9.177415466E-1,1.123862915E1,1.148195917E1
5.754683375E0,1.555116119E0,9.488768005E-1,1.027298721E1,1.043326505E1
5.764726375E0,9.854008484E-1,1.122515717E0,9.591005402E0,9.706618411E0
5.774769375E0,7.409591675E-1,1.241218872E0,9.058263245E0,9.172882741E0
5.784813375E0,1.013991394E0,1.406774597E0,8.573870544E0,8.747482462E0
5.794856375E0,1.489103394E0,1.723515930E0,8.358468475E0,8.663251776E0
5.804899375E0,1.876946869E0,1.994901581E0,8.464747467E0,8.896882125E0
5.814942375E0,1.935325470E0,2.153721313E0,8.886121216E0,9.345969743E0
5.824985375E0,1.565893707E0,2.174827423E0,9.577683105E0,9.945547300E0
5.835028375E0,1.199605408E0,1.805994415E0,1.045411057E1,1.067656764E1
5.845071375E0,8.872050476E-1,9.852511597E-1,1.146046783E1,1.153690494E1
5.855114375E0,6.463558960E-1,1.616638184E-1,1.248987717E1,1.250763538E1
5.865157375E0,5.303471375E-1,1.278341675E-1,1.294657745E1,1.295806611E1
5.875200375E0,1.410067749E-1,7.951464844E-1,1.244766495E1,1.247383275E1
5.885243375E0,-8.551716614E-1,1.924398193E0,1.117351456E1,1.137022667E1
5.895286375E0,-1.692829742E0,2.874023438E0,9.885592804E0,1.043315045E1
5.905329375E0,-1.884131927E0,3.474724274E0,9.129215698E0,9.948177781E0
5.915372375E0,-1.538650360E0,3.585942993E0,8.878337402E0,9.698005316E0
5.925415375E0,-7.192543030E-1,3.182382202E0,8.923244019E0,9.501008738E0
5.935459375E0,-3.900888062E-1,2.386786652E0,9.072184296E0,9.389006747E0
5.945502375E0,-9.325607300E-2,1.774260406E0,9.496252441E0,9.661030334E0
5.955545375E0,2.016307068E-1,1.190324707E0,9.956694946E0,1.002962123E1
5.965588375E0,4.969665527E-2,6.725514221E-1,1.031310379E1,1.033512965E1
5.975631375E0,-3.890409851E-1,8.243357849E-1,1.030052994E1,1.034078331E1
5.985674375E0,-6.839277649E-1,1.824106750E0,9.805958405E0,9.997596854E0
5.995717375E0,-1.937720490E0,3.202141113E0,8.748407593E0,9.515414012E0
6.005760375E0,-4.148323517E0,4.484374695E0,5.409151611E0,8.159480716E0
6.015803375E0,-6.720424805E0,7.607180786E0,-4.334985352E0,1.103745474E1
6.025846375E0,-4.677622833E0,6.395899658E0,4.839436340E-1,7.938632707E0
6.035889375E0,-1.459764404E0,2.902613983E0,8.463699646E0,9.065886154E0
6.045932375E0,-1.846859436E0,3.344345398E0,1.251457581E1,1.308472940E1
6.055975375E0,-3.411256256E0,4.237687683E0,1.317694839E1,1.425575796E1
6.066018375E0,-3.625909882E0,3.558400269E0,1.103475311E1,1.214805380E1
6.076061375E0,-3.735931091E0,2.952460327E0,8.691825256E0,9.910702770E0
6.086105375E0,-4.090094604E0,2.965034180E0,7.300767975E0,8.878148151E0
6.096148375E0,-3.587888947E0,3.319646759E0,6.690786438E0,8.286110357E0
6.106191375E0,-2.709964600E0,3.419189758E0,6.765181732E0,8.049996932E0
6.116234375E0,-1.711091766E0,3.450175323E0,7.276668091E0,8.232948639E0
6.126277375E0,1.222956848E-1,3.429069214E0,7.893235931E0,8.606779036E0
6.136320375E0,5.448669434E-1,3.892355804E0,9.085356903E0,9.899041557E0
6.146363375E0,-6.885681152E-3,4.246818695E0,1.057505905E1,1.139593745E1
6.156406375E0,-9.595046997E-2,4.181255035E0,1.151809799E1,1.225392515E1
6.166449375E0,-4.984634399E-2,3.526666260E0,1.165551224E1,1.217747203E1
6.176492375E0,-7.514373779E-2,2.812201996E0,1.124611359E1,1.159263548E1
6.186535375E0,-2.472857666E-1,2.618355103E0,1.084195404E1,1.115638387E1
6.196578375E0,-5.911207581E-1,2.974464569E0,1.041429337E1,1.084685989E1
6.206621375E0,-7.905061340E-1,3.429368591E0,1.000040405E1,1.060158243E1
6.216664375E0,-9.629475403E-1,3.800895996E0,9.641450500E0,1.040824894E1
6.226708375E0,-1.104702759E0,4.097129974E0,9.616452484E0,1.051108941E1
6.236751375E0,-1.201401672E0,4.227957916E0,9.879455566E0,1.081307710E1
6.246794375E0,-9.136999512E-1,3.912863159E0,9.848619690E0,1.063675963E1
6.256837375E0,-3.869453430E-1,3.196752319E0,9.444011078E0,9.977890425E0
6.266880375E0,-3.185375977E-1,2.922971649E0,9.086554413E0,9.550429339E0
6.276923375E0,-5.924679565E-1,3.212319946E0,8.895850983E0,9.476612392E0
6.286966375E0,-8.973838806E-1,3.601660309E0,8.730295258E0,9.486585798E0
6.297009375E0,-1.162482605E0,3.826193390E0,8.648864594E0,9.528587535E0
6.307052375E0,-1.101708984E0,3.894750824E0,8.638985138E0,9.540173525E0
6.317095375E0,-8.065228271E-1,3.772904205E0,8.746311951E0,9.559459083E0
6.327138375E0,-5.275030518E-1,3.577261047E0,8.932075653E0,9.636235341E0
6.337181375E0,-4.589456177E-1,3.433859253E0,9.186995544E0,9.818498235E0
6.347224375E0,-5.126838684E-1,3.324586487E0,9.353299713E0,9.939815671E0
6.357267375E0,-4.888833618E-1,3.198398895E0,9.394763489E0,9.936314379E0
6.367310375E0,-5.284011841E-1,3.003204803E0,9.435329132E0,9.915839991E0
6.377353375E0,-6.732998657E-1,2.939587097E0,9.420060883E0,9.891008646E0
6.387397375E0,-9.892927551E-1,2.939138031E0,9.397308197E0,9.895788694E0
6.397440375E0,-1.268462219E0,2.887794800E0,9.364077301E0,9.881006978E0
6.407483375E0,-1.362167358E0,2.878813477E0,9.311087494E0,9.840702072E0
6.417526375E0,-1.370998993E0,3.090173950E0,9.394164734E0,9.983944327E0
6.427569375E0,-1.289718018E0,3.417692871E0,9.538764038E0,1.021430450E1
6.437612375E0,-1.012793884E0,3.437002716E0,9.619745636E0,1.026539065E1
6.447655375E0,-8.322692871E-1,3.331921234E0,9.510323181E0,1.011141030E1
6.457698375E0,-9.508227539E-1,3.423830109E0,9.253457336E0,9.912272656E0
6.467741375E0,-1.432820435E0,3.622766418E0,8.818910980E0,9.641089243E0
6.477784375E0,-1.982477417E0,3.881278839E0,8.398585052E0,9.462070229E0
6.487827375E0,-2.286046143E0,4.015100555E0,7.876620483E0,9.131713403E0
6.497870375E0,-2.566862183E0,4.046834564E0,7.381001129E0,8.800274378E0
6.507913375E0,-2.321222992E0,4.027225342E0,6.235882416E0,7.777714937E0
6.517956375E0,-2.145039368E0,4.214485931E0,4.037254486E0,6.217918409E0
6.527998792E0,-2.902015228E0,4.449197845E0,6.957831116E0,8.753768771E0
6.538042792E0,-3.240461426E0,4.254602509E0,9.879605255E0,1.123427046E1
6.548085792E0,-3.016227722E0,3.611539764E0,1.068388275E1,1.167416806E1
6.558128792E0,-2.822530518E0,3.373834076E0,1.010353958E1,1.101957109E1
6.558128792E0,-2.240690460E0,3.324736176E0,7.473658447E0,8.481163538E0
6.568171792E0,-1.991458740E0,3.100352783E0,6.938670959E0,7.856414575E0
6.578214792E0,-2.098037109E0,3.321293335E0,7.081623688E0,8.098280261E0
6.588257792E0,-2.083517303E0,3.562441864E0,7.703730011E0,8.739536170E0
6.598300792E0,-1.843715973E0,3.646117859E0,8.527017975E0,9.455342383E0
6.608343792E0,-1.609004059E0,3.800596619E0,9.436975708E0,1.029999705E1
6.618386792E0,-1.257984009E0,4.025279388E0,1.027253815E1,1.110452331E1
6.628429792E0,-5.698649597E-1,4.298760681E0,1.083671494E1,1.167212406E1
6.638472792E0,1.722917175E-1,4.176165619E0,1.081441132E1,1.159403018E1
6.648515792E0,3.622467041E-1,4.211641846E0,1.051099228E1,1.132917068E1
6.658558792E0,3.143463135E-1,4.004472656E0,1.033480865E1,1.108796125E1
6.668601792E0,1.173559570E-1,3.481759644E0,1.019410126E1,1.077293475E1
6.678644792E0,-2.559677124E-2,2.960244141E0,1.039752823E1,1.081074900E1
6.688687792E0,2.140548706E-2,2.084565125E0,1.053554123E1,1.073980907E1
6.698730792E0,-3.520678711E-1,1.323547668E0,1.167377426E1,1.175383919E1
6.708773792E0,-1.261426849E0,1.197659454E0,1.585398148E1,1.594911642E1
6.718816792E0,-7.351213074E-1,1.300196228E0,1.663565598E1,1.670257355E1
6.728859792E0,6.526428223E-1,-4.114942932E-1,1.409783340E1,1.411892974E1
6.738902792E0,4.999603271E-2,-6.698570251E-1,1.280437317E1,1.282198036E1
6.748945792E0,1.734892273E-1,-9.250762939E-2,1.147543671E1,1.147712088E1
6.758988792E0,2.028282166E-1,2.165995789E-1,1.101589233E1,1.101988832E1
6.769031792E0,-3.691323853E-1,1.408570862E-1,1.079510147E1,1.080232916E1
6.779074792E0,-5.104385376E-1,7.274871826E-1,1.010862900E1,1.014761870E1
6.789117792E0,5.763015747E-2,5.517526245E-1,9.457483063E0,9.473739392E0
6.799161792E0,1.371148682E-1,-1.194515991E-1,8.662635956E0,8.664544470E0
6.809204792E0,-1.836680603E-1,-1.864522705E0,7.570507050E0,7.798894528E0
6.819247792E0,-1.640588379E0,-2.726580048E0,5.642216949E0,6.477683312E0
6.829290792E0,-4.726121979E0,-2.918930054E-2,7.119944000E0,8.545799175E0
6.839333792E0,-3.554358673E0,3.805087280E-1,6.041436768E0,7.019772837E0
6.849376792E0,-3.592978363E0,4.444258118E-1,8.278235321E0,9.035274642E0
6.859419792E0,-3.356170807E0,4.041595459E-1,6.444398804E0,7.277190623E0
6.869462792E0,-4.164789276E0,1.414109344E0,1.676363983E0,4.706949241E0
6.879505792E0,-2.661166077E0,1.669927368E0,3.958368530E0,5.053626789E0
6.889548792E0,-1.041833496E0,1.407822418E0,4.729115753E0,5.043006722E0
6.899591792E0,-3.095562744E-1,2.439177704E0,4.208947449E0,4.874489879E0
6.909634375E0,-5.885760498E-1,4.113895111E0,8.173303528E0,9.169157285E0
6.919677375E0,1.169517975E0,3.418141937E0,8.525221710E0,9.259096706E0
6.929720375E0,2.510429535E0,3.344046021E0,9.192534027E0,1.009889014E1
6.939763375E0,2.724634094E0,3.002606049E0,8.728349304E0,9.624102847E0
6.949806375E0,2.257904663E0,2.489024048E0,7.989485779E0,8.667482748E0
6.959849375E0,1.155147858E0,2.660267944E0,8.065827026E0,8.571403486E0
6.969892375E0,-7.192543030E-1,2.725532227E0,8.402626648E0,8.862843068E0
6.979935375E0,-5.081932068E-1,1.479373627E0,8.473728790E0,8.616895396E0
6.989978375E0,6.658154297E-1,5.806425476E-1,8.472082214E0,8.518018138E0
7.000021375E0,1.824705505E0,1.353784790E0,9.349108429E0,9.621232346E0
7.010064375E0,2.718047791E0,2.373763733E0,9.009015656E0,9.704890578E0
7.020107375E0,2.974015503E0,2.664309540E0,8.013735352E0,8.953394207E0
7.030150375E0,2.641556854E0,2.749183044E0,8.626111908E0,9.431099441E0
7.040193375E0,2.383493500E0,2.290686493E0,9.148824921E0,9.727758390E0
7.050236375E0,1.990560608E0,1.685494995E0,9.053173828E0,9.421421404E0
7.060279375E0,1.976190491E0,1.482217712E0,8.756191406E0,9.097977036E0
7.070322375E0,2.080972595E0,1.527124329E0,7.957003326E0,8.365193219E0
7.080365375E0,2.211052094E0,2.043700104E0,7.409891052E0,7.998246488E0
7.090408375E0,3.241359558E0,2.415227509E0,6.685996399E0,7.812956134E0
7.100452375E0,4.170627136E0,2.158211975E0,5.807473297E0,7.468517640E0
7.110495375E0,5.072052612E0,1.786684570E0,5.420527954E0,7.635449087E0
7.120538375E0,4.108506317E0,2.065554657E0,5.567222900E0,7.220824816E0
7.130581375E0,4.311633911E0,2.075733490E0,5.726342010E0,7.462563187E0
7.140624375E0,5.676345978E0,1.815275116E0,5.456453247E0,8.080161474E0
7.150667375E0,5.852080536E0,1.926643524E0,5.662724304E0,8.368109011E0
7.160710375E0,5.099745026E0,2.146835632E0,6.108796692E0,8.242190218E0
7.170753375E0,4.195176086E0,2.135459290E0,6.529421997E0,8.049412425E0
7.180796375E0,4.584815826E0,1.097218323E0,6.177952881E0,7.771198492E0
7.190839375E0,5.078489227E0,3.146456909E-1,5.351222076E0,7.384147375E0
7.200882375E0,5.367388458E0,6.152206421E-1,4.860692139E0,7.267302345E0
7.210925375E0,6.696773987E0,4.867877197E-1,4.906347198E0,8.316007873E0
7.220968375E0,7.896080017E0,4.354444885E-1,5.238207092E0,9.485594609E0
7.231011375E0,8.681047668E0,4.290078735E-1,5.829028473E0,1.046528592E1
7.241054375E0,8.814270630E0,1.691482544E-1,6.229146423E0,1.079454691E1
7.251097375E0,8.672216034E0,-6.885681152E-2,6.230343933E0,1.067844828E1
7.261140375E0,8.957822113E0,1.181044006E-1,6.264772339E0,1.093178385E1
7.271183375E0,9.035510559E0,2.598596191E-1,5.713319092E0,1.069345562E1
7.281226375E0,9.163344727E0,3.954776001E-1,4.442162476E0,1.019098114E1
7.291269375E0,8.733887787E0,2.718347168E-1,3.146606598E0,9.287401309E0
7.301312375E0,7.964936829E0,-2.360591125E-1,2.560425568E0,8.369690656E0
7.311355375E0,7.101083221E0,-8.982820129E-1,2.441572723E0,7.562643113E0
7.321398375E0,6.416257324E0,-1.553469543E0,2.367626495E0,7.013364449E0
7.331441375E0,5.935008087E0,-2.103575592E0,2.256407776E0,6.688850971E0
7.341484375E0,6.102210388E0,-2.358645172E0,2.215542755E0,6.907156316E0
7.351527375E0,6.341712341E0,-2.476599884E0,2.117197266E0,7.129753619E0
7.361570375E0,6.430328064E0,-2.796784058E0,1.629661102E0,7.199091289E0
7.371613375E0,6.538702698E0,-3.221750336E0,9.839039612E-1,7.355431680E0
7.381656375E0,7.113956451E0,-3.733087006E0,1.573228455E-1,8.035487880E0
7.391699375E0,7.576494598E0,-4.154011688E0,-7.135661316E-1,8.669963099E0
7.401742375E0,7.662116547E0,-5.314548340E0,-1.078507233E0,9.386992696E0
7.411786375E0,7.941585388E0,-6.676266632E0,-6.548881531E-1,1.039568146E1
7.421829375E0,8.186027069E0,-7.855963440E0,1.432521057E-1,1.134670533E1
7.431872375E0,8.475525055E0,-9.000034332E0,5.903723145E-1,1.237673957E1
7.441915375E0,8.888965302E0,-9.782457275E0,9.005273438E-1,1.324843855E1
7.451958375E0,9.191336517E0,-1.035830978E1,5.837860107E-1,1.386059359E1
7.462001375E0,9.318571930E0,-1.070693481E1,1.197509766E-1,1.419466718E1
7.472044375E0,9.623338165E0,-1.082788330E1,-9.145980835E-2,1.448654752E1
7.482087375E0,1.040725800E1,-1.051144135E1,-3.270698547E-1,1.479555314E1
7.492130375E0,1.097308136E1,-9.994266815E0,-3.234773254E-1,1.484582505E1
7.502173375E0,1.099972595E1,-9.654024353E0,9.729766846E-3,1.463537673E1
7.512216375E0,1.074720108E1,-9.752818909E0,-6.960525513E-2,1.451291331E1
7.522259375E0,1.040082138E1,-1.007479935E1,-3.855981445E-1,1.448541864E1
7.532302375E0,1.014919464E1,-1.045545776E1,-5.999523926E-1,1.458364467E1
7.542345375E0,9.994865570E0,-1.082488953E1,-6.508465576E-1,1.474785314E1
7.552388375E0,9.736502838E0,-1.123743164E1,-6.471043396E-1,1.488281228E1
7.562431375E0,9.536967773E0,-1.169053940E1,-5.501060486E-1,1.509718790E1
7.572474375E0,9.427245941E0,-1.166913391E1,-5.993536377E-1,1.501335662E1
7.582517375E0,9.630672913E0,-1.125853775E1,-7.958949280E-1,1.483704761E1
7.592560375E0,1.033241364E1,-1.076636124E1,-9.782157898E-1,1.495427069E1
7.602603375E0,9.752070465E0,-1.063433578E1,-1.479822693E0,1.450454588E1
7.612646375E0,9.103768616E0,-1.066726730E1,-1.601070557E0,1.411497863E1
7.622689375E0,9.228908386E0,-1.062325882E1,-1.199455719E0,1.412321040E1
7.632732375E0,9.133257294E0,-1.012105316E1,-7.167095947E-1,1.365158520E1
7.642775375E0,8.596323853E0,-9.655371552E0,-1.679507446E-1,1.292869642E1
7.652818375E0,8.229736176E0,-9.499395905E0,2.344125366E-1,1.257068134E1
7.662861375E0,8.054600372E0,-9.217232666E0,5.619314575E-1,1.225355998E1
7.672904375E0,8.059091034E0,-8.606802063E0,7.509883118E-1,1.181482008E1
7.682947375E0,8.054750061E0,-8.047565002E0,9.228309631E-1,1.142339345E1
7.692990375E0,8.276289368E0,-7.564369812E0,8.720864868E-1,1.124620786E1
7.703033375E0,9.018446045E0,-6.938670959E0,7.304809570E-2,1.137905355E1
7.713077375E0,9.563163300E0,-6.466253357E0,-1.654060364E-1,1.154529705E1
7.723120375E0,9.527836761E0,-6.046077118E0,-2.390528870E-1,1.128680062E1
7.733163375E0,9.574988708E0,-5.592819672E0,-3.653901672E-1,1.109475329E1
7.743206375E0,9.827663269E0,-5.220843201E0,-6.325845337E-1,1.114631474E1
7.753249375E0,9.843081207E0,-5.023403778E0,-1.069226532E0,1.110243570E1
7.763292375E0,9.684411163E0,-5.165009308E0,-1.370998993E0,1.106095742E1
7.773335375E0,9.358688507E0,-5.460045776E0,-1.233285370E0,1.090495957E1
7.783378375E0,8.856632538E0,-5.667664032E0,-9.339079285E-1,1.055625594E1
7.793421375E0,8.312514038E0,-5.633385315E0,-3.855981445E-1,1.004896043E1
7.803464375E0,8.087980957E0,-5.652695160E0,6.556365967E-2,9.867760492E0
7.813507375E0,8.072712708E0,-5.731281738E0,2.420466614E-1,9.903275590E0
7.823550375E0,8.120313721E0,-5.903872833E0,3.975732422E-1,1.004755064E1
7.833593375E0,8.096513214E0,-6.083199921E0,6.385720825E-1,1.014724701E1
7.843636375E0,7.981552277E0,-6.243666229E0,9.729766846E-1,1.018013892E1
7.853679375E0,7.947572937E0,-6.320456543E0,1.367107086E0,1.024602695E1
7.863722375E0,7.941136322E0,-6.331683197E0,1.783990173E0,1.031186109E1
7.873765375E0,7.708370361E0,-6.269263000E0,2.155517578E0,1.016704914E1
7.883808375E0,7.321724396E0,-6.007607117E0,2.427052917E0,9.776992240E0
7.893851375E0,7.771838379E0,-5.458698578E0,2.874921570E0,9.922904614E0
7.903894375E0,8.228089600E0,-5.668562164E0,2.536026306E0,1.030851516E1
7.913937625E0,8.503816223E0,-5.970184937E0,1.958527222E0,1.057326002E1
7.923980625E0,9.050030365E0,-6.010451202E0,1.459914093E0,1.096174815E1
7.934023625E0,9.529183960E0,-6.053561554E0,1.034199371E0,1.133668923E1
7.944066625E0,9.919572144E0,-6.321204987E0,6.179150391E-1,1.177868257E1
7.954109625E0,1.020607635E1,-6.703060913E0,3.891906738E-1,1.221664805E1
7.964152625E0,1.037492523E1,-7.135511627E0,4.008663940E-1,1.259822581E1
7.974195625E0,1.087997498E1,-7.904911652E0,6.243516541E-1,1.346296025E1
7.984238625E0,1.132514923E1,-8.932973785E0,6.920109558E-1,1.444077231E1
7.994281625E0,1.109088638E1,-9.501491547E0,9.535171509E-1,1.463541244E1
8.004324625E0,1.075648178E1,-9.616302795E0,1.308878174E0,1.448752366E1
8.014367625E0,1.074899734E1,-9.871671753E0,1.346749420E0,1.465621306E1
8.024411625E0,1.088596252E1,-1.024439667E1,1.326691132E0,1.500706342E1
8.034453625E0,1.087009552E1,-1.018257523E1,1.482816467E0,1.496805129E1
8.044497625E0,1.074750046E1,-9.668394470E0,1.742526398E0,1.456101013E1
8.054540625E0,1.079704742E1,-8.992699585E0,1.984722748E0,1.419098317E1
8.064583625E0,1.096439941E1,-8.360863495E0,2.144739990E0,1.395428259E1
8.074626625E0,1.110435837E1,-8.045020294E0,2.117346954E0,1.387487962E1
8.084669625E0,1.109642487E1,-8.108488312E0,1.960922241E0,1.388248694E1
8.094712625E0,1.091994186E1,-8.315956879E0,1.835483093E0,1.384807811E1
8.104755625E0,1.070259384E1,-8.763226776E0,1.763931885E0,1.394457293E1
8.114798625E0,1.038106247E1,-9.500743103E0,1.674867096E0,1.417165330E1
8.124841625E0,1.005833359E1,-1.034364029E1,1.479972382E0,1.450349224E1
8.134884625E0,9.862091675E0,-1.119372253E1,1.221459961E0,1.496837469E1
8.144927625E0,9.810299377E0,-1.199650314E1,8.919950867E-1,1.552268394E1
8.154970625E0,9.743837585E0,-1.261980698E1,5.734574890E-1,1.595401995E1
8.165013625E0,9.286388855E0,-1.266351608E1,3.963757324E-1,1.570855726E1
8.175056625E0,8.768615570E0,-1.222358093E1,2.139051819E-1,1.504494285E1
8.185099625E0,8.501720581E0,-1.175894714E1,-1.676513672E-2,1.451042287E1
8.195142625E0,8.369246063E0,-1.144504990E1,-1.254391479E-1,1.417918128E1
8.205185625E0,8.501570892E0,-1.121183487E1,-2.353106689E-1,1.407257332E1
8.215228625E0,8.785081329E0,-1.106768463E1,-3.062631226E-1,1.413382801E1
8.225271625E0,8.833281097E0,-1.096260315E1,-2.392025757E-1,1.408058027E1
8.235314625E0,8.748557281E0,-1.093805420E1,-1.248403931E-1,1.400692219E1
8.245357625E0,8.381819916E0,-1.097727264E1,3.772155762E-2,1.381147504E1
8.255400625E0,8.227341156E0,-1.036564453E1,3.412902832E-1,1.323828569E1
8.265443625E0,8.476572876E0,-9.384285278E0,5.954617310E-1,1.265984489E1
8.275486625E0,7.874225464E0,-8.904832306E0,7.461982727E-1,1.191034327E1
8.285529625E0,6.981032867E0,-8.591234436E0,8.470884705E-1,1.110232804E1
8.295572625E0,6.087989960E0,-8.332272949E0,7.942483521E-1,1.034993839E1
8.305615625E0,5.173990631E0,-8.084388428E0,5.857319641E-1,9.616163332E0
8.315658625E0,4.415667572E0,-7.888445892E0,4.531077576E-1,9.051574744E0
8.325701625E0,4.060007172E0,-7.930658112E0,-4.475692749E-2,8.909601534E0
8.335744625E0,3.382216644E0,-7.696694641E0,-2.671943665E-1,8.411295421E0
8.345787625E0,2.891686707E0,-7.347321167E0,-1.142124939E-1,7.896709747E0
8.355830625E0,2.335293732E0,-7.201374664E0,1.299298096E-1,7.571675880E0
8.365874625E0,1.672023010E0,-6.806495819E0,3.580554199E-1,7.017994725E0
8.375917625E0,1.347946930E0,-6.353986816E0,3.698808289E-1,6.505914326E0
8.385960625E0,1.288819885E0,-6.034401398E0,2.315684509E-1,6.174842579E0
8.396003625E0,1.070573730E0,-5.621859283E0,1.194515991E-1,5.724133000E0
8.406046625E0,9.246272278E-1,-5.238955536E0,-1.823208618E-1,5.323047202E0
8.416089625E0,9.828561401E-1,-5.006189575E0,-4.064048767E-1,5.117920005E0
8.426132625E0,9.589059448E-1,-4.987478485E0,-7.002438354E-1,5.126868799E0
8.436175625E0,9.147477722E-1,-5.100643158E0,-9.602531433E-1,5.270238155E0
8.446218625E0,8.705895996E-1,-5.217699738E0,-1.168919220E0,5.417443026E0
8.456261625E0,1.073417816E0,-5.368436279E0,-1.256187744E0,5.616969071E0
8.466304625E0,1.489103394E0,-5.667364655E0,-1.280587006E0,5.998029187E0
8.476347625E0,1.907633057E0,-5.950276337E0,-1.203048248E0,6.363346403E0
8.486390625E0,2.245181122E0,-6.148314514E0,-1.082698517E0,6.634368524E0
8.496433625E0,2.562371521E0,-6.393354950E0,-9.770182800E-1,6.956673059E0
8.506476625E0,2.972368927E0,-6.639592896E0,-8.696914673E-1,7.326358857E0
8.516519625E0,3.632645874E0,-7.148833923E0,-9.463320923E-1,8.074496080E0
8.526562625E0,4.354893951E0,-8.046367493E0,-1.112636261E0,9.216674596E0
8.536605625E0,4.768932953E0,-9.049431610E0,-1.236428833E0,1.030357657E1
8.546648625E0,4.953499146E0,-1.001701950E1,-1.426084442E0,1.126550267E1
8.556691625E0,5.159919891E0,-1.099837875E1,-1.614392853E0,1.225542218E1
8.566734625E0,5.283562775E0,-1.177077255E1,-1.660646667E0,1.300864595E1
8.576777625E0,5.485492859E0,-1.206580902E1,-1.566193085E0,1.334643548E1
8.586820625E0,6.064189453E0,-1.194381271E1,-1.373244324E0,1.346532049E1
8.596863625E0,6.901548157E0,-1.161105469E1,-1.101708984E0,1.355218509E1
8.606906625E0,7.945926361E0,-1.138816818E1,-8.972341919E-1,1.391521288E1
8.616949625E0,9.057215424E0,-1.124356888E1,-6.981481934E-1,1.445470177E1
8.626992625E0,1.010234207E1,-1.120255417E1,-5.774990845E-1,1.509596106E1
8.637035625E0,1.101304825E1,-1.124776016E1,-6.078858948E-1,1.575337633E1
8.647078625E0,1.165551224E1,-1.135867950E1,-8.318202209E-1,1.629608820E1
8.657121625E0,1.203407501E1,-1.154803574E1,-1.262923737E0,1.672635845E1
8.667164625E0,1.226055405E1,-1.186238205E1,-1.692680054E0,1.714358362E1
8.677207625E0,1.208437042E1,-1.216520233E1,-2.021246796E0,1.726585054E1
8.687251625E0,1.141496246E1,-1.209769272E1,-2.384691010E0,1.680304402E1
8.697294625E0,1.075244019E1,-1.176298874E1,-2.587519226E0,1.614552971E1
8.707337625E0,1.037432648E1,-1.136257141E1,-2.350112915E0,1.556463008E1
8.717380625E0,1.014096176E1,-1.081755478E1,-1.829196167E0,1.494003198E1
8.727423625E0,9.962532806E0,-1.018047958E1,-1.055904236E0,1.428317746E1
8.737466625E0,9.970316620E0,-9.657467194E0,-3.472778320E-1,1.388504548E1
8.747509625E0,1.019784348E1,-9.093290405E0,2.971321106E-1,1.366646368E1
8.757552625E0,1.027628036E1,-8.333919525E0,8.325686646E-1,1.325704806E1
8.767595625E0,1.023391846E1,-7.450456696E0,1.158141632E0,1.271155710E1
8.777638625E0,1.019065842E1,-6.629414062E0,1.207688599E0,1.221708482E1
8.787681625E0,1.004156845E1,-5.950575714E0,1.008303223E0,1.171576390E1
8.797724625E0,9.731563110E0,-5.500012665E0,7.963439941E-1,1.120658840E1
8.807767625E0,9.389674072E0,-5.140610046E0,7.798782349E-1,1.073312913E1
8.817810625E0,9.163644104E0,-4.869523773E0,8.945397949E-1,1.041560543E1
8.827853625E0,9.006620636E0,-4.672982483E0,1.087488556E0,1.020483277E1
8.837896625E0,8.876990204E0,-4.479884033E0,1.183738403E0,1.001356843E1
8.847939625E0,8.797355804E0,-4.283941498E0,1.261875916E0,9.865999936E0
8.857982625E0,8.790619812E0,-4.129313049E0,1.301693115E0,9.799011578E0
8.868025625E0,8.884474640E0,-4.053121490E0,1.241218872E0,9.843896979E0
8.878068625E0,8.970545654E0,-4.099524994E0,1.058748322E0,9.919563625E0
8.888111625E0,8.913663940E0,-4.320016479E0,8.990304565E-1,9.946064699E0
8.898154625E0,8.564739532E0,-4.487368469E0,8.595126343E-1,9.707213864E0
8.908198500E0,8.210276642E0,-4.487069092E0,9.395960999E-1,9.403471295E0
8.918241500E0,8.126450958E0,-4.512067108E0,1.068927155E0,9.356311240E0
8.928284500E0,8.096363525E0,-4.569098511E0,1.208137665E0,9.374825873E0
8.938327500E0,8.178842010E0,-4.710554352E0,1.328337708E0,9.531382901E0
8.948370500E0,8.346942444E0,-5.048401794E0,1.493444366E0,9.868545228E0
8.958413500E0,8.475974121E0,-5.496270447E0,1.748214569E0,1.025218905E1
8.968456500E0,8.593330078E0,-5.954617310E0,1.963766327E0,1.063762978E1
8.978499500E0,8.850644989E0,-6.504274292E0,2.087409210E0,1.118019579E1
8.988542500E0,9.059460754E0,-7.118596802E0,2.143392792E0,1.171931663E1
8.998585500E0,9.162895660E0,-7.612868958E0,2.249671783E0,1.212334334E1
9.008628500E0,9.142687683E0,-7.903863831E0,2.335144043E0,1.230904949E1
9.018671500E0,9.073980560E0,-7.972570953E0,2.427202606E0,1.232032156E1
9.028714500E0,9.118288422E0,-7.877069550E0,2.502346344E0,1.230663015E1
9.038757500E0,9.606722717E0,-7.904761963E0,2.339634705E0,1.265892071E1
9.048801500E0,1.022778122E1,-8.163274384E0,2.158361664E0,1.326292134E1
9.058844500E0,1.048165329E1,-8.354726257E0,2.088457031E0,1.356569789E1
9.068887500E0,1.059152481E1,-8.618627472E0,1.964365082E0,1.379564669E1
9.078930500E0,1.077085190E1,-9.079369354E0,1.863175507E0,1.420977204E1
9.088973500E0,1.071112610E1,-9.525741119E0,1.951940918E0,1.446644530E1
9.099016500E0,1.063673080E1,-9.702074432E0,2.106419678E0,1.455016475E1
9.109059500E0,1.050275940E1,-9.251810760E0,2.124082947E0,1.415682470E1
9.119102500E0,1.050710037E1,-8.529263306E0,2.012415161E0,1.368200663E1
9.129145500E0,1.091934311E1,-7.923772430E0,1.668131104E0,1.359414892E1
9.139188500E0,1.148142426E1,-7.478747864E0,1.173409882E0,1.375251480E1
9.149231500E0,1.189097260E1,-7.307354279E0,7.270381165E-1,1.397573756E1
9.159274500E0,1.221879089E1,-7.447313232E0,3.606001282E-1,1.431402661E1
9.169317500E0,1.224004669E1,-7.917934570E0,9.475296021E-2,1.457811404E1
9.179360500E0,1.191118057E1,-8.717871094E0,-7.125183105E-2,1.476084604E1
9.189403500E0,1.175221115E1,-9.679920502E0,-1.163081360E-1,1.522592708E1
9.199446500E0,1.164443527E1,-1.065439407E1,2.365081787E-2,1.578320453E1
9.209489500E0,1.147543671E1,-1.154983200E1,3.046165466E-1,1.628425798E1
9.219532500E0,1.121003860E1,-1.214394653E1,5.632786560E-1,1.653655604E1
9.229575500E0,1.071307205E1,-1.236533615E1,6.520440674E-1,1.637365605E1
9.239618500E0,1.016850449E1,-1.228974335E1,5.866300964E-1,1.596184231E1
9.249661500E0,9.637857971E0,-1.199844910E1,4.933740234E-1,1.539787339E1
9.259704500E0,9.199120331E0,-1.157183624E1,3.544628906E-1,1.478705017E1
9.269747500E0,8.826844482E0,-1.116378479E1,1.440005493E-1,1.423249839E1
9.279790500E0,8.581055603E0,-1.084330124E1,-6.002517700E-2,1.382806205E1
9.289833500E0,8.402327271E0,-1.049916687E1,-2.100132751E-1,1.344900420E1
9.299876500E0,8.261619873E0,-1.013437546E1,-3.507206726E-1,1.307986750E1
9.309919500E0,8.139473877E0,-9.826166382E0,-4.489164734E-1,1.276738449E1
9.319962500E0,7.962392120E0,-9.611662445E0,-3.823049927E-1,1.248718945E1
9.330005500E0,7.721542969E0,-9.381890259E0,-2.607577515E-1,1.215360380E1
9.340048500E0,7.435936890E0,-9.172924805E0,-1.712438965E-1,1.180953138E1
9.350091500E0,7.133715363E0,-9.038953400E0,-6.975494385E-2,1.151509614E1
9.360134500E0,6.750063171E0,-9.027876434E0,1.901046753E-2,1.127236741E1
9.370177500E0,6.190227356E0,-8.976533203E0,1.499880981E-1,1.090502451E1
9.380220500E0,5.502707062E0,-8.794362030E0,2.016307068E-1,1.037599361E1
9.390263500E0,4.791236572E0,-8.551267548E0,1.365161133E-1,9.802997563E0
9.400306500E0,4.246369629E0,-8.234226837E0,5.673202515E-2,9.264845663E0
9.410350500E0,3.959266663E0,-7.813751221E0,-6.496490479E-2,8.759835677E0
9.420393500E0,3.844904480E0,-7.298672333E0,-3.065625000E-1,8.255173460E0
9.430436500E0,3.857328644E0,-6.856491852E0,-5.989045715E-1,7.889813145E0
9.440479500E0,3.710783386E0,-6.500083008E0,-8.214916992E-1,7.529664074E0
9.450522500E0,3.446882172E0,-6.290818176E0,-9.482780457E-1,7.235649334E0
9.460565500E0,3.152743835E0,-6.249354401E0,-9.988728333E-1,7.070500057E0
9.470608500E0,2.791095886E0,-6.305487671E0,-9.705816650E-1,6.963578088E0
9.480651500E0,2.489173737E0,-6.437213745E0,-8.051756287E-1,6.948526066E0
9.490694500E0,2.276466064E0,-6.623576202E0,-6.845265198E-1,7.037232127E0
9.500737500E0,2.071093140E0,-6.922803955E0,-5.809419250E-1,7.249285131E0
9.510780500E0,1.755699005E0,-7.267237701E0,-5.667214966E-1,7.497759403E0
9.520823500E0,1.222807159E0,-7.524702301E0,-7.026388550E-1,7.655723573E0
9.530866500E0,7.053332520E-1,-7.679031372E0,-9.967771912E-1,7.775511725E0
9.540909500E0,3.022215271E-1,-7.865543518E0,-1.356030121E0,7.987298065E0
9.550952500E0,-3.278182983E-2,-8.039182434E0,-1.497785339E0,8.177584593E0
9.560995500E0,-1.440005493E-1,-8.227191467E0,-1.480870514E0,8.360645494E0
9.571038500E0,1.053808594E-1,-8.502019958E0,-1.346150665E0,8.608575382E0
9.581081500E0,7.737409973E-1,-8.974886627E0,-1.104553070E0,9.075643370E0
9.591124500E0,1.471589813E0,-9.702074432E0,-8.518785095E-1,9.849950348E0
9.601167500E0,2.057321777E0,-1.033166519E1,-7.292834473E-1,1.055972220E1
9.611210500E0,2.791994019E0,-1.103056183E1,-9.514215088E-1,1.141813153E1
9.621253500E0,3.359463959E0,-1.172317154E1,-1.397044830E0,1.227479056E1
9.631296500E0,3.601360931E0,-1.205383392E1,-1.884880371E0,1.272075025E1
9.641339500E0,4.027524719E0,-1.206565933E1,-2.172282715E0,1.290425909E1
9.651382500E0,4.712350616E0,-1.193947174E1,-2.000589752E0,1.299075029E1
9.661425500E0,5.651048584E0,-1.185819077E1,-1.585652618E0,1.323122566E1
9.671468500E0,6.881639557E0,-1.196611633E1,-1.158590698E0,1.385233682E1
9.681511500E0,8.288863220E0,-1.214334778E1,-6.351292419E-1,1.471630177E1
9.691554500E0,9.782906342E0,-1.247281265E1,-2.293231201E-1,1.585335614E1
9.701597500E0,1.118938156E1,-1.299013687E1,-2.005828857E-1,1.714602430E1
9.711640500E0,1.220591766E1,-1.336435867E1,-4.599934387E-1,1.810530593E1
9.721683500E0,1.270497986E1,-1.349084564E1,-8.219407654E-1,1.854979827E1
9.731726500E0,1.275707153E1,-1.358185638E1,-1.189725952E0,1.867150623E1
9.741769500E0,1.238704102E1,-1.349383942E1,-1.552571411E0,1.838295312E1
9.751812500E0,1.187091431E1,-1.316407516E1,-1.866318970E0,1.782399024E1
9.761855500E0,1.138068375E1,-1.265019379E1,-2.077230377E0,1.714241090E1
9.771898500E0,1.112022537E1,-1.177750854E1,-1.939666443E0,1.631353505E1
9.781941500E0,1.106109833E1,-1.067804489E1,-1.476828918E0,1.544504978E1
9.791984500E0,1.113025452E1,-9.622440033E0,-9.202862549E-1,1.474180601E1
9.802027500E0,1.122800125E1,-8.558751984E0,-2.501298523E-1,1.412029789E1
9.812071500E0,1.121617584E1,-7.640261993E0,4.005670166E-1,1.357706367E1
9.822114500E0,1.106663681E1,-6.898105316E0,8.713380432E-1,1.306956530E1
9.832157500E0,1.062310913E1,-6.377787323E0,1.059646454E0,1.243581398E1
9.842200500E0,1.004815475E1,-6.080355835E0,1.019529877E0,1.178879053E1
9.852243500E0,9.463620300E0,-6.013145599E0,8.104147339E-1,1.124165474E1
9.862286500E0,9.006321259E0,-5.949527893E0,5.631289673E-1,1.080869183E1
9.872329500E0,8.708889771E0,-5.848787384E0,2.561174011E-1,1.049374438E1
9.882372500E0,8.523575134E0,-5.744753723E0,-1.213975525E-1,1.027950708E1
9.892415500E0,8.457712097E0,-5.623505859E0,-3.507206726E-1,1.016266289E1
9.902458500E0,8.450377350E0,-5.613626404E0,-2.345622253E-1,1.014774350E1
9.912500250E0,8.393944702E0,-5.570516052E0,7.843688965E-2,1.007447811E1
9.922543250E0,8.267607422E0,-5.466781769E0,3.701802063E-1,9.918471091E0
9.932586250E0,8.144862671E0,-5.348228302E0,7.949967957E-1,9.776213674E0
9.942629250E0,8.012687531E0,-5.135520630E0,1.247954865E0,9.598652246E0
9.952672250E0,7.925868073E0,-4.812342682E0,1.626068573E0,9.413932536E0
9.962715250E0,7.890092468E0,-4.543501740E0,1.866318970E0,9.294090257E0
9.972758250E0,7.925718384E0,-4.418811035E0,1.998793488E0,9.291828575E0
9.982801250E0,8.064030762E0,-4.521198120E0,2.086960144E0,9.477617169E0
9.992844250E0,8.253386993E0,-4.657714233E0,2.259551239E0,9.742600810E0
1.000288725E1,8.472082214E0,-4.751569061E0,2.447560272E0,1.001719207E1
1.001293025E1,8.142168274E0,-4.942721558E0,2.574496307E0,9.866784270E0
1.002297325E1,8.235274658E0,-5.428162079E0,2.447260895E0,1.016237069E1
1.003301625E1,8.730894012E0,-5.996679840E0,2.394720154E0,1.085925246E1
1.004305925E1,9.219777374E0,-6.600823517E0,2.742896118E0,1.166613239E1
1.005310225E1,9.370513916E0,-7.102879486E0,3.301983490E0,1.221312912E1
1.006314525E1,9.534123688E0,-7.351811829E0,3.840114441E0,1.263705387E1
1.007318825E1,9.889933777E0,-7.347620544E0,4.296365662E0,1.304825949E1
1.008323125E1,1.042252625E1,-7.215595093E0,4.518204346E0,1.345763859E1
1.009327425E1,1.130823441E1,-7.476502533E0,4.684358826E0,1.434285443E1
1.010331725E1,1.215891541E1,-8.049211578E0,4.113895111E0,1.515101197E1
1.011336025E1,1.208212509E1,-8.364306335E0,3.185076599E0,1.503609258E1
1.012340325E1,1.152558243E1,-8.642128601E0,3.567830658E0,1.484098557E1
1.013344625E1,1.033211426E1,-8.830437012E0,4.318968658E0,1.426123042E1
1.014348925E1,9.318422241E0,-8.575367432E0,4.662504272E0,1.349477179E1
1.015353225E1,9.313781891E0,-8.477620697E0,4.624483337E0,1.341649850E1
1.016357525E1,9.258247375E0,-8.385861511E0,4.074976044E0,1.313937774E1
1.017361825E1,1.008408005E1,-8.224796448E0,3.126847687E0,1.338331512E1
1.018366125E1,1.124027573E1,-8.455616455E0,2.403551788E0,1.426948875E1
1.019370425E1,1.201671112E1,-8.963510284E0,1.793420563E0,1.509841780E1
1.020374725E1,1.196701447E1,-9.832004242E0,1.291663971E0,1.554175468E1
1.021379025E1,1.151106262E1,-1.068582870E1,4.975653076E-1,1.571429505E1
1.022383325E1,1.133772308E1,-1.139490417E1,-3.641926575E-1,1.607857090E1
1.023387725E1,1.105960144E1,-1.166299667E1,-1.054107971E0,1.610749574E1
1.024392025E1,1.106753494E1,-1.169308411E1,-1.313967590E0,1.615379387E1
1.025396325E1,1.119447098E1,-1.159833115E1,-9.630972290E-1,1.614822040E1
1.026400625E1,1.116363510E1,-1.141181900E1,7.753875732E-2,1.596440960E1
1.027404925E1,1.114088242E1,-1.108744354E1,1.027762756E0,1.575141142E1
1.028409225E1,1.085662354E1,-1.100810852E1,1.543889465E0,1.553796391E1
1.029413525E1,1.042851379E1,-1.081785416E1,1.799408112E0,1.513333202E1
1.030417825E1,9.856852570E0,-1.071486832E1,1.820514221E0,1.467243053E1
1.031422125E1,9.338779907E0,-1.070334229E1,1.599873047E0,1.429454231E1
1.032426425E1,8.933273163E0,-1.049033524E1,1.075513458E0,1.382053660E1
1.033430725E1,8.593779144E0,-1.016131943E1,3.082090759E-1,1.331166576E1
1.034435025E1,8.387358398E0,-9.994117126E0,-3.986210632E-1,1.305331593E1
1.035439325E1,8.077053680E0,-9.771679688E0,-8.714877319E-1,1.270763593E1
1.036443625E1,7.755971375E0,-9.610015869E0,-9.889933777E-1,1.238893074E1
1.037447925E1,7.635621643E0,-9.680070190E0,-5.905220032E-1,1.234322458E1
1.038452225E1,7.530839539E0,-9.818232880E0,-1.547781372E-1,1.237478070E1
1.039456525E1,6.857240295E0,-9.903256073E0,-3.650907898E-1,1.205112097E1
1.040460825E1,6.560108185E0,-9.967023468E0,-2.815644836E-1,1.193548720E1
1.041465125E1,6.275100861E0,-9.753866730E0,-3.655398560E-1,1.160381086E1
1.042469425E1,6.664890289E0,-9.607022095E0,-6.439608765E-1,1.171026565E1
1.043473725E1,6.204148407E0,-8.461005249E0,-1.096320190E0,1.054902769E1
1.044478025E1,5.727988586E0,-7.757019196E0,-1.379680939E0,9.740878787E0
1.045482325E1,5.597310333E0,-7.757019196E0,-1.157393188E0,9.635392507E0
1.046486625E1,5.010979614E0,-7.857310638E0,-1.085093536E0,9.382146617E0
1.047490925E1,4.057911530E0,-8.039481812E0,-1.298549652E0,9.098689190E0
1.048495225E1,3.253334656E0,-7.906408539E0,-1.437909851E0,8.669663610E0
1.049499525E1,2.671943665E0,-7.542964325E0,-1.305585022E0,8.108029724E0
1.050503825E1,2.277813263E0,-7.270231476E0,-1.003513184E0,7.684512846E0
1.051508125E1,2.216440887E0,-7.149732056E0,-8.695417786E-1,7.535740281E0
1.052512425E1,2.147135010E0,-7.032974854E0,-8.165519714E-1,7.398626978E0
1.053516725E1,2.110610962E0,-7.052284698E0,-9.036708069E-1,7.416604279E0
1.054521025E1,2.044448547E0,-7.212301941E0,-8.786727905E-1,7.547790075E0
1.055525325E1,1.842817841E0,-7.241940308E0,-7.819738770E-1,7.513531803E0
1.056529625E1,1.570534058E0,-7.242389374E0,-8.021818542E-1,7.454010786E0
1.057533925E1,1.227447510E0,-7.402705994E0,-9.156459045E-1,7.559437204E0
1.058538225E1,9.424401855E-1,-7.660919037E0,-9.264234924E-1,7.774068078E0
1.059542525E1,6.556365967E-1,-7.899223480E0,-8.072712708E-1,7.967388395E0
1.060546825E1,2.592608643E-1,-7.923922119E0,-7.545808411E-1,7.963990846E0
1.061551125E1,2.350112915E-2,-8.005053406E0,-9.120533752E-1,8.056877416E0
1.062555425E1,2.823129272E-1,-8.442593536E0,-1.228495331E0,8.536175197E0
1.063559725E1,1.224304047E0,-9.436526642E0,-2.033820648E0,9.730538623E0
1.064564025E1,1.397793274E0,-9.940378876E0,-1.840422821E0,1.020549432E1
1.065568325E1,2.023791504E0,-1.069915100E1,-1.525178375E0,1.099516863E1
1.066572625E1,3.129691772E0,-1.192914322E1,-2.051783295E0,1.250236950E1
1.067577025E1,3.870351563E0,-1.226624222E1,-1.603016510E0,1.296186643E1
1.068581325E1,4.660109253E0,-1.201371735E1,-1.125659180E0,1.293495772E1
1.069585625E1,5.641019440E0,-1.173948761E1,-1.277742920E0,1.308698959E1
1.070589925E1,6.901398468E0,-1.156390274E1,-1.446142731E0,1.354416761E1
1.071594225E1,8.158783722E0,-1.161689255E1,-1.566193085E0,1.428183829E1
1.072598525E1,9.174571381E0,-1.161330002E1,-1.818568268E0,1.491136103E1
1.073602825E1,1.006656647E1,-1.157527908E1,-2.402204590E0,1.552718368E1
1.074607125E1,1.092473190E1,-1.181133820E1,-2.945125580E0,1.635638230E1
1.075611425E1,1.132350266E1,-1.202703964E1,-3.079845428E0,1.680347710E1
1.076615725E1,1.177062286E1,-1.251472549E1,-2.976560211E0,1.743633641E1
1.077620025E1,1.213601303E1,-1.306004150E1,-3.038381653E0,1.808533272E1
1.078624325E1,1.174382858E1,-1.325748093E1,-3.172053680E0,1.799278285E1
1.079628625E1,1.130988098E1,-1.308923080E1,-3.000061340E0,1.755681460E1
1.080632925E1,1.102562210E1,-1.269375320E1,-2.512674866E0,1.700027200E1
1.081637225E1,1.078716797E1,-1.194725555E1,-1.960323486E0,1.621551036E1
1.082641525E1,1.072325089E1,-1.110061615E1,-1.216669922E0,1.548199193E1
1.083645825E1,1.074016571E1,-1.035890854E1,-3.629951477E-1,1.492614857E1
1.084650125E1,1.065529221E1,-9.588161316E0,5.420228577E-1,1.434440233E1
1.085654425E1,1.059032730E1,-8.742569733E0,1.324146423E0,1.379640974E1
1.086658725E1,1.031055908E1,-7.789052582E0,1.774709473E0,1.304325735E1
1.087663025E1,1.058164536E1,-7.483238525E0,2.155517578E0,1.313835352E1
1.088667325E1,1.054078033E1,-7.092850342E0,2.188299408E0,1.289206075E1
1.089671625E1,1.020562729E1,-6.561605072E0,1.983225861E0,1.229400969E1
1.090675925E1,9.900711365E0,-6.207890625E0,1.600771179E0,1.179510322E1
1.091680263E1,9.497300262E0,-5.993237000E0,1.017134857E0,1.127617689E1
1.092684563E1,9.122779083E0,-5.767506409E0,3.707789612E-1,1.079938449E1
1.093688863E1,8.957073669E0,-5.590574341E0,-5.837860107E-2,1.055874511E1
1.094693163E1,8.887468414E0,-5.394182739E0,-1.627116394E-1,1.039763326E1
1.095697463E1,8.885073395E0,-5.204227753E0,-7.409591675E-2,1.029728148E1
1.096701763E1,8.998387756E0,-5.113965454E0,1.715432739E-1,1.035147584E1
1.097706063E1,9.080267487E0,-5.030588837E0,5.504054260E-1,1.039524063E1
1.098710363E1,9.042096863E0,-4.810995483E0,8.158035278E-1,1.027476173E1
1.099714663E1,8.807534637E0,-4.657414856E0,9.020242310E-1,1.000389061E1
1.100718963E1,8.575367432E0,-4.595593414E0,9.800120544E-1,9.778385810E0
1.101723263E1,8.268505554E0,-4.609364777E0,1.102008362E0,9.530417104E0
1.102727563E1,8.040978699E0,-4.599934387E0,1.322799225E0,9.357699108E0
1.103731863E1,8.041876831E0,-4.533622284E0,1.577569427E0,9.365588037E0
1.104736163E1,8.152347107E0,-4.612358551E0,1.754202118E0,9.529524638E0
1.105740463E1,8.392447815E0,-4.851411438E0,1.811832275E0,9.861648415E0
1.106744763E1,8.628656616E0,-5.174739075E0,1.902992706E0,1.023977640E1
1.107749063E1,8.831185455E0,-5.619913330E0,2.090852051E0,1.067449880E1
1.108753363E1,9.033414917E0,-6.082152100E0,2.148033142E0,1.109996422E1
1.109757663E1,9.157955933E0,-6.412066040E0,2.195783844E0,1.139316525E1
1.110761963E1,9.035510559E0,-6.587501221E0,2.332898712E0,1.142269845E1
1.111766263E1,9.533674622E0,-7.177125092E0,2.470911713E0,1.218636455E1
1.112770563E1,9.871072998E0,-7.325915680E0,2.582878876E0,1.256098666E1
1.113774863E1,1.007479935E1,-7.024442596E0,2.758613434E0,1.258786415E1
1.114779163E1,1.021460861E1,-6.716383209E0,2.963387604E0,1.257893869E1
1.115783463E1,1.031654663E1,-6.512956238E0,3.036435699E0,1.257257631E1
1.116787863E1,1.048165329E1,-6.653663635E0,2.821632385E0,1.273176754E1
1.117792163E1,1.052446426E1,-7.223229218E0,2.395468597E0,1.298759632E1
1.118796463E1,1.014111145E1,-7.683522034E0,1.995500336E0,1.287869069E1
1.119800763E1,9.580826569E0,-7.874824219E0,1.780996399E0,1.252904794E1
1.120805063E1,9.292376404E0,-8.313711548E0,1.602717133E0,1.257118774E1
1.121809363E1,9.034911804E0,-8.810827789E0,1.580862579E0,1.271846862E1
1.122813663E1,8.555458832E0,-8.763077087E0,1.887425079E0,1.239152006E1
1.123817963E1,8.371042328E0,-8.330326996E0,2.232457581E0,1.201884206E1
1.124822263E1,8.943152618E0,-7.961194611E0,2.287692719E0,1.218991946E1
1.125826563E1,9.871971130E0,-7.905211029E0,1.985022125E0,1.280189393E1
1.126830863E1,1.076052338E1,-8.128247223E0,1.539997559E0,1.357309319E1
1.127835163E1,1.147813110E1,-8.527017975E0,1.220711517E0,1.435087683E1
1.128839463E1,1.185729263E1,-9.097631378E0,9.578581238E-1,1.497597334E1
1.129843763E1,1.179861465E1,-9.657018127E0,6.442602539E-1,1.526041868E1
1.130848063E1,1.151495453E1,-1.010398865E1,2.460882568E-1,1.532140084E1
1.131852363E1,1.144070892E1,-1.067594925E1,-4.041595459E-3,1.564818614E1
1.132856663E1,1.116857483E1,-1.124790985E1,-8.592132568E-2,1.585118047E1
1.133860963E1,1.072474777E1,-1.166209854E1,4.041595459E-2,1.584381238E1
1.134865263E1,1.025008484E1,-1.201820801E1,3.571572876E-1,1.579965583E1
1.135869563E1,9.885892181E0,-1.231069977E1,8.042774963E-1,1.580920793E1
1.136873863E1,9.651779022E0,-1.235336105E1,1.191222839E0,1.572200304E1
1.137878163E1,9.573342133E0,-1.213885712E1,1.395248566E0,1.552248209E1
1.138882463E1,9.640252991E0,-1.182436111E1,1.371597748E0,1.531767848E1
1.139886763E1,9.673184509E0,-1.137065460E1,1.176553345E0,1.497486435E1
1.140891063E1,9.658365326E0,-1.083491867E1,8.274792480E-1,1.453837010E1
1.141895363E1,9.520502014E0,-1.048674271E1,4.505630493E-1,1.417091169E1
1.142899663E1,9.268426208E0,-1.034768188E1,4.700225830E-2,1.389174050E1
1.143903963E1,8.951684875E0,-1.028301636E1,-2.221380615E-1,1.363533765E1
1.144908263E1,8.446934509E0,-1.017853363E1,-3.597019958E-1,1.323187950E1
1.145912563E1,7.825127563E0,-1.010443771E1,-5.252577209E-1,1.279094127E1
1.146916863E1,7.383845215E0,-1.006042923E1,-6.598278809E-1,1.249675075E1
1.147921163E1,7.062463531E0,-9.911039886E0,-7.060816956E-1,1.219039188E1
1.148925463E1,6.796316986E0,-9.676627350E0,-6.471043396E-1,1.184254134E1
1.149929763E1,6.624773712E0,-9.329948273E0,-6.240522766E-1,1.145971216E1
1.150934063E1,6.749314728E0,-8.993897095E0,-7.481442261E-1,1.126956761E1
1.151938363E1,7.121291199E0,-8.659941559E0,-8.173004150E-1,1.124167942E1
1.152942663E1,7.311994629E0,-8.322393494E0,-6.650669861E-1,1.109818963E1
1.153946963E1,7.245383148E0,-7.862549744E0,-3.490740967E-1,1.069752860E1
1.154951263E1,7.097041626E0,-7.483388214E0,-1.113684082E-1,1.031414087E1
1.155955563E1,6.926546173E0,-7.235354004E0,9.819580078E-2,1.001683742E1
1.156959863E1,6.767576752E0,-7.021748199E0,3.049159241E-1,9.756947094E0
1.157964163E1,6.827003174E0,-6.750063171E0,3.245251465E-1,9.606073169E0
1.158968463E1,6.905140686E0,-6.466702423E0,1.830693054E-1,9.462173244E0
1.159972763E1,7.107070770E0,-6.327791290E0,5.882766724E-2,9.516031644E0
1.160977063E1,7.127278748E0,-6.517746277E0,-1.721420288E-2,9.658126899E0
1.161981363E1,6.765032043E0,-6.364614716E0,1.576222229E-1,9.289716023E0
1.162985663E1,6.740183716E0,-5.933810577E0,2.046244812E-1,8.982319059E0
1.163989963E1,7.165898438E0,-5.604196014E0,-3.742218018E-2,9.097170648E0
1.164994263E1,7.599396973E0,-5.176984406E0,-3.942800903E-1,9.203665502E0
1.165998563E1,7.891140289E0,-4.904251556E0,-5.556445312E-1,9.307551732E0
1.167002863E1,7.951165466E0,-4.871769104E0,-3.595523071E-1,9.331904647E0
1.168007163E1,7.502847748E0,-4.707859955E0,9.804611206E-2,8.858119593E0
1.169011463E1,7.140002289E0,-4.526287537E0,5.035528564E-1,8.468794308E0
1.170015763E1,6.847510529E0,-4.589905243E0,8.170010376E-1,8.283907367E0
1.171020163E1,6.439608765E0,-4.535717926E0,7.830216980E-1,7.915454575E0
1.172024463E1,6.483317871E0,-4.174369354E0,5.635780334E-1,7.731519277E0
1.173028763E1,6.922205200E0,-3.684887238E0,4.770579529E-1,7.856392498E0
1.174033063E1,7.632029114E0,-3.059936829E0,6.923103333E-1,8.251689244E0
1.175037363E1,8.552315369E0,-2.307152252E0,8.586145020E-1,8.899565638E0
1.176041663E1,8.987759857E0,-1.754950562E0,8.581654358E-1,9.197615269E0
1.177045963E1,8.828640747E0,-1.717678070E0,9.330097961E-1,9.042445613E0
1.178050263E1,8.613987122E0,-1.926344147E0,1.467697906E0,8.947944627E0
1.179054563E1,8.736881561E0,-1.904788971E0,2.125280457E0,9.191198913E0
1.180058863E1,9.111851807E0,-1.737736359E0,3.373085632E0,9.870323079E0
1.181063163E1,9.544452209E0,-1.143621826E0,4.985083466E0,1.082845769E1
1.182067463E1,9.902657318E0,-5.530998230E-1,6.033203888E0,1.160896595E1
1.183071763E1,9.976004791E0,-3.547622681E-1,6.080954590E0,1.168864990E1
1.184076063E1,9.589807892E0,-7.319778442E-2,4.906945953E0,1.077255271E1
1.185080363E1,8.553812256E0,-1.778302002E-1,3.389401703E0,9.202574183E0
1.186084663E1,7.958500214E0,-1.874102783E-1,2.917433167E0,8.478458854E0
1.187088963E1,7.847431183E0,-1.688488770E-1,2.811453552E0,8.337563025E0
1.188093263E1,7.633825378E0,-1.215472412E-1,3.099903717E0,8.240113270E0
1.189097563E1,7.526797943E0,-3.531156921E-1,3.150947571E0,8.167364848E0
1.190101863E1,6.842720490E0,-2.766247559E-1,4.113296356E0,7.988651442E0
1.191106188E1,7.272925873E0,-5.731581116E-1,5.210215302E0,8.964948659E0
1.192110488E1,7.508386230E0,-8.069718933E-1,6.126160583E0,9.724037789E0
1.193114788E1,6.636000366E0,-4.839436340E-1,7.027136993E0,9.677363103E0
1.194119088E1,5.638774109E0,-1.947450256E-1,7.821984100E0,9.644539094E0
1.195123388E1,5.279072113E0,-2.742297363E-1,7.909252625E0,9.513153074E0
1.196127688E1,4.736749878E0,-5.530998230E-1,7.714956665E0,9.069910428E0
1.197131988E1,4.238735504E0,-7.625143433E-1,7.657176819E0,8.785252622E0
1.198136288E1,3.526965637E0,-7.849676514E-1,7.870932312E0,8.660671815E0
1.199140588E1,3.420237579E0,-8.415499878E-1,7.865992584E0,8.618588679E0
1.200144888E1,3.270399170E0,-1.013692017E0,8.600365448E0,9.256855194E0
1.201149188E1,2.743943939E0,-1.734892273E-1,9.743538208E0,1.012402408E1
1.202153488E1,2.292183380E0,3.191363525E-1,9.812095642E0,1.008132797E1
1.203157788E1,2.404749298E0,1.585203552E-1,1.036100418E1,1.063759162E1
1.204162088E1,2.899620209E0,-1.372645569E-1,1.074735077E1,1.113248344E1
1.205166388E1,3.048710175E0,-5.490582275E-1,1.003842499E1,1.050552592E1
1.206170688E1,3.305576019E0,-1.081950073E0,8.897347870E0,9.553022972E0
1.207174988E1,3.682641907E0,-1.267564087E0,7.142846375E0,8.135651446E0
1.208179288E1,4.143683167E0,-1.417851562E0,6.957082672E0,8.220791479E0
1.209183588E1,4.434528351E0,-1.335822144E0,7.004533997E0,8.397199474E0
1.210187888E1,3.602708130E0,-7.286846924E-1,7.770191803E0,8.595717998E0
1.211192188E1,2.238744507E0,2.505789185E-1,8.176896057E0,8.481532638E0
1.212196488E1,7.279362488E-1,1.050216064E0,7.987390137E0,8.088958286E0
1.213200788E1,8.128097534E-2,1.647024994E0,7.703430634E0,7.877952872E0
1.214205088E1,3.053649902E-2,2.149979095E0,7.682324524E0,7.977559318E0
1.215209388E1,2.496807861E-1,2.414778442E0,7.845335541E0,8.212355641E0
1.216213688E1,6.358776855E-1,2.626587982E0,8.160579987E0,8.596416147E0
1.217217988E1,1.227148132E0,2.854114838E0,8.791368256E0,9.324163225E0
1.218222288E1,1.694476318E0,3.024909668E0,9.346414032E0,9.968790486E0
1.219226588E1,1.716929626E0,3.151246948E0,9.362281036E0,1.002649046E1
1.220230888E1,1.392105103E0,3.095413055E0,9.192983093E0,9.799514108E0
1.221235188E1,7.165599060E-1,2.869532776E0,9.331894226E0,9.789378239E0
1.222239488E1,4.077520752E-1,2.421813812E0,9.578132172E0,9.887975515E0
1.223243788E1,5.098397827E-1,1.917213135E0,9.789342957E0,9.988337115E0
1.224248088E1,6.242019653E-1,1.541943512E0,9.746382294E0,9.887324497E0
1.225252388E1,7.628137207E-1,1.377884674E0,9.616452484E0,9.744568196E0
1.226256688E1,1.178199921E0,1.351090393E0,9.833650818E0,9.995713517E0
1.227260988E1,1.311871948E0,1.407523041E0,1.033016830E1,1.050783071E1
1.228265288E1,1.275198212E0,1.791175232E0,1.094044922E1,1.115920554E1
1.229269588E1,1.316212921E0,1.781894531E0,1.100721039E1,1.122792256E1
1.230273888E1,8.717871094E-1,1.294957123E0,1.076920532E1,1.088176043E1
1.231278188E1,1.223555603E0,1.708247681E0,1.038540344E1,1.059583895E1
1.232282488E1,7.646099854E-1,2.276316376E0,9.775272217E0,1.006589249E1
1.233286788E1,1.654060364E-1,2.871927795E0,9.119186554E0,9.562159370E0
1.234291088E1,-3.026705933E-1,3.581901398E0,8.790619812E0,9.497190310E0
1.235295388E1,-6.087840271E-1,4.119882660E0,8.803043976E0,9.738461601E0
1.236299688E1,-2.155517578E-1,3.838467865E0,9.022038574E0,9.807011683E0
1.237304088E1,1.197509766E-3,3.111280060E0,9.379495239E0,9.882054239E0
1.238308388E1,-8.538244629E-1,2.772534485E0,9.498946838E0,9.932066991E0
1.239312688E1,-2.067949677E0,2.408192139E0,9.359436951E0,9.883059510E0
1.240316988E1,-2.471061401E0,2.465373230E0,9.120234375E0,9.765392192E0
1.241321288E1,-2.170037384E0,2.632126465E0,8.089926910E0,8.779753379E0
1.242325588E1,-2.370620270E0,2.805166626E0,4.020040283E0,5.445137660E0
1.243329888E1,-3.412902832E0,2.891237640E0,3.764371948E0,5.846166008E0
1.244334188E1,-2.506687317E0,2.824626160E0,5.942492523E0,7.040966669E0
1.245338488E1,-1.704655151E0,2.930007019E0,9.032067719E0,9.647229529E0
1.246342788E1,-2.920426941E0,3.394191742E0,1.175251053E1,1.257660267E1
1.247347088E1,-2.780018921E0,3.463796997E0,1.220037918E1,1.298366847E1
1.248351388E1,-2.193538513E0,2.905757446E0,1.069181625E1,1.129468779E1
1.248351388E1,-1.689985657E0,3.358116760E0,8.922794952E0,9.682420640E0
1.249355688E1,-1.460213470E0,3.403173065E0,9.354946289E0,1.006125392E1
1.250359988E1,-1.356628876E0,3.711232452E0,9.854906616E0,1.061757376E1
1.251364288E1,-1.282982025E0,4.026476898E0,1.015143997E1,1.099592163E1
1.252368587E1,-1.256636810E0,4.387226715E0,1.022987686E1,1.120166394E1
1.253372887E1,-1.187929688E0,4.813390503E0,1.009680359E1,1.124834867E1
1.254377187E1,-1.290316772E0,5.040168915E0,9.627230072E0,1.094311559E1
1.255381487E1,-1.596579895E0,5.104984131E0,9.109307098E0,1.056358870E1
1.256385788E1,-1.886077881E0,5.419180756E0,8.951684875E0,1.063284872E1
1.257390088E1,-1.765578461E0,5.714366913E0,8.952882385E0,1.076686396E1
1.258394388E1,-1.582060089E0,5.720504150E0,9.000932465E0,1.078164492E1
1.259398688E1,-1.348545685E0,5.413642273E0,8.941955109E0,1.053967074E1
1.260402988E1,-1.282832336E0,5.138664093E0,9.093140717E0,1.052315236E1
1.261407288E1,-1.242865448E0,4.867128754E0,9.584419098E0,1.082103259E1
1.262411587E1,-1.454525299E0,3.643573151E0,1.034902908E1,1.106768594E1
1.263415887E1,-5.313949585E-1,3.382066956E0,1.123473724E1,1.174478942E1
1.264420187E1,-4.046086121E-1,2.790497131E0,1.421698563E1,1.449390433E1
1.265424488E1,6.691085815E-1,1.582509155E0,1.635528900E1,1.644528868E1
1.266428788E1,2.996768188E-1,1.638941803E0,1.408750488E1,1.418568751E1
1.267433088E1,6.920109558E-1,1.459764404E0,1.189606201E1,1.200525229E1
1.268437388E1,5.843847656E-1,1.271905060E0,1.066951263E1,1.076093620E1
1.269441688E1,2.137554932E-1,9.066645813E-1,9.595196686E0,9.640307646E0
1.270445988E1,-3.981719971E-1,6.646179199E-1,7.976612549E0,8.014150340E0
1.271450287E1,-1.225351868E0,2.374063110E-1,5.174439697E0,5.322844647E0
1.272454587E1,-1.125359802E0,-3.658392334E-1,3.342100067E0,3.545406308E0
1.273458887E1,-1.563049622E0,-8.324189758E-1,4.144132233E0,4.506648137E0
1.274463187E1,-1.965562592E0,-9.268725586E-1,4.242627411E0,4.766803582E0
1.275467488E1,-2.414179688E0,-7.123686218E-1,3.698059845E0,4.473408011E0
1.276471788E1,-5.086572418E0,-5.969586182E-1,4.555177460E0,6.854138914E0
1.277476088E1,-1.295975006E1,-1.273551636E0,6.958429871E0,1.476471475E1
1.278480388E1,-1.357781479E1,-4.049079895E-1,1.356494156E1,1.919709990E1
1.279484688E1,-3.814068604E0,1.592238922E0,1.036519547E1,1.115883601E1
1.280488987E1,2.433489532E0,4.445455627E0,8.413853302E0,9.822264221E0
1.281493287E1,4.197271729E-1,4.016896820E0,4.586911469E0,6.111578174E0
1.282497587E1,3.558100891E-1,3.701652374E0,6.350394287E0,7.359099043E0
1.283501887E1,5.483097839E-1,3.080593872E0,7.351063385E0,7.989295032E0
1.284506188E1,1.035546570E0,2.431543579E0,7.985743561E0,8.411709760E0
1.285510488E1,1.893262939E0,2.320175171E0,7.238198090E0,7.833209366E0
1.286514788E1,3.013533325E0,3.395389252E0,6.633904724E0,8.038578429E0
1.287519088E1,2.347717896E0,4.817432098E0,6.403683472E0,8.350245107E0
1.288523388E1,2.590063934E0,4.920118561E0,5.800138550E0,8.034774734E0
1.289527688E1,2.537822571E0,4.524491272E0,5.771548004E0,7.760304829E0
1.290531987E1,2.400258636E0,3.734583893E0,6.416856079E0,7.802845655E0
1.291536287E1,1.930535431E0,2.905458069E0,7.331454163E0,8.119043896E0
1.292540587E1,1.254990234E0,2.439177704E0,7.900720367E0,8.363370773E0
1.293544888E1,4.671784973E-1,2.596949615E0,8.026608582E0,8.449192173E0
1.294549188E1,1.960922241E-1,2.850971375E0,7.366181946E0,7.901083875E0
1.295553488E1,1.594035187E0,2.143542480E0,5.843847656E0,6.425439905E0
1.296557788E1,2.265389099E0,1.459315338E0,4.794080658E0,5.499527105E0
1.297562088E1,2.357597351E0,1.177451477E0,4.290378113E0,5.035077120E0
1.298566388E1,3.358565826E0,9.731263733E-1,4.280348969E0,5.527054065E0
1.299570687E1,4.473148041E0,5.430706787E-1,4.571044464E0,6.418600054E0
1.300574987E1,5.443729706E0,4.056564331E-1,5.079836426E0,7.456774662E0
1.301579287E1,6.246959381E0,3.471281433E-1,5.285508728E0,8.190335889E0
1.302583587E1,7.206613770E0,4.415817261E-1,5.106630707E0,8.843526085E0
1.303587888E1,7.334298248E0,6.861730957E-1,4.918471985E0,8.857433656E0
1.304592188E1,6.619534607E0,5.099894714E-1,4.009113007E0,7.755727869E0
1.305596488E1,6.266718292E0,5.822891235E-1,2.727927246E0,6.859475624E0
1.306600788E1,6.663692780E0,5.373825073E-1,1.481469269E0,6.847505576E0
1.307605088E1,6.239774323E0,-2.806663513E-1,6.122268677E-2,6.246383387E0
1.308609387E1,5.735473022E0,-8.285270691E-1,-4.114942932E-1,5.809598562E0
1.309613687E1,5.015619965E0,-1.086141357E0,-4.977149963E-1,5.155954509E0
1.310617987E1,4.441414032E0,-1.135538635E0,-8.517288208E-1,4.662729735E0
1.311622287E1,4.208648071E0,-1.203946381E0,-1.364113312E0,4.585085670E0
1.312626588E1,4.145629120E0,-1.940564575E0,-2.048190765E0,5.014690128E0
1.313630888E1,4.428391113E0,-3.113974457E0,-2.809208221E0,6.099109410E0
1.314635188E1,4.395908661E0,-4.194427643E0,-3.190166016E0,6.862535640E0
1.315639488E1,4.364923096E0,-5.279970245E0,-3.152444458E0,7.541123622E0
1.316643788E1,4.999453583E0,-6.235433350E0,-2.732567596E0,8.446424738E0
1.317648088E1,6.623875580E0,-6.632557526E0,-2.265987854E0,9.643715466E0
1.318652387E1,8.437504120E0,-6.777306519E0,-2.220332794E0,1.104777069E1
1.319656687E1,1.008662476E1,-7.104226685E0,-1.716630249E0,1.245619746E1
1.320660987E1,1.060155396E1,-7.617808685E0,-1.178199921E0,1.310771187E1
1.321665288E1,1.046458878E1,-8.765172729E0,-9.837542725E-1,1.368589214E1
1.322669588E1,9.877808990E0,-1.004875351E1,-5.162763977E-1,1.410018081E1
1.323673888E1,9.261241150E0,-1.113444580E1,-2.471360779E-1,1.448473497E1
1.324678188E1,9.086853790E0,-1.260214371E1,-5.086422729E-1,1.554489160E1
1.325682488E1,9.420509949E0,-1.430709824E1,-8.740324402E-1,1.715234679E1
1.326686788E1,1.007015900E1,-1.567181030E1,-9.262738037E-1,1.865131962E1
1.327691087E1,1.078851517E1,-1.657383453E1,-6.861730957E-1,1.978774581E1
1.328695387E1,1.166823578E1,-1.692186081E1,-5.571414185E-1,2.056228358E1
1.329699687E1,1.302456528E1,-1.685090836E1,-5.707630920E-1,2.130535575E1
1.330703987E1,1.412986679E1,-1.644016251E1,-5.439688110E-1,2.168474074E1
1.331708288E1,1.496108826E1,-1.627400803E1,-5.945635986E-1,2.211404542E1
1.332712588E1,1.533081940E1,-1.619302643E1,-3.941304016E-1,2.230254396E1
1.333716888E1,1.492201950E1,-1.585068832E1,2.185455322E-1,2.177059366E1
1.334721188E1,1.436368057E1,-1.522618698E1,7.447013855E-1,2.094532573E1
1.335725488E1,1.396895142E1,-1.452744003E1,9.857002258E-1,2.017795140E1
1.336729787E1,1.375459717E1,-1.328756836E1,1.031355286E0,1.915233954E1
1.337734087E1,1.376312943E1,-1.196641571E1,9.699829102E-1,1.826361693E1
1.338738387E1,1.373992767E1,-1.104717728E1,8.222401428E-1,1.764941407E1
1.339742687E1,1.378707962E1,-1.041324554E1,7.982899475E-1,1.729614159E1
1.340746988E1,1.391506348E1,-1.008078690E1,7.087760925E-1,1.719748876E1
1.341751288E1,1.388991577E1,-9.976603546E0,6.116281128E-1,1.711246526E1
1.342755588E1,1.342438385E1,-9.875863037E0,6.204597473E-1,1.667728164E1
1.343759892E1,1.263806900E1,-9.961934052E0,5.203179932E-1,1.610067231E1
1.344764192E1,1.184606598E1,-9.941277008E0,2.314187622E-1,1.546647414E1
1.345768492E1,1.121632553E1,-9.449399872E0,-7.843688965E-2,1.466639931E1
1.346772792E1,1.074181229E1,-8.587192841E0,-2.665956116E-1,1.375490768E1
1.347777092E1,1.042761566E1,-7.582781525E0,-4.023632813E-1,1.289944341E1
1.348781392E1,1.015892441E1,-6.640041962E0,-4.296066284E-1,1.214407116E1
1.349785692E1,9.912686462E0,-5.894741821E0,-2.522254944E-1,1.153572502E1
1.350789992E1,9.689799957E0,-5.282065887E0,5.987548828E-2,1.103612379E1
1.351794292E1,9.566007385E0,-4.763095093E0,4.326004028E-1,1.069498552E1
1.352798592E1,9.479936371E0,-4.399950256E0,7.791297913E-1,1.048025759E1
1.353802892E1,9.222621460E0,-4.179758148E0,1.154100037E0,1.019112710E1
1.354807192E1,8.572673035E0,-4.159550171E0,1.464704132E0,9.640432500E0
1.355811492E1,8.101902008E0,-4.187541962E0,1.416953430E0,9.229522244E0
1.356815792E1,7.779771881E0,-4.035308533E0,1.195114746E0,8.845160526E0
1.357820092E1,7.478598175E0,-3.903732147E0,9.136999512E-1,8.485481892E0
1.358824392E1,7.438631287E0,-3.815116425E0,7.238946533E-1,8.391208031E0
1.359828692E1,7.594457245E0,-4.067042542E0,6.102809143E-1,8.636495740E0
1.360832992E1,7.814799042E0,-4.322561188E0,7.295828247E-1,8.960352135E0
1.361837292E1,8.002658386E0,-4.189936981E0,1.115630035E0,9.101798917E0
1.362841592E1,8.037086792E0,-4.064797211E0,1.549278259E0,9.138796616E0
1.363845892E1,8.206534424E0,-4.112847290E0,1.752256165E0,9.345219192E0
1.364850192E1,8.471034393E0,-4.288881226E0,1.836231537E0,9.670815484E0
1.365854492E1,8.544980621E0,-4.381388855E0,1.926793213E0,9.794171440E0
1.366858792E1,8.444988556E0,-4.538112946E0,2.061213684E0,9.806166563E0
1.367863092E1,8.120463409E0,-4.851561127E0,2.124981079E0,9.695107835E0
1.368867392E1,7.932753754E0,-5.163512421E0,2.034569092E0,9.681421075E0
1.369871692E1,8.053103485E0,-5.420078888E0,1.788331146E0,9.870555161E0
1.370875992E1,8.503965912E0,-5.763315125E0,1.530866547E0,1.038637520E1
1.371880292E1,8.967402191E0,-6.201603699E0,1.278641052E0,1.097766430E1
1.372884592E1,9.373956757E0,-6.729705505E0,9.139993286E-1,1.157563805E1
1.373888892E1,9.853559418E0,-7.485184479E0,5.598358154E-1,1.238684932E1
1.374893192E1,1.029244675E1,-8.347391510E0,3.504212952E-1,1.325655310E1
1.375897492E1,1.067984116E1,-9.259295197E0,3.119512939E-1,1.413827671E1
1.376901792E1,1.091485245E1,-1.014739838E1,3.164419556E-1,1.490650305E1
1.377906092E1,1.089509354E1,-1.070918015E1,3.719764709E-1,1.528162194E1
1.378910392E1,1.100406693E1,-1.091709778E1,3.760180664E-1,1.550528627E1
1.379914692E1,1.147843048E1,-1.123862915E1,7.035369873E-2,1.606443591E1
1.380918992E1,1.181627792E1,-1.150163223E1,-3.823049927E-1,1.649418458E1
1.381923292E1,1.192629913E1,-1.154803574E1,-6.400689697E-1,1.661335092E1
1.382927592E1,1.177122162E1,-1.166883453E1,-5.355862427E-1,1.658343180E1
1.383931892E1,1.135373978E1,-1.170341263E1,-2.183958435E-1,1.630720610E1
1.384936192E1,1.090392517E1,-1.150417694E1,1.682501221E-1,1.585149770E1
1.385940492E1,1.059152481E1,-1.122575592E1,4.803511047E-1,1.544113762E1
1.386944792E1,1.037956558E1,-1.094314362E1,8.231382751E-1,1.510514252E1
1.387949092E1,1.032358200E1,-1.060050613E1,1.125958557E0,1.483963808E1
1.388953392E1,1.040516235E1,-1.043405228E1,1.216520233E0,1.478569484E1
1.389957692E1,1.046384033E1,-1.050350784E1,1.143921204E0,1.487024503E1
1.390961992E1,1.052790710E1,-1.082129700E1,1.033151550E0,1.513290120E1
1.391966292E1,1.043884232E1,-1.118114868E1,1.028960266E0,1.533121893E1
1.392970592E1,1.044048889E1,-1.148172363E1,1.113833771E0,1.555874068E1
1.393974892E1,1.051802765E1,-1.178454391E1,1.067280579E0,1.583172349E1
1.394979192E1,1.016221756E1,-1.223316101E1,4.872367859E-1,1.591094886E1
1.395983492E1,9.935289459E0,-1.298145493E1,5.313949585E-1,1.635574912E1
1.396987792E1,9.394015045E0,-1.304312668E1,4.432283020E-1,1.608002250E1
1.397992092E1,9.724228363E0,-1.302202057E1,4.252656555E-1,1.625775162E1
1.398996392E1,9.186546478E0,-1.288430695E1,-1.745370483E-1,1.582493175E1
1.400000692E1,8.494535522E0,-1.253598129E1,3.637435913E-2,1.514296153E1
1.401004992E1,8.058342590E0,-1.194710587E1,3.097059631E-1,1.441409524E1
1.402009292E1,7.788154449E0,-1.116947296E1,2.947370911E-1,1.361981446E1
1.403013592E1,7.607929230E0,-1.051533325E1,3.796105957E-1,1.298448785E1
1.404017892E1,7.434440002E0,-9.978699188E0,4.562512207E-1,1.245204806E1
1.405022192E1,7.215894470E0,-9.442813568E0,3.689826965E-1,1.188999619E1
1.406026492E1,6.876699829E0,-9.075776825E0,2.751278687E-1,1.139010188E1
1.407030792E1,6.486760712E0,-8.911418610E0,2.752775574E-1,1.102575276E1
1.408035092E1,6.110293579E0,-8.810229034E0,3.674858093E-1,1.072804125E1
1.409039392E1,5.607189789E0,-8.678353271E0,5.349874878E-1,1.034604294E1
1.410043692E1,5.082081757E0,-8.350534973E0,6.240522766E-1,9.795326976E0
1.411047992E1,4.678520966E0,-8.072413330E0,5.783972168E-1,9.348099205E0
1.412052292E1,4.230352936E0,-7.803572388E0,5.057981873E-1,8.890863838E0
1.413056592E1,3.760779419E0,-7.362739105E0,4.074526978E-1,8.277644995E0
1.414060892E1,3.586541748E0,-6.852599945E0,2.233355713E-1,7.737653811E0
1.415065192E1,3.710334320E0,-6.293063507E0,-7.080276489E-2,7.305767728E0
1.416069492E1,3.834725647E0,-5.761967926E0,-2.850073242E-1,6.927237858E0
1.417073792E1,3.709436188E0,-5.500162354E0,-2.933898926E-1,6.640615964E0
1.418078092E1,3.257525940E0,-5.456453247E0,-8.277786255E-2,6.355407891E0
1.419082392E1,2.774330750E0,-5.445975037E0,1.556762695E-2,6.111938936E0
1.420086692E1,2.219584351E0,-5.418432312E0,-4.475692749E-2,5.855592762E0
1.421090992E1,1.595382385E0,-5.383405151E0,-2.625540161E-1,5.620963493E0
1.422095292E1,9.491761780E-1,-5.370232544E0,-5.978567505E-1,5.486143061E0
1.423099592E1,3.737727356E-1,-5.570665741E0,-9.948312378E-1,5.671129698E0
1.424103892E1,-3.597019958E-1,-5.813610535E0,-1.214723969E0,5.950042630E0
1.425108192E1,-7.972421265E-1,-5.697452087E0,-1.315614166E0,5.901474047E0
1.426112492E1,-6.469546509E-1,-5.629942474E0,-1.382674713E0,5.833231690E0
1.427116792E1,-3.568579102E-1,-5.711822205E0,-1.268761597E0,5.861912355E0
1.428121092E1,-6.167175293E-2,-5.879922638E0,-1.162332916E0,5.994022976E0
1.429125392E1,6.976991272E-1,-6.231840820E0,-1.348695374E0,6.414172066E0
1.430129692E1,3.869453430E-1,-6.767127686E0,-1.268162842E0,6.895794429E0
1.431133992E1,2.360591125E-1,-7.691455536E0,-1.357377319E0,7.813877741E0
1.432138292E1,9.895921326E-1,-8.621621246E0,-1.714085541E0,8.845888013E0
1.433142592E1,1.237326965E0,-9.447154541E0,-1.963766327E0,9.728107993E0
1.434146892E1,1.548080750E0,-1.024349854E1,-2.345173187E0,1.062194208E1
1.435151192E1,2.600991211E0,-1.091754684E1,-2.777174835E0,1.156160389E1
1.436155492E1,3.676205292E0,-1.170670578E1,-3.074007568E0,1.264954419E1
1.437159792E1,4.703069916E0,-1.235755234E1,-3.125799866E0,1.358670642E1
1.438164092E1,5.688470764E0,-1.288101379E1,-2.833607483E0,1.436344483E1
1.439168392E1,6.903045044E0,-1.319356384E1,-2.418969727E0,1.508554183E1
1.440172692E1,8.033194885E0,-1.343366455E1,-2.013612671E0,1.578132438E1
1.441176992E1,9.049132233E0,-1.372046814E1,-1.688937836E0,1.652242570E1
1.442181292E1,1.009336075E1,-1.405906403E1,-1.533710632E0,1.737485196E1
1.443185592E1,1.113788864E1,-1.441367661E1,-1.673669586E0,1.829228817E1
1.444189975E1,1.206835373E1,-1.472996887E1,-1.966610413E0,1.914379015E1
1.445194275E1,1.262549515E1,-1.502335876E1,-2.206411743E0,1.974772617E1
1.446198575E1,1.304162979E1,-1.526974640E1,-2.341430969E0,2.021711062E1
1.447202875E1,1.346360229E1,-1.520388336E1,-2.461032257E0,2.045686525E1
1.448207175E1,1.343710739E1,-1.484013977E1,-2.331551514E0,2.015494321E1
1.449211475E1,1.315060318E1,-1.446008011E1,-1.791324921E0,1.962756036E1
1.450215775E1,1.283730469E1,-1.417851563E1,-9.810598755E-1,1.915174079E1
1.451220075E1,1.253837631E1,-1.369801483E1,-1.341210938E-1,1.857052717E1
1.452224375E1,1.240859619E1,-1.299627411E1,7.418572998E-1,1.798406941E1
1.453228675E1,1.222328156E1,-1.199051559E1,1.597178650E0,1.719686180E1
1.454232975E1,1.195159653E1,-1.072699310E1,2.210603027E0,1.621097796E1
1.455237275E1,1.181208664E1,-9.565258942E0,2.350561981E0,1.538001011E1
1.456241575E1,1.197809143E1,-8.625363464E0,2.590063934E0,1.498599347E1
1.457245875E1,1.181478104E1,-7.585775299E0,2.632425842E0,1.428505175E1
1.458250175E1,1.140523270E1,-6.617888031E0,2.406395874E0,1.340397389E1
1.459254475E1,1.087967560E1,-6.019881592E0,1.788331146E0,1.256202387E1
1.460258775E1,1.044138702E1,-5.687123566E0,1.148411865E0,1.194507376E1
1.461263075E1,1.005099884E1,-5.356161804E0,5.836363220E-1,1.140402027E1
1.462267375E1,9.734856262E0,-4.984185333E0,3.339555359E-1,1.094171176E1
1.463271675E1,9.377249908E0,-4.791386261E0,1.100212097E-1,1.053101623E1
1.464275975E1,9.350605316E0,-4.552483063E0,-2.038760376E-1,1.040194632E1
1.465280275E1,9.575737152E0,-4.212539978E0,-4.510121155E-1,1.047108624E1
1.466284575E1,9.495503998E0,-3.826193390E0,-7.282356262E-1,1.026326844E1
1.467288875E1,9.253906403E0,-3.615581360E0,-9.575587463E-1,9.981188859E0
1.468293175E1,8.796607361E0,-3.467988281E0,-1.071172485E0,9.516020926E0
1.469297475E1,8.298592987E0,-3.569477234E0,-7.940986633E-1,9.068539352E0
1.470301775E1,7.708370361E0,-3.761976929E0,5.358856201E-2,8.577547189E0
1.471306075E1,7.257507935E0,-3.839066620E0,1.121617584E0,8.286608470E0
1.472310375E1,7.269033966E0,-3.980073395E0,2.054477692E0,8.538191706E0
1.473314675E1,7.590864716E0,-4.265380096E0,2.760709076E0,9.134342292E0
1.474318975E1,8.063282318E0,-4.706961823E0,3.287164307E0,9.898356455E0
1.475323275E1,8.522826691E0,-5.320086823E0,3.577111359E0,1.066478430E1
1.476327575E1,8.941955109E0,-5.996979218E0,3.797004089E0,1.141663527E1
1.477331875E1,9.320817261E0,-6.564449158E0,4.039649506E0,1.209497397E1
1.478336175E1,9.773475952E0,-7.055428162E0,4.251309357E0,1.278176553E1
1.479340475E1,1.041204803E1,-7.413932648E0,4.441713409E0,1.353166507E1
1.480344775E1,1.115555191E1,-7.563920746E0,4.645290070E0,1.425615500E1
1.481349075E1,1.177391602E1,-7.471413116E0,4.682861938E0,1.470973515E1
1.482353375E1,1.221355179E1,-7.352560272E0,4.313130798E0,1.489409571E1
1.483357675E1,1.298085617E1,-7.884703674E0,3.779939575E0,1.565116999E1
1.484361975E1,1.326481567E1,-8.558901672E0,3.237317963E0,1.611491112E1
1.485366275E1,1.277473480E1,-9.186546478E0,2.787353668E0,1.597985688E1
1.486370575E1,1.194111832E1,-9.656269684E0,2.525548096E0,1.556316947E1
1.487374875E1,1.124835892E1,-9.849966888E0,2.380799103E0,1.513986890E1
1.488379175E1,1.064915497E1,-9.788444824E0,2.250569916E0,1.463841585E1
1.489383475E1,1.020383102E1,-9.358688507E0,2.280507660E0,1.403224620E1
1.490387775E1,1.016910324E1,-8.794062653E0,2.306553497E0,1.364061537E1
1.491392075E1,1.057835220E1,-8.514294434E0,2.093097382E0,1.373957065E1
1.492396375E1,1.095631622E1,-8.560548248E0,1.710043945E0,1.400885798E1
1.493400675E1,1.119327347E1,-9.030421143E0,1.095871124E0,1.442355055E1
1.494404975E1,1.120135666E1,-9.887389069E0,4.764591980E-1,1.494850718E1
1.495409275E1,1.116423386E1,-1.098535583E1,1.691482544E-1,1.566354914E1
1.496413575E1,1.092173813E1,-1.196476913E1,2.788700867E-1,1.620240207E1
1.497417875E1,1.061307999E1,-1.277563293E1,5.650749207E-1,1.661847085E1
1.498422175E1,1.044662613E1,-1.353919510E1,7.749385071E-1,1.711847923E1
1.499426475E1,1.039109161E1,-1.427506485E1,9.225315857E-1,1.768059179E1
1.500430775E1,1.024529480E1,-1.462773148E1,9.217831421E-1,1.788256911E1
1.501435075E1,1.003573059E1,-1.452699097E1,5.906716919E-1,1.766630262E1
1.502439375E1,9.702972565E0,-1.398242340E1,-3.113525391E-2,1.701930698E1
1.503443675E1,9.477391663E0,-1.341375595E1,-6.716532898E-1,1.643778938E1
1.504447975E1,9.310788116E0,-1.282982025E1,-1.092727661E0,1.588990613E1
1.505452275E1,9.090596008E0,-1.214858688E1,-1.255139923E0,1.522506076E1
1.506456575E1,8.863368530E0,-1.160327087E1,-1.148411865E0,1.464629805E1
1.507460875E1,8.686885529E0,-1.112875763E1,-7.467970276E-1,1.413750092E1
1.508465175E1,8.455616455E0,-1.079674805E1,-2.451901245E-1,1.371595189E1
1.509469375E1,8.147257690E0,-1.064481400E1,2.285746765E-1,1.340679377E1
1.510473775E1,7.759713593E0,-1.053554123E1,5.766009521E-1,1.309745214E1
1.511477975E1,7.371870117E0,-1.051638107E1,8.069718933E-1,1.286817561E1
1.512482275E1,6.957831116E0,-1.050171158E1,9.714797974E-1,1.263491721E1
1.513486575E1,6.502478027E0,-1.032687515E1,9.488768005E-1,1.224038145E1
1.514490875E1,6.093378754E0,-1.000175125E1,6.927593994E-1,1.173218685E1
1.515495175E1,5.686075745E0,-9.554331665E0,3.088078308E-1,1.112259292E1
1.516499475E1,5.254822540E0,-9.154213715E0,-1.059796143E-1,1.055575769E1
1.517503775E1,4.748724976E0,-8.786727905E0,-6.027964783E-1,1.000601518E1
1.518508075E1,4.317322083E0,-8.411308594E0,-1.027014313E0,9.510212438E0
1.519512375E1,4.072880402E0,-8.006999359E0,-1.310973816E0,9.078493589E0
1.520516675E1,3.862268372E0,-7.675588531E0,-1.468895416E0,8.717191636E0
1.521520975E1,3.455713806E0,-7.524702301E0,-1.492995300E0,8.413806368E0
1.522525275E1,2.960992584E0,-7.304959259E0,-1.578766937E0,8.038806622E0
1.523529575E1,2.389031982E0,-7.108118591E0,-1.775607605E0,7.706205687E0
1.524533875E1,1.768572235E0,-7.013215942E0,-1.929637299E0,7.485756188E0
1.525538175E1,1.009949799E0,-6.935677185E0,-1.947300568E0,7.274310697E0
1.526542475E1,1.812730408E-1,-7.017407227E0,-1.910327454E0,7.275040555E0
1.527546775E1,-7.764353943E-1,-7.265591125E0,-1.896855469E0,7.549154058E0
1.528551075E1,-1.629810791E0,-7.467371521E0,-1.967209167E0,7.892264096E0
1.529555375E1,-2.209106140E0,-7.489076385E0,-2.021246796E0,8.065472934E0
1.530559675E1,-2.440075836E0,-7.461833038E0,-2.031874695E0,8.109342585E0
1.531563975E1,-2.421664124E0,-7.582482147E0,-2.071242828E0,8.224873221E0
1.532568275E1,-2.321821747E0,-7.879913635E0,-2.259401550E0,8.519905545E0
1.533572575E1,-2.089355164E0,-8.508905640E0,-2.323618011E0,9.064550780E0
1.534576875E1,-1.639989624E0,-9.104666748E0,-2.136207733E0,9.494625113E0
1.535581175E1,-6.101312256E-1,-9.679321747E0,-1.952689362E0,9.893155479E0
1.536585475E1,7.544311523E-1,-1.047836014E1,-1.879192200E0,1.067223317E1
1.537589775E1,1.932930450E0,-1.124147324E1,-1.952240295E0,1.157230240E1
1.538594075E1,2.832559662E0,-1.186552551E1,-2.116448822E0,1.238117303E1
1.539598375E1,3.691323853E0,-1.242775635E1,-2.132764893E0,1.313863333E1
1.540602675E1,4.575984192E0,-1.283311340E1,-2.028880920E0,1.377478816E1
1.541606975E1,5.433700562E0,-1.298399963E1,-1.884281616E0,1.420069947E1
1.542611275E1,6.315217438E0,-1.314581314E1,-1.645677795E0,1.467660144E1
1.543615575E1,7.102729797E0,-1.339384735E1,-1.360969849E0,1.522156879E1
1.544619804E1,8.064779205E0,-1.349743195E1,-1.264270935E0,1.577402022E1
1.545624104E1,9.408085785E0,-1.363394806E1,-1.364263000E0,1.662100573E1
1.546628404E1,1.087159241E1,-1.383527939E1,-1.493294678E0,1.765889029E1
1.547632704E1,1.204964264E1,-1.411699356E1,-1.722767487E0,1.864004621E1
1.548637004E1,1.284688477E1,-1.459869186E1,-2.115401001E0,1.956116494E1
1.549641304E1,1.323218353E1,-1.508458145E1,-2.488275604E0,2.021946572E1
1.550645604E1,1.335148544E1,-1.523112671E1,-2.659369812E0,2.042845154E1
1.551649904E1,1.324864929E1,-1.506616974E1,-2.822530518E0,2.026037653E1
1.552654204E1,1.305914337E1,-1.456576035E1,-2.849025421E0,1.976915643E1
1.553658504E1,1.294178741E1,-1.361897919E1,-2.681074677E0,1.897774004E1
1.554662804E1,1.291499313E1,-1.257789413E1,-2.264940033E0,1.816949151E1
1.555667104E1,1.263956589E1,-1.182540894E1,-2.139650574E0,1.744067163E1
1.556671404E1,1.254945328E1,-1.034932846E1,-1.095122681E0,1.630327178E1
1.557675704E1,1.249302063E1,-9.064550171E0,-1.155596924E-1,1.543551063E1
1.558680004E1,1.269659729E1,-8.158184967E0,6.023474121E-1,1.510372097E1
1.559684304E1,1.264690063E1,-7.390730896E0,1.287472687E0,1.470457700E1
1.560688604E1,1.243464203E1,-6.717431030E0,1.737287292E0,1.423946520E1
1.561692904E1,1.199216217E1,-6.228248291E0,1.838776245E0,1.363759980E1
1.562697204E1,1.121961868E1,-5.852679291E0,1.570234680E0,1.275144444E1
1.563701504E1,1.047476761E1,-5.635331268E0,1.017434235E0,1.193787617E1
1.564705804E1,9.934091949E0,-5.430407410E0,5.165757751E-1,1.133324129E1
1.565710104E1,9.540111237E0,-5.212610321E0,3.050656128E-1,1.087557326E1
1.566714404E1,9.319769440E0,-4.978946228E0,3.225791931E-1,1.057128494E1
1.567718704E1,9.230854340E0,-4.758005676E0,4.144880676E-1,1.039322328E1
1.568723004E1,9.166787567E0,-4.602030029E0,5.408253479E-1,1.027137609E1
1.569727304E1,9.182205505E0,-4.518354034E0,6.756948853E-1,1.025597312E1
1.570731604E1,9.065148926E0,-4.517306213E0,7.472460938E-1,1.015585335E1
1.571735904E1,8.837472382E0,-4.595443726E0,7.128176880E-1,9.986347189E0
1.572740204E1,8.495134277E0,-4.735402679E0,7.397616577E-1,9.753901385E0
1.573744504E1,8.099656677E0,-4.745132446E0,7.463479614E-1,9.416886720E0
1.574748804E1,7.750881958E0,-4.675377502E0,9.294172668E-1,9.099403408E0
1.575753104E1,7.543263702E0,-4.725223846E0,1.137783966E0,8.973467559E0
1.576757404E1,7.560627594E0,-4.885989532E0,1.293160858E0,9.094407531E0
1.577761704E1,7.871531067E0,-5.054688721E0,1.499731293E0,9.474179297E0
1.578766004E1,8.250093842E0,-5.290897522E0,1.790576477E0,9.963122457E0
1.579770304E1,8.661887512E0,-5.732030182E0,2.103425903E0,1.059758774E1
1.580774604E1,9.007369080E0,-6.152356110E0,2.380649414E0,1.116475146E1
1.581778904E1,9.333241425E0,-6.624174957E0,2.552941132E0,1.172632073E1
1.582783204E1,9.610015869E0,-6.990762634E0,2.739453278E0,1.219539960E1
1.583787504E1,9.929601288E0,-7.242089996E0,2.949616241E0,1.263903023E1
1.584791804E1,1.031370255E1,-7.443720703E0,3.258873138E0,1.313018249E1
1.585796104E1,1.066966232E1,-7.634274445E0,3.501219177E0,1.357874722E1
1.586800404E1,1.110645401E1,-8.078400879E0,3.459156647E0,1.416261438E1
1.587804704E1,1.136751114E1,-8.695717163E0,3.249442749E0,1.467633076E1
1.588809004E1,1.138277939E1,-9.097182312E0,3.031945038E0,1.488351717E1
1.589813304E1,1.125569366E1,-9.372310181E0,2.858605499E0,1.492321894E1
1.590817604E1,1.099972595E1,-9.482481079E0,2.905158691E0,1.481051537E1
1.591821904E1,1.063762894E1,-9.353150024E0,2.904260559E0,1.445943616E1
1.592826204E1,1.036714142E1,-8.906778259E0,2.747536469E0,1.394120787E1
1.593830504E1,1.036759048E1,-8.298143921E0,2.371069336E0,1.348955503E1
1.594834804E1,1.049991531E1,-7.970475311E0,1.944007416E0,1.332500893E1
1.595839104E1,1.058478882E1,-7.934250641E0,1.515448608E0,1.331490413E1
1.596843404E1,1.076531342E1,-8.299042053E0,1.088237000E0,1.363636065E1
1.597847704E1,1.092997101E1,-8.990753632E0,6.207591248E-1,1.416627188E1
1.598852004E1,1.105720642E1,-9.779014435E0,1.568737793E-1,1.476196283E1
1.599856304E1,1.101514389E1,-1.045036835E1,-4.071533203E-2,1.518371665E1
1.600860604E1,1.083641556E1,-1.094000015E1,-1.505868530E-1,1.539916173E1
1.601864904E1,1.093491074E1,-1.157258469E1,-2.532733154E-1,1.592360313E1
1.602869204E1,1.111244156E1,-1.228270798E1,-1.110690308E-1,1.656392493E1
1.603873504E1,1.109507767E1,-1.265393600E1,2.499801636E-1,1.683108241E1
1.604877804E1,1.105032074E1,-1.252939499E1,6.701564026E-1,1.671958244E1
1.605882104E1,1.106843307E1,-1.216954330E1,9.526190186E-1,1.647772672E1
1.606886404E1,1.109417953E1,-1.177960419E1,9.936337280E-1,1.621194628E1
1.607890704E1,1.103774689E1,-1.136272110E1,8.640032959E-1,1.586473412E1
1.608895004E1,1.071831116E1,-1.110390930E1,6.400689697E-1,1.544631620E1
1.609899304E1,1.027478348E1,-1.098475708E1,4.423301697E-1,1.504764831E1
1.610903604E1,9.839638367E0,-1.097023727E1,2.929408264E-1,1.473941666E1
1.611907904E1,9.408385162E0,-1.110825027E1,1.426533508E-1,1.455785992E1
1.612912204E1,9.095535736E0,-1.137709122E1,4.266128540E-2,1.456601506E1
1.613916504E1,8.757239227E0,-1.153456375E1,-3.128494263E-2,1.448227809E1
1.614920804E1,8.313112793E0,-1.145927032E1,-6.436614990E-3,1.415707463E1
1.615925104E1,7.850574646E0,-1.135823044E1,-7.319778442E-2,1.380747185E1
1.616929404E1,7.292984161E0,-1.121437958E1,-2.212399292E-1,1.337904609E1
1.617933704E1,6.696175232E0,-1.097906891E1,-4.975653076E-1,1.286958772E1
1.618938004E1,6.099066925E0,-1.061861847E1,-7.499404907E-1,1.226849976E1
1.619942304E1,5.606591034E0,-1.015757721E1,-9.241781616E-1,1.163891503E1
1.620946604E1,5.174888763E0,-9.735005951E0,-1.071621552E0,1.107692138E1
1.621950904E1,4.733157349E0,-9.291029205E0,-1.178349609E0,1.049354611E1
1.622955204E1,4.276906128E0,-8.835825806E0,-1.181343384E0,9.887331080E0
1.623959504E1,3.880680084E0,-8.551267548E0,-1.145567780E0,9.460242075E0
1.624963804E1,3.331621857E0,-8.400381317E0,-1.191372528E0,9.115123640E0
1.625968104E1,2.536325684E0,-8.217012634E0,-1.252595215E0,8.690295701E0
1.626972404E1,1.729952545E0,-8.049510956E0,-1.367256775E0,8.346062157E0
1.627976704E1,1.072819061E0,-7.901169434E0,-1.393751678E0,8.094563787E0
1.628981004E1,5.986051941E-1,-7.783364410E0,-1.241817627E0,7.904505092E0
1.629985304E1,2.366578674E-1,-7.596852264E0,-1.004261627E0,7.666597204E0
1.630989504E1,4.700225830E-2,-7.389383698E0,-8.190966797E-1,7.434791188E0
1.631993904E1,-5.044509888E-2,-7.269932098E0,-6.635700989E-1,7.300327575E0
1.632998104E1,-2.932402039E-1,-7.167395325E0,-5.472619629E-1,7.194236667E0
1.634002404E1,-6.313870239E-1,-7.185058594E0,-6.819818115E-1,7.244916546E0
1.635006704E1,-1.045426025E0,-7.310797119E0,-8.180488586E-1,7.430334718E0
1.636011004E1,-1.516945496E0,-7.557334442E0,-9.343569946E-1,7.764499372E0
1.637015304E1,-2.045047302E0,-7.941585388E0,-1.060394897E0,8.268943964E0
1.638019604E1,-2.575843506E0,-8.416697388E0,-1.222956848E0,8.886584728E0
1.639023904E1,-2.673290863E0,-9.028475189E0,-1.461111603E0,9.528625053E0
1.640028204E1,-1.776206360E0,-1.004336472E1,-1.842518463E0,1.036431175E1
1.641032504E1,-4.412823486E-1,-1.107666595E1,-2.098635864E0,1.128235486E1
1.642036804E1,9.157955933E-1,-1.175759995E1,-2.237846375E0,1.200365754E1
1.643041104E1,2.347268829E0,-1.229213837E1,-2.311044159E0,1.272585014E1
1.644045467E1,3.726201324E0,-1.274509644E1,-2.370769958E0,1.348861037E1
1.645049767E1,4.981790314E0,-1.297471893E1,-2.286195831E0,1.408503665E1
1.646054067E1,5.988596649E0,-1.295750473E1,-1.996997223E0,1.441347344E1
1.647058367E1,6.817423096E0,-1.286544617E1,-1.700014801E0,1.465902497E1
1.648062667E1,7.764653320E0,-1.291020309E1,-1.526525574E0,1.514243922E1
1.649066967E1,8.796008606E0,-1.312605423E1,-1.509760437E0,1.587269491E1
1.650071267E1,9.879904633E0,-1.350267105E1,-1.588047638E0,1.680644330E1
1.651075567E1,1.097113541E1,-1.403286850E1,-1.665736084E0,1.789027353E1
1.652079867E1,1.184771255E1,-1.461979797E1,-1.778751068E0,1.890160683E1
1.653084167E1,1.247670456E1,-1.511317200E1,-1.997745667E0,1.969941908E1
1.654088467E1,1.266980301E1,-1.540266998E1,-2.298470306E0,2.007608320E1
1.655092767E1,1.255050110E1,-1.529519348E1,-2.636018372E0,1.996012561E1
1.656097067E1,1.252550308E1,-1.478879654E1,-2.999911652E0,1.961112441E1
1.657101367E1,1.249152374E1,-1.395967072E1,-3.129392395E0,1.899220021E1
1.658105667E1,1.229917374E1,-1.300330948E1,-2.944975891E0,1.813914593E1
1.659109967E1,1.218615875E1,-1.198497711E1,-2.471809845E0,1.726997352E1
1.660114267E1,1.200234100E1,-1.108070755E1,-1.927990723E0,1.644856886E1
1.661118567E1,1.184426971E1,-1.011282028E1,-1.151106262E0,1.561668674E1
1.662122867E1,1.181747543E1,-9.347761230E0,-3.710783386E-1,1.507219509E1
1.663127167E1,1.167751648E1,-8.776100006E0,3.558100891E-1,1.461201298E1
1.664131467E1,1.139984390E1,-8.274193726E0,9.921368408E-1,1.412101478E1
1.665135767E1,1.116842514E1,-7.950267334E0,1.438957672E0,1.378445030E1
1.666140067E1,1.075438614E1,-7.726632385E0,1.638792114E0,1.334328703E1
1.667144367E1,1.019020935E1,-7.392227783E0,1.585353241E0,1.268852801E1
1.668148667E1,9.698781281E0,-7.041806488E0,1.306333466E0,1.205652952E1
1.669152967E1,9.276210022E0,-6.721322937E0,1.011446686E0,1.149988169E1
1.670157267E1,9.072184296E0,-6.327641602E0,8.891510010E-1,1.109658351E1
1.671161567E1,8.975335693E0,-5.994733887E0,8.710386658E-1,1.082830520E1
1.672165867E1,8.998687134E0,-5.723348236E0,9.333091736E-1,1.070533284E1
1.673170167E1,9.186396790E0,-5.402864685E0,1.114731903E0,1.071557091E1
