"Time (s)","Acceleration x (m/s^2)","Acceleration y (m/s^2)","Acceleration z (m/s^2)","Absolute acceleration (m/s^2)"
2.624583431E-4,1.308429108E0,8.541837158E0,1.365909576E0,8.748752925E0
1.034045836E-2,2.292931824E0,1.025786865E1,1.350940704E0,1.059747359E1
2.041945839E-2,2.510130157E0,1.132185608E1,8.795709229E-1,1.163008269E1
3.049745841E-2,3.005599823E0,1.164278870E1,1.271006927E0,1.209146879E1
4.057645844E-2,3.313210144E0,1.156016052E1,7.930508423E-1,1.205170537E1
5.065545836E-2,2.841990051E0,1.151585266E1,5.972579956E-1,1.187638359E1
6.073345838E-2,2.011067963E0,1.124192230E1,4.110452271E-1,1.142778061E1
7.081245841E-2,1.426683197E0,9.450298004E0,7.945477295E-1,9.590352622E0
8.089045843E-2,1.506916351E0,9.290879517E0,5.152285767E-1,9.426383165E0
9.096945834E-2,1.266067200E0,8.177345123E0,1.696571960E0,8.446908064E0
1.010484584E-1,2.151775360E0,9.503886566E0,1.098116455E0,9.806113237E0
1.111264584E-1,9.148974609E-1,7.390730896E0,2.321672058E0,7.800647517E0
1.212054584E-1,1.899849243E0,9.512718201E0,2.440225525E0,1.000279638E1
1.312834584E-1,1.357826385E0,8.910520477E0,1.761836243E0,9.183960726E0
1.413624584E-1,1.525178375E0,1.025352768E1,1.324146423E0,1.045056758E1
1.514414584E-1,1.614692230E0,1.103175934E1,1.209484863E0,1.121471349E1
1.615194584E-1,1.939217377E0,1.082863174E1,7.337741089E-1,1.102534598E1
1.715984584E-1,2.856210480E0,1.112067444E1,3.071612549E-1,1.148571662E1
1.816764583E-1,1.726809082E0,9.812095642E0,2.981799316E-1,9.967346777E0
1.917554584E-1,1.507664795E0,8.963959351E0,-8.472381592E-2,9.090258440E0
2.018344584E-1,1.143322449E0,7.934849396E0,1.379531250E0,8.134625230E0
2.119124584E-1,1.894759827E0,8.416547699E0,1.897154846E0,8.833322505E0
2.219914584E-1,2.315834198E0,8.072263641E0,1.495090942E0,8.529937002E0
2.320694583E-1,2.082170105E0,7.946674805E0,1.644779663E0,8.377969500E0
2.421484584E-1,2.160906372E0,8.951684875E0,1.445693665E0,9.321599038E0
2.522274584E-1,2.024090881E0,1.035741165E1,1.384620667E0,1.064378196E1
2.623054584E-1,2.028581543E0,1.275542496E1,5.369334412E-1,1.292688309E1
2.723844583E-1,9.107061768E-1,1.081950073E1,3.296145630E-1,1.086276335E1
2.824624584E-1,1.322799225E0,1.093610825E1,3.936813354E-1,1.102285110E1
2.925414584E-1,1.701362000E0,1.097427887E1,7.708969116E-1,1.113210274E1
3.026204584E-1,1.670825500E0,9.765991516E0,1.000070343E0,9.958232214E0
3.126984584E-1,7.622149658E-1,7.323370972E0,1.284478912E0,7.474130058E0
3.227774584E-1,-6.580316162E-1,5.354664917E0,2.019899597E0,5.760680200E0
3.328554584E-1,-2.090852051E0,4.261039124E0,2.848875732E0,5.535721240E0
3.429344584E-1,-1.905238037E0,4.266876984E0,1.438807983E0,4.889410965E0
3.530134584E-1,-2.223176880E0,5.120551758E0,7.352709961E-1,5.630558514E0
3.630914583E-1,-2.384391632E0,6.192622375E0,1.017134857E0,6.713304600E0
3.731704584E-1,-2.293979645E0,5.993686066E0,-1.097218323E-1,6.418617775E0
3.832484584E-1,-2.627635803E0,6.731950836E0,1.999841309E-1,7.229358590E0
3.933274584E-1,2.423909454E0,9.730365601E0,2.731370087E0,1.039306184E1
4.034064584E-1,8.119864655E0,1.171523804E1,1.604513397E0,1.434410916E1
4.134844583E-1,1.087937622E1,1.358050919E1,-6.426136780E-1,1.741275421E1
4.235634584E-1,1.174113419E1,1.652892792E1,-2.011816406E-1,2.027560515E1
4.336414584E-1,7.897277527E0,1.628598312E1,1.694326630E0,1.817886084E1
4.437204584E-1,2.877466278E0,1.056996964E1,1.725611572E0,1.108971621E1
4.537994583E-1,1.483864288E0,9.073082428E0,5.495072937E-1,9.210029112E0
4.638774584E-1,1.223106537E0,8.999734955E0,4.053570557E-1,9.091508852E0
4.739564584E-1,1.652862854E0,8.797355804E0,1.691931610E0,9.109778117E0
4.840354584E-1,2.628234558E0,9.574389954E0,9.913883972E-1,9.977946223E0
4.941134584E-1,2.706970825E0,1.024679169E1,2.297721863E-1,1.060081252E1
5.041924583E-1,2.602039032E0,1.035995636E1,1.216969299E-1,1.068242075E1
5.142704584E-1,2.348466339E0,1.020921982E1,-3.697311401E-2,1.047591669E1
5.243494584E-1,1.955982513E0,1.017928207E1,8.692424011E-1,1.040188605E1
5.344284584E-1,2.438728638E0,9.875713348E0,1.703307953E0,1.031398902E1
5.445064583E-1,3.024460602E0,1.029888336E1,1.961820374E0,1.091160390E1
5.545854584E-1,3.245101776E0,1.018107834E1,2.264341278E0,1.092301621E1
5.646634584E-1,3.823349304E0,9.708810425E0,2.147733765E0,1.065325115E1
5.747424584E-1,3.614234161E0,9.353599091E0,2.173629913E0,1.026046644E1
5.848214584E-1,1.859133911E-1,8.592731323E0,-6.405180359E-1,8.618576375E0
5.948994583E-1,-1.706900482E0,7.388186188E0,-2.086511078E0,7.864625413E0
6.049784584E-1,-3.799099731E-1,7.398514709E0,6.632707214E-1,7.437894833E0
6.150564584E-1,3.901037750E0,1.139385635E1,1.000220032E0,1.208463894E1
6.251354584E-1,9.444310455E0,1.889999725E1,7.896080017E-1,2.114304559E1
6.352144583E-1,8.388555908E-1,9.223070526E0,-3.198847961E-1,9.266662555E0
6.452924584E-1,-2.033521271E0,6.677913208E0,2.681074677E0,7.477826890E0
6.553714584E-1,2.900218964E0,1.045875092E1,2.455493774E0,1.112772171E1
6.654494584E-1,1.177601166E0,7.830366669E0,9.876461792E-1,7.979776416E0
6.755282501E-1,1.150956573E0,6.832391968E0,1.004111938E0,7.001037196E0
6.856072501E-1,1.440454559E0,6.591093750E0,1.800306244E0,6.982730750E0
6.956852501E-1,1.172212372E0,6.643035736E0,1.535506897E0,6.918221380E0
7.057642500E-1,1.612297211E0,6.903643799E0,9.654922485E-1,7.154856762E0
7.158422500E-1,2.276615753E0,7.583829346E0,6.474037170E-1,7.944594288E0
7.259212501E-1,3.200793915E0,8.655151520E0,3.183879089E-1,9.233531306E0
7.360002501E-1,3.870501251E0,9.541009369E0,-1.610650635E-1,1.029745511E1
7.460782500E-1,3.747008057E0,9.999056854E0,-5.795947266E-1,1.069378966E1
7.561572500E-1,3.388653259E0,1.011431717E1,-8.701405334E-1,1.070231411E1
7.662352500E-1,3.386258240E0,1.069855225E1,-6.361770630E-2,1.122184531E1
7.763142501E-1,1.271605682E0,1.026146118E1,4.385879517E-1,1.034924760E1
7.863932501E-1,1.052461395E0,9.955347748E0,8.313711548E-1,1.004528754E1
7.964712500E-1,1.048120422E0,9.470955048E0,1.675016785E0,9.674876080E0
8.065502500E-1,1.680255890E0,9.002878418E0,2.219883728E0,9.423532428E0
8.166282501E-1,1.066083069E0,8.601862335E0,2.759960632E0,9.096480167E0
8.267072501E-1,-8.966354370E-2,8.336314545E0,-2.041754150E-1,8.339296573E0
8.367862500E-1,7.235952759E-1,8.237969055E0,-6.259982300E-1,8.293346614E0
8.468642500E-1,1.971250763E0,8.018974457E0,1.077459412E0,8.327706749E0
8.569432501E-1,2.083068237E0,8.007598114E0,1.085243225E0,8.344971761E0
8.670212501E-1,2.037712555E0,7.653135223E0,6.361770630E-1,7.945279886E0
8.771002501E-1,2.063758392E0,7.502398682E0,4.722679138E-1,7.795391053E0
8.871792500E-1,2.209555206E0,7.551197205E0,3.954776001E-1,7.877760847E0
8.972572500E-1,2.381547546E0,7.630532227E0,3.311114502E-1,8.000401588E0
9.073362501E-1,2.638114014E0,8.019573212E0,5.122348022E-1,8.457871159E0
9.174142501E-1,3.042722626E0,8.733289032E0,7.394622803E-1,9.277677660E0
9.274932500E-1,3.595373383E0,1.039663010E1,5.767506409E-1,1.101586440E1
9.375722500E-1,4.008963318E0,1.435754333E1,3.132984924E-1,1.491002996E1
9.476502500E-1,3.462150421E0,1.652518570E1,8.050259399E-1,1.690314511E1
9.577292501E-1,4.555476837E0,1.335447922E1,1.264570312E0,1.416663766E1
9.678082501E-1,4.145928497E0,1.058074722E1,5.044509888E-1,1.137521014E1
9.778862500E-1,2.665656738E0,9.604178009E0,2.758763123E-1,9.971061569E0
9.879652500E-1,2.184257813E0,8.340206451E0,5.251080322E-1,8.637462839E0
9.980432501E-1,1.886826324E0,7.857759705E0,6.460565186E-1,8.106903859E0
1.008122250E0,1.850751343E0,8.148754578E0,4.082011414E-1,8.366248255E0
1.018201250E0,1.866468658E0,8.505462799E0,4.462220764E-1,8.719272723E0
1.028279250E0,2.069446564E0,9.013206940E0,7.746391296E-1,9.280117144E0
1.038358250E0,2.379751282E0,9.710756378E0,6.741979980E-1,1.002080578E1
1.048436250E0,2.205812988E0,1.034798126E1,3.787124634E-1,1.058724470E1
1.058515250E0,1.970502319E0,1.058299255E1,9.086105347E-2,1.076526203E1
1.068594250E0,1.624122620E0,1.042372375E1,-7.125183105E-2,1.054973308E1
1.078672250E0,1.473835144E0,1.019649628E1,-1.104702759E-1,1.030305440E1
1.088751250E0,1.315614166E0,1.010743149E1,2.395019531E-3,1.019269433E1
1.098829250E0,1.131347351E0,9.835447083E0,2.421963501E-1,9.903263362E0
1.108908250E0,1.001267853E0,9.386979675E0,4.806504822E-1,9.452457333E0
1.118987250E0,1.091380463E0,9.001531219E0,6.267466736E-1,9.089086148E0
1.129065250E0,1.359323273E0,8.815617828E0,8.818162537E-1,8.963284965E0
1.139144250E0,1.720971222E0,8.601862335E0,1.049617310E0,8.834900909E0
1.149222250E0,2.132615204E0,8.211174774E0,1.003662872E0,8.542761728E0
1.159301250E0,2.423610077E0,7.698490906E0,8.562194824E-1,8.116265141E0
1.169380250E0,2.428549805E0,6.746470642E0,7.048841858E-1,7.204830463E0
1.179458250E0,2.552791443E0,5.906567230E0,5.469625854E-1,6.457820737E0
1.189537250E0,2.786904602E0,5.205574951E0,3.505709839E-1,5.915044197E0
1.199615250E0,3.103346558E0,4.689298553E0,2.929408264E-1,5.630816558E0
1.209694250E0,3.453767853E0,4.575984192E0,3.372486877E-1,5.742985320E0
1.219773250E0,3.824397125E0,5.337001648E0,3.076103210E-1,6.572992018E0
1.229851250E0,4.308640137E0,6.697522430E0,4.387376404E-1,7.975818281E0
1.239930250E0,4.735851746E0,8.474477234E0,6.848258972E-1,9.732113987E0
1.250008250E0,5.215604095E0,1.047222290E1,1.202299805E0,1.176076117E1
1.260087250E0,5.882916412E0,1.275362869E1,1.653012543E0,1.414200130E1
1.270166250E0,6.487509155E0,1.464883759E1,1.849404144E0,1.612750797E1
1.280244250E0,6.568939819E0,1.576222229E1,1.710493011E0,1.716171344E1
1.290323250E0,6.009104004E0,1.631966309E1,9.126521301E-1,1.741475432E1
1.300402250E0,4.918771362E0,1.570189774E1,-2.555186462E-1,1.645628129E1
1.310480250E0,4.389771423E0,1.423449921E1,-1.129551086E0,1.493877326E1
1.320559250E0,3.936364288E0,1.286724243E1,-1.440903625E0,1.353281548E1
1.330637250E0,3.802841949E0,1.157767410E1,-1.825453949E0,1.232219244E1
1.340716250E0,3.804787903E0,1.070873108E1,-2.144739990E0,1.156517367E1
1.350795250E0,2.924468536E0,1.014964371E1,-1.999092865E0,1.075007702E1
1.360873250E0,1.578317871E0,9.110354919E0,-1.623224487E0,9.387465675E0
1.370952250E0,5.840853882E-1,7.154522095E0,-1.149759064E0,7.269820359E0
1.381030250E0,9.952803040E-1,5.694757690E0,-5.486091614E-1,5.807049169E0
1.391109250E0,2.620151367E0,5.684878235E0,-9.190887451E-2,6.260309974E0
1.401188250E0,3.120261383E0,5.988596649E0,2.820135498E-1,6.758613213E0
1.411266250E0,3.083288269E0,6.081553345E0,6.393205261E-1,6.848407725E0
1.421345250E0,2.950963440E0,5.879772949E0,9.886940002E-1,6.652625871E0
1.431423250E0,3.212319946E0,5.892346802E0,1.121318207E0,6.804124102E0
1.441502250E0,3.660038910E0,5.772296448E0,1.191522217E0,6.937940350E0
1.451581250E0,4.220323792E0,5.985453186E0,1.137634277E0,7.411544677E0
1.461659250E0,4.282893677E0,6.107449493E0,8.448431396E-1,7.507188388E0
1.471738250E0,4.148772583E0,6.185587006E0,6.604266357E-1,7.477296563E0
1.481816250E0,4.141737213E0,6.564149780E0,3.538641357E-1,7.769637656E0
1.491895250E0,4.369713135E0,7.154222717E0,1.002914429E-2,8.383161465E0
1.501974250E0,4.280199280E0,7.692054291E0,-4.936734009E-1,8.816547993E0
1.512052250E0,3.870650940E0,8.513995056E0,-9.138496399E-1,9.397083147E0
1.522131250E0,3.661236420E0,9.824669495E0,-1.122665405E0,1.054462709E1
1.532209250E0,3.597319336E0,1.114522339E1,-1.268611908E0,1.177990182E1
1.542288250E0,3.551364899E0,1.219514008E1,-1.430724792E0,1.278204239E1
1.552367250E0,3.645668793E0,1.304058197E1,-1.350940704E0,1.360781834E1
1.562445250E0,3.930376740E0,1.436532715E1,-1.011296997E0,1.492759884E1
1.572524250E0,4.357438660E0,1.569411392E1,-7.056326294E-1,1.630307949E1
1.582602250E0,4.768633575E0,1.668565201E1,-5.472619629E-1,1.736232544E1
1.592681250E0,5.258714447E0,1.742062363E1,-7.467970276E-1,1.821235600E1
1.602760250E0,5.913153534E0,1.765084488E1,-1.387764130E0,1.866664402E1
1.612838250E0,5.941594391E0,1.711331268E1,-2.027234344E0,1.822848578E1
1.622917250E0,5.131029968E0,1.582883377E1,-2.031275940E0,1.676321953E1
1.632995250E0,4.201163635E0,1.422057816E1,-1.415306854E0,1.489556016E1
1.643074250E0,3.594026184E0,1.301004547E1,-7.958949280E-1,1.352078977E1
1.653153250E0,3.578458557E0,1.245724503E1,-5.209167480E-2,1.296113548E1
1.663231250E0,3.883374481E0,1.229408432E1,7.894583130E-1,1.291697918E1
1.673310125E0,4.085154877E0,1.176538376E1,1.584604797E0,1.255482846E1
1.683389125E0,3.947291565E0,1.040246796E1,2.186054077E0,1.133892776E1
1.693467125E0,3.359164581E0,9.047934723E0,2.556982727E0,9.984351261E0
1.703546125E0,2.759511566E0,8.000413055E0,2.843486938E0,8.927873829E0
1.713624125E0,2.343526611E0,7.671546936E0,3.003204803E0,8.565278073E0
1.723703125E0,1.874851227E0,7.612120514E0,2.716550903E0,8.296932846E0
1.733782125E0,1.369801483E0,7.821235657E0,2.346370697E0,8.279706441E0
1.743860125E0,1.046773224E0,8.451874237E0,2.253563690E0,8.809566482E0
1.753939125E0,9.434880066E-1,9.175020447E0,2.524799652E0,9.562728852E0
1.764017125E0,9.172924805E-1,9.859247589E0,3.060236206E0,1.036393912E1
1.774096125E0,7.517367554E-1,1.056952057E1,3.633244629E0,1.120180074E1
1.784175125E0,3.851490784E-1,1.112845825E1,4.397704926E0,1.197208133E1
1.794253125E0,-2.200424194E-2,1.126257935E1,4.947511597E0,1.230138402E1
1.804332125E0,-3.342549133E-1,1.155956177E1,4.797074432E0,1.251986892E1
1.814410125E0,-2.763253784E-1,1.180115936E1,3.855831757E0,1.241817847E1
1.824489125E0,4.806504822E-1,1.142903320E1,2.871927795E0,1.179414236E1
1.834568125E0,9.644444275E-1,1.096874039E1,2.111359406E0,1.121165720E1
1.844646125E0,1.035546570E0,1.048599426E1,1.559307404E0,1.065175441E1
1.854725125E0,1.532662811E0,9.308093719E0,1.177900543E0,9.506687839E0
1.864803125E0,1.557511139E0,8.564440155E0,1.089733887E0,8.772855639E0
1.874882125E0,5.984555054E-1,8.826395416E0,1.372495880E0,8.952494065E0
1.884961125E0,8.038284302E-2,8.049810333E0,1.845811615E0,8.259111836E0
1.895039125E0,1.459465027E-1,6.862329712E0,2.326911163E0,7.247577873E0
1.905118125E0,2.014810181E-1,5.704936523E0,2.247576141E0,6.135021911E0
1.915196125E0,3.424877930E-1,5.075345764E0,1.641037445E0,5.345038485E0
1.925275125E0,3.616479492E-1,4.476291504E0,9.849517822E-1,4.597619480E0
1.935354125E0,5.298980713E-2,3.846700745E0,5.192701721E-1,3.881952608E0
1.945432125E0,-6.032455444E-2,3.655847626E0,1.475930786E-1,3.659322974E0
1.955511125E0,4.713697815E-1,3.444337463E0,-4.267625427E-1,3.502538551E0
1.965589125E0,1.160536652E0,3.647165680E0,-1.264121246E0,4.030715240E0
1.975668125E0,1.845362549E0,4.091142426E0,-1.840722198E0,4.850883166E0
1.985747125E0,2.422113190E0,3.695215759E0,-2.107317810E0,4.895103693E0
1.995825125E0,2.922672272E0,4.233346710E0,-2.580932922E0,5.755384638E0
2.005904125E0,2.933000793E0,4.718936920E0,-2.848127289E0,6.243611804E0
2.015982125E0,2.307900696E0,5.001848602E0,-2.720293121E0,6.143686982E0
2.026061125E0,1.731898499E0,5.370531921E0,-2.596949615E0,6.211781776E0
2.036140125E0,1.467847595E0,6.252497864E0,-2.500849457E0,6.892209668E0
2.046218125E0,1.489253082E0,7.677833862E0,-2.095193024E0,8.096717938E0
2.056297125E0,1.738933868E0,9.770033112E0,-1.422192535E0,1.002497230E1
2.066376125E0,2.087558899E0,1.233435059E1,-3.517684937E-1,1.251470525E1
2.076454125E0,3.069067841E0,1.466590210E1,1.124761047E0,1.502574288E1
2.086533125E0,4.846471710E0,1.625185410E1,1.435514832E0,1.701974596E1
2.096611125E0,6.980134735E0,1.684057983E1,-6.923103333E-1,1.824299054E1
2.106690125E0,8.837023315E0,1.658715683E1,-2.831212463E0,1.900638095E1
2.116769125E0,9.546996918E0,1.504865616E1,-2.198777618E0,1.795666521E1
2.126847125E0,9.321266327E0,1.299956726E1,-2.589614868E-2,1.599610657E1
2.136926125E0,7.611521759E0,1.148187332E1,6.324348450E-1,1.379016506E1
2.147004125E0,6.426286469E0,1.095856155E1,-5.538482666E-1,1.271589466E1
2.157083125E0,6.515950012E0,1.082054855E1,-1.336720276E0,1.270152340E1
2.167162125E0,5.931415558E0,1.089958420E1,-1.297950897E0,1.247667034E1
2.177240125E0,4.736899567E0,1.100945572E1,-3.556604004E-1,1.199053072E1
2.187319125E0,3.603755951E0,1.086485641E1,1.222507782E0,1.151202359E1
2.197397125E0,2.831362152E0,1.053404434E1,2.671494598E0,1.123029765E1
2.207476125E0,2.144440613E0,1.064256866E1,3.194806366E0,1.131678758E1
2.217555125E0,1.894759827E0,1.153695877E1,3.223546600E0,1.212776918E1
2.227633125E0,1.929637299E0,1.268896317E1,3.420087891E0,1.328270633E1
2.237712125E0,2.319576416E0,1.376013565E1,3.849844208E0,1.447560252E1
2.247790125E0,3.171604614E0,1.452654190E1,4.233047333E0,1.545956614E1
2.257869125E0,3.794758759E0,1.402733002E1,4.157454529E0,1.511458268E1
2.267948125E0,4.429888000E0,1.288131317E1,3.632645874E0,1.409781021E1
2.278026125E0,4.621489563E0,1.182391205E1,2.683769073E0,1.297558008E1
2.288105125E0,4.591701508E0,1.087413712E1,1.745370483E0,1.193217913E1
2.298183125E0,4.341272278E0,1.005144791E1,1.036594391E0,1.099785333E1
2.308262125E0,3.884871368E0,9.238189087E0,4.996609497E-1,1.003424258E1
2.318341125E0,3.522474976E0,8.409362640E0,1.107696533E-2,9.117309508E0
2.328419125E0,2.935395813E0,7.621999969E0,-3.926335144E-1,8.177138448E0
2.338498125E0,2.624791718E0,6.415209503E0,-5.510041809E-1,6.953276216E0
2.348576125E0,2.529140625E0,5.542823639E0,-4.070036316E-1,6.106152483E0
2.358655125E0,2.196382599E0,4.948409729E0,-1.163081360E-1,5.415199253E0
2.368734125E0,1.736389160E0,4.245770874E0,1.826202393E-1,4.590748063E0
2.378812125E0,1.509910126E0,3.565585327E0,3.848497009E-1,3.891187043E0
2.388891125E0,1.713337097E0,3.008144531E0,3.748205566E-1,3.482089600E0
2.398969125E0,2.174228668E0,2.931803284E0,9.400451660E-2,3.651243301E0
2.409048125E0,2.454895020E0,3.142714691E0,-4.923262024E-1,4.018152595E0
2.419127125E0,3.213068390E0,3.359314270E0,-1.241817627E0,4.811539448E0
2.429205125E0,4.124822388E0,3.209775238E0,-1.888472900E0,5.557260719E0
2.439284125E0,4.761747894E0,3.066972198E0,-2.339185638E0,6.127997301E0
2.449362125E0,4.783303070E0,3.073558502E0,-2.391427002E0,6.168117479E0
2.459441125E0,2.335144043E0,3.492088165E0,-2.095791779E0,4.694669385E0
2.469520125E0,1.615740051E0,4.046984253E0,-1.416354675E0,4.582003713E0
2.479598125E0,1.463806000E0,4.584366760E0,-7.450007629E-1,4.869719985E0
2.489677125E0,1.284329224E0,5.438041534E0,1.496887207E-1,5.589651510E0
2.499756125E0,1.345551910E0,6.513854370E0,8.394543457E-1,6.704139937E0
2.509834125E0,1.692829742E0,8.169561310E0,1.199156342E0,8.428842178E0
2.519913125E0,2.062261505E0,1.010788055E1,1.301094360E0,1.039783720E1
2.529991125E0,2.321073303E0,1.208092758E1,1.290765839E0,1.236940859E1
2.540070125E0,2.673440552E0,1.452100342E1,1.197060699E0,1.481349989E1
2.550149125E0,2.969524841E0,1.694536194E1,7.785310364E-1,1.722119275E1
2.560227125E0,3.309767303E0,1.922063049E1,-2.924917603E-1,1.950571064E1
2.570306125E0,3.805087280E0,2.023806473E1,-2.177970886E0,2.070752304E1
2.580384125E0,4.770130463E0,1.752555542E1,-4.350852356E0,1.867696853E1
2.590463125E0,4.841082916E0,1.420051987E1,-5.694158936E0,1.604725192E1
2.600542125E0,4.693489838E0,1.244871277E1,-5.431006165E0,1.436993822E1
2.610620125E0,4.238286438E0,1.164817749E1,-3.933071136E0,1.300431311E1
2.620699125E0,3.463647308E0,1.170790329E1,-2.340981903E0,1.243189641E1
2.630777125E0,2.677182770E0,1.188648193E1,-1.071771240E0,1.223128995E1
2.640856125E0,2.463277588E0,1.110031677E1,-5.054988098E-1,1.138157713E1
2.650935125E0,2.204765167E0,9.402397614E0,-1.883084106E-1,9.659271732E0
2.661013125E0,2.016157379E0,7.780370636E0,3.344046021E-1,8.044307568E0
2.671092125E0,1.953737183E0,6.934180298E0,9.434880066E-1,7.265680629E0
2.681170625E0,1.545236664E0,7.411687317E0,1.289718018E0,7.680119647E0
2.691249625E0,1.018781433E0,8.920399933E0,1.577120361E0,9.115852083E0
2.701328625E0,1.022074585E0,1.083162552E1,2.033072205E0,1.106806805E1
2.711406625E0,1.113534393E0,1.298594559E1,2.401905212E0,1.325307098E1
2.721485625E0,8.253836060E-1,1.465901642E1,2.564018097E0,1.490443589E1
2.731563625E0,5.149291992E-2,1.560549820E1,2.509381714E0,1.580605018E1
2.741642625E0,-8.794212341E-1,1.586984848E1,2.445015564E0,1.608115585E1
2.751721625E0,-2.231709137E0,1.536899002E1,2.408940582E0,1.571589560E1
2.761799625E0,-3.342698822E0,1.472038879E1,2.048340454E0,1.523348878E1
2.771878625E0,-1.149609375E0,1.304612045E1,1.303190002E0,1.316135118E1
2.781956625E0,2.390528870E0,1.130973129E1,6.608757019E-1,1.157848897E1
2.792035625E0,3.317401428E0,9.851164398E0,3.885919189E-1,1.040199961E1
2.802114625E0,3.686982880E0,8.648864594E0,-2.188449097E-1,9.404498637E0
2.812192625E0,3.510200500E0,7.791896667E0,-6.902146912E-1,8.573888123E0
2.822271625E0,2.703827362E0,6.803951111E0,-4.839436340E-1,7.337481486E0
2.832349625E0,1.783092041E0,6.284980316E0,2.993774414E-2,6.533091999E0
2.842428625E0,1.107995911E0,5.869145050E0,6.357279968E-1,6.006552143E0
2.852507625E0,3.427871704E-1,5.320535889E0,8.791218567E-1,5.403559977E0
2.862585625E0,9.041198730E-2,4.722828827E0,6.183641052E-1,4.763996287E0
2.872664625E0,2.483335876E-1,4.261039124E0,2.312690735E-1,4.274530310E0
2.882742625E0,-5.763015747E-2,3.839515686E0,2.409988403E-1,3.847503396E0
2.892821625E0,2.598596191E-1,3.596121826E0,2.689906311E-1,3.615518658E0
2.902900625E0,9.738748169E-1,3.434757385E0,4.999603271E-2,3.570502774E0
2.912978625E0,1.998494110E0,3.339705048E0,-3.547622681E-1,3.908128040E0
2.923057625E0,2.815495148E0,3.924538879E0,-1.209634552E0,4.979180062E0
2.933136625E0,3.201991425E0,4.637356567E0,-2.021396484E0,5.986974926E0
2.943214625E0,3.600013733E0,5.490133209E0,-2.099234619E0,6.892637196E0
2.953293625E0,3.964954834E0,6.013145599E0,-2.122136993E0,7.508811641E0
2.963371625E0,3.755690002E0,6.212231598E0,-2.390379181E0,7.642705113E0
2.973450625E0,3.188519440E0,6.472091217E0,-2.288141785E0,7.569029909E0
2.983529625E0,2.302661591E0,7.475155334E0,-1.983076172E0,8.069249580E0
2.993607625E0,1.399589539E0,9.356742554E0,-1.339414673E0,9.555182560E0
3.003686625E0,9.988728333E-1,1.099463654E1,-1.757345581E-1,1.104131614E1
3.013764625E0,1.422042847E0,1.286275177E1,6.406677246E-1,1.295696894E1
3.023843625E0,2.481240234E0,1.409753403E1,3.606001282E-1,1.431876570E1
3.033922625E0,4.165388031E0,1.446412170E1,-6.756948853E-1,1.506711113E1
3.044000625E0,6.223158875E0,1.446442108E1,-1.449884949E0,1.581294881E1
3.054079625E0,7.639663239E0,1.389560394E1,-1.706900482E0,1.594884863E1
3.064157625E0,7.977360992E0,1.278611115E1,-1.528621216E0,1.514792426E1
3.074236625E0,8.178392944E0,1.195473999E1,-1.358425140E0,1.454810085E1
3.084315625E0,7.004983063E0,1.115749786E1,-1.215472412E0,1.323015191E1
3.094393625E0,6.161786499E0,1.064331711E1,-1.250649261E0,1.236171248E1
3.104472625E0,6.291566620E0,1.024110352E1,-1.291214905E0,1.208847582E1
3.114550625E0,5.641767883E0,9.922715607E0,-1.022823029E0,1.146019183E1
3.124629625E0,4.052672424E0,1.007390121E1,-6.289920044E-1,1.087673069E1
3.134708625E0,2.549797668E0,1.041504181E1,-1.537303162E-1,1.072372123E1
3.144786625E0,1.754800873E0,1.067969147E1,5.008584595E-1,1.083448177E1
3.154865625E0,1.107995911E0,1.061846878E1,1.197809143E0,1.074310388E1
3.164943625E0,6.502478027E-1,1.038480469E1,1.921853485E0,1.058113942E1
3.175022625E0,1.364412689E0,1.006551865E1,2.743794250E0,1.052162984E1
3.185101625E0,2.563119965E0,1.012374756E1,2.927013245E0,1.084560995E1
3.195179625E0,3.353925476E0,1.110974716E1,2.712359619E0,1.191772599E1
3.205258625E0,3.907624054E0,1.238928635E1,2.359692993E0,1.320348791E1
3.215336625E0,4.241729279E0,1.292771667E1,1.925146637E0,1.374133601E1
3.225415625E0,4.133504333E0,1.281844391E1,1.665436707E0,1.357100003E1
3.235494625E0,3.927083588E0,1.281545013E1,1.645228729E0,1.350424101E1
3.245572625E0,3.858825531E0,1.271875122E1,1.629361725E0,1.339074258E1
3.255651625E0,3.803889771E0,1.251008514E1,1.510957947E0,1.316262898E1
3.265729625E0,3.640429688E0,1.206056992E1,1.089733887E0,1.264506208E1
3.275808625E0,3.313509521E0,1.097308136E1,5.746549988E-1,1.147685010E1
3.285887625E0,2.829266510E0,9.732610931E0,2.827619934E-1,1.013944865E1
3.295965625E0,2.480641479E0,8.758287048E0,6.107299805E-2,9.103016208E0
3.306044625E0,2.214944000E0,7.962092743E0,-1.249900818E-1,8.265380832E0
3.316122625E0,1.880389709E0,7.037615204E0,-4.132905579E-1,7.296211503E0
3.326201625E0,1.441053314E0,6.403533783E0,-6.251000977E-1,6.593377715E0
3.336280625E0,1.617087250E0,5.751938782E0,-9.804611206E-1,6.054838968E0
3.346358625E0,1.689386902E0,4.415817261E0,-1.254092102E0,4.891443262E0
3.356437625E0,2.064057770E0,3.520529022E0,-1.321302338E0,4.289556963E0
3.366515625E0,1.875000916E0,2.872227173E0,-8.957373047E-1,3.545089940E0
3.376594625E0,2.156864777E0,3.276087341E0,-5.617817688E-1,3.962374627E0
3.386673625E0,2.399959259E0,3.532653809E0,-9.295669556E-1,4.370759900E0
3.396751625E0,2.189646606E0,3.774251404E0,-1.171613617E0,4.517986763E0
3.406830625E0,2.099683685E0,4.174519043E0,-1.073567505E0,4.794562337E0
3.416909625E0,2.111658783E0,4.461322632E0,-1.136287079E0,5.064943313E0
3.426987625E0,1.682950287E0,4.727169800E0,-1.088087311E0,5.134431807E0
3.437066625E0,1.735640717E0,4.867428131E0,-7.994874573E-1,5.229099875E0
3.447144625E0,2.075284424E0,5.442981262E0,-5.938151550E-1,5.855379313E0
3.457223625E0,2.055974579E0,6.112089844E0,-4.492158508E-1,6.464245401E0
3.467302625E0,2.023641815E0,7.249424744E0,-2.469863892E-2,7.526612474E0
3.477380625E0,2.177521820E0,9.249266052E0,4.326004028E-1,9.511974921E0
3.487459625E0,2.541415100E0,1.117561020E1,5.206173706E-1,1.147275453E1
3.497537625E0,2.715054016E0,1.288625290E1,3.056643677E-1,1.317271661E1
3.507616625E0,2.420616302E0,1.436383026E1,-2.880010986E-1,1.456921232E1
3.517695625E0,2.506687317E0,1.591265945E1,-9.116043091E-1,1.613465942E1
3.527773625E0,2.586321716E0,1.729503479E1,-1.625170441E0,1.756270103E1
3.537852625E0,2.225272522E0,1.739308090E1,-2.538421326E0,1.771763765E1
3.547930625E0,1.971849518E0,1.597343307E1,-3.003354492E0,1.637250417E1
3.558009625E0,1.861229553E0,1.470437210E1,-2.845283203E0,1.509232821E1
3.568088625E0,1.913171539E0,1.366149078E1,-2.368824005E0,1.399670972E1
3.578166625E0,2.026485901E0,1.236503677E1,-1.897603912E0,1.267287182E1
3.588245625E0,2.016606445E0,1.098415833E1,-1.542691956E0,1.127378970E1
3.598323625E0,1.900447998E0,9.920769653E0,-1.485510864E0,1.020980488E1
3.608402625E0,1.785487061E0,9.557624817E0,-1.700463867E0,9.870548797E0
3.618481625E0,1.744322662E0,9.144933014E0,-2.120191040E0,9.548176340E0
3.628559625E0,1.880389709E0,8.258626099E0,-2.255809021E0,8.765240717E0
3.638638625E0,1.807341614E0,7.196734314E0,-1.721270599E0,7.617233157E0
3.648716625E0,1.427880707E0,6.807094574E0,-6.595285034E-1,6.986440989E0
3.658795625E0,7.217990112E-1,7.305707703E0,2.707868958E-1,7.346270101E0
3.668874625E0,-3.655398560E-1,8.010142822E0,7.834707642E-1,8.056663941E0
3.678951958E0,-1.108744354E0,9.102870483E0,1.344204712E0,9.268141744E0
3.689030958E0,-1.219214630E0,1.051024384E1,1.819616089E0,1.073604734E1
3.699108958E0,-1.090632019E0,1.203796692E1,1.937870178E0,1.224162843E1
3.709187958E0,-1.022523651E0,1.361688354E1,1.826801147E0,1.377687463E1
3.719266958E0,-9.586065674E-1,1.510299316E1,1.704355774E0,1.522905636E1
3.729344958E0,-7.268884277E-1,1.598585724E1,1.697021027E0,1.609210610E1
3.739423958E0,7.237449646E-1,1.608090958E1,1.519041138E0,1.616870266E1
3.749501958E0,1.506916351E0,1.550176392E1,1.092428284E0,1.561309966E1
3.759580958E0,1.872456207E0,1.449151474E1,8.261320496E-1,1.463531981E1
3.769659958E0,2.219434662E0,1.254196884E1,9.620494080E-1,1.277311284E1
3.779737958E0,2.503693542E0,1.059152481E1,8.928932190E-1,1.091998798E1
3.789816958E0,2.242636414E0,9.250463562E0,3.740721130E-1,9.525776826E0
3.799894958E0,1.858984222E0,8.202043762E0,-2.559677124E-1,8.413968367E0
3.809973958E0,1.095122681E0,7.313641205E0,-6.294410706E-1,7.421916021E0
3.820052958E0,3.965254211E-1,6.563700714E0,-6.265969849E-1,6.605454054E0
3.830130958E0,-2.664459229E-1,6.447242889E0,-1.901046753E-2,6.452774264E0
3.840209958E0,-1.035845947E0,5.313350830E0,8.020321655E-1,5.472470143E0
3.850287958E0,-1.759291534E0,4.410129089E0,1.508862305E0,4.982068922E0
3.860366958E0,-1.884281616E0,4.221371613E0,1.842069397E0,4.976315420E0
3.870445958E0,-1.351988525E0,3.866160278E0,1.338516541E0,4.308908771E0
3.880523958E0,-3.565585327E-1,4.132007446E0,-1.511856079E-2,4.147390516E0
3.890602958E0,8.476872253E-1,4.927602997E0,-1.553170166E0,5.235664475E0
3.900680958E0,1.601220245E0,5.082530823E0,-2.953358459E0,6.092483240E0
3.910759958E0,1.786983948E0,4.358935547E0,-4.130660248E0,6.265459665E0
3.920838958E0,1.967059479E0,4.018393707E0,-4.655917969E0,6.457118793E0
3.930916958E0,1.606758728E0,4.548890533E0,-3.834725647E0,6.162726627E0
3.940995958E0,1.426383820E0,5.448070679E0,-1.911674652E0,5.947314091E0
3.951074958E0,7.967930603E-1,6.239624634E0,-1.571731567E-2,6.290313330E0
3.961152958E0,-3.308120728E-1,7.338639221E0,1.450034637E0,7.487834313E0
3.971231958E0,-3.643423462E-1,8.934770050E0,1.663490753E0,9.095606779E0
3.981309958E0,1.246008911E0,1.179846497E1,4.918771362E-1,1.187426869E1
3.991388958E0,2.970422974E0,1.433329376E1,-4.561015320E-1,1.464495651E1
4.001467958E0,4.660708008E0,1.540910660E1,-1.313219147E0,1.615200637E1
4.011545958E0,6.111191711E0,1.540117310E1,-1.908531189E0,1.667888750E1
4.021624958E0,7.532037048E0,1.490914627E1,-1.619631958E0,1.678205686E1
4.031702958E0,8.792565765E0,1.389904678E1,-6.656657410E-1,1.646012834E1
4.041781958E0,9.191635895E0,1.325688217E1,-6.860234070E-1,1.614626035E1
4.051860958E0,8.522826691E0,1.282248550E1,-1.887874146E0,1.551189151E1
4.061938958E0,7.323820038E0,1.289328827E1,-2.619402924E0,1.505777188E1
4.072017958E0,5.803581390E0,1.321466995E1,-2.556833038E0,1.465764149E1
4.082095958E0,4.571493530E0,1.324071579E1,-2.386636963E0,1.420954411E1
4.092174958E0,3.716321869E0,1.280841476E1,-3.092868347E0,1.369059428E1
4.102253958E0,3.264710999E0,1.181822388E1,-3.231031036E0,1.267944459E1
4.112331958E0,2.564167786E0,1.083881058E1,-1.977088623E0,1.131210195E1
4.122410958E0,1.847458191E0,9.746981049E0,-6.361770630E-1,9.940898480E0
4.132488958E0,1.468745728E0,8.646319885E0,1.537303162E-1,8.771527494E0
4.142567958E0,1.278341675E0,7.630382538E0,7.050338745E-1,7.768781621E0
4.152646958E0,1.264270935E0,7.013365631E0,1.264720001E0,7.237761750E0
4.162724958E0,1.289867706E0,6.925498352E0,1.749262390E0,7.258526368E0
4.172803958E0,1.423689423E0,7.483088837E0,2.240391083E0,7.939953546E0
4.182881958E0,1.410965881E0,8.645721130E0,2.508633270E0,9.112220337E0
4.192960958E0,1.365310822E0,9.897118835E0,2.587369537E0,1.032044166E1
4.203039958E0,1.479523315E0,1.087383774E1,2.485281830E0,1.125193149E1
4.213117958E0,1.305135956E0,1.186792053E1,2.152823181E0,1.213200582E1
4.223196958E0,9.383985901E-1,1.312276108E1,2.021546173E0,1.331067613E1
4.233274958E0,1.019679565E0,1.398736313E1,1.780697021E0,1.413707734E1
4.243353958E0,1.065184937E0,1.424333084E1,9.494755554E-1,1.431462875E1
4.253432958E0,1.027313690E0,1.368439316E1,-3.981719971E-2,1.372295795E1
4.263510958E0,4.212240601E-1,1.180999100E1,-4.800517273E-1,1.182724679E1
4.273589958E0,-1.353186035E-1,9.843380585E0,-5.245092773E-1,9.858273806E0
4.283667958E0,3.852987671E-1,8.936416626E0,-6.339317322E-1,8.967154883E0
4.293746958E0,1.561103668E0,8.772507477E0,-8.806187439E-1,8.953737849E0
4.303825958E0,1.604214020E0,7.627987518E0,-9.708810425E-1,7.855081553E0
4.313903958E0,2.337838440E0,6.921157379E0,-1.571581879E0,7.472467975E0
4.323982958E0,2.360890503E0,6.472390594E0,-1.775008850E0,7.114513363E0
4.334060958E0,2.505639496E0,6.055208130E0,-1.594933319E0,6.744448611E0
4.344139958E0,2.583178253E0,5.736371155E0,-1.312620392E0,6.426642685E0
4.354218958E0,2.050286407E0,5.339995422E0,-1.137783966E0,5.832133213E0
4.364296958E0,1.320404205E0,4.751419373E0,-7.891589355E-1,4.994219173E0
4.374375958E0,2.221380615E-1,4.268074493E0,-4.165837097E-1,4.294106099E0
4.384453958E0,1.131646729E-1,4.859195251E0,-1.299298096E-1,4.862249119E0
4.394532958E0,2.073188782E-1,5.983207855E0,-1.227447510E-2,5.986811173E0
4.404611958E0,7.006929016E-1,6.780749359E0,2.091151428E-1,6.820063164E0
4.414689958E0,1.513951721E0,6.779701538E0,3.382965088E-1,6.954915333E0
4.424768958E0,2.448757782E0,6.989116058E0,2.766247559E-1,7.410848751E0
4.434846958E0,3.570674744E0,7.499105530E0,-2.309696960E-1,8.309010102E0
4.444925958E0,4.733456726E0,7.917485504E0,-1.269360352E0,9.311469540E0
4.455004958E0,5.336552582E0,7.964787140E0,-2.098336487E0,9.814257163E0
4.465082958E0,4.817731476E0,8.206384735E0,-2.290686493E0,9.787876767E0
4.475161958E0,3.533102875E0,8.951235809E0,-2.071242828E0,9.843652030E0
4.485239958E0,2.290237427E0,1.028421387E1,-1.821262665E0,1.069239169E1
4.495318958E0,1.267115021E0,1.182765427E1,-1.659149780E0,1.201048558E1
4.505397958E0,6.285429382E-1,1.315913544E1,-1.348096619E0,1.324293307E1
4.515475958E0,3.849993896E-1,1.352183121E1,-9.119036865E-1,1.355801284E1
4.525554958E0,6.056405640E-1,1.356015152E1,-7.173083496E-1,1.359260979E1
4.535633958E0,7.309300232E-1,1.375295059E1,-1.639241180E0,1.386957174E1
4.545711958E0,2.918930054E-1,1.369038071E1,-3.241658936E0,1.407196070E1
4.555790958E0,6.137237549E-2,1.321766373E1,-4.131558380E0,1.384847196E1
4.565868958E0,3.034190369E-1,1.241084152E1,-3.971241760E0,1.303425531E1
4.575947958E0,5.736071777E-1,1.141900406E1,-3.157683563E0,1.186143517E1
4.586026958E0,9.226812744E-1,1.093371323E1,-2.213447113E0,1.119360415E1
4.596104958E0,1.128952332E0,1.101828735E1,-1.291214905E0,1.115098316E1
4.606183958E0,8.523275757E-1,1.091769653E1,-4.028123474E-1,1.095832185E1
4.616261958E0,5.306465149E-1,1.040905426E1,5.565426636E-1,1.043741999E1
4.626340958E0,3.775149536E-1,9.709259491E0,1.488205261E0,9.829902965E0
4.636419958E0,-1.664538574E-1,9.303752747E0,2.193538513E0,9.560289392E0
4.646497958E0,-6.902146912E-1,9.122330017E0,2.470462646E0,9.476100830E0
4.656576958E0,-1.158890076E0,9.284293213E0,2.604733429E0,9.712145124E0
4.666654958E0,-1.222956848E0,1.024798920E1,2.945125580E0,1.073269168E1
4.676734750E0,-9.241781616E-1,1.178843582E1,3.121309204E0,1.222963186E1
4.686813750E0,-3.712280273E-1,1.337094498E1,3.052153015E0,1.371989861E1
4.696891750E0,-2.894979858E-1,1.449525696E1,2.752775574E0,1.475716967E1
4.706970750E0,4.812492371E-1,1.463491653E1,2.376607819E0,1.483444126E1
4.717048750E0,1.594633942E0,1.427012512E1,1.980980530E0,1.449495127E1
4.727127750E0,2.203867035E0,1.366658020E1,1.506467285E0,1.392486581E1
4.737206750E0,2.420765991E0,1.271396118E1,1.417552185E0,1.301976847E1
4.747284750E0,2.675685883E0,1.130119904E1,1.403331757E0,1.169810816E1
4.757363750E0,2.976410522E0,1.025457550E1,1.111738129E0,1.073551582E1
4.767441750E0,2.620151367E0,9.598639526E0,1.204545135E0,1.002247489E1
4.777520750E0,1.610650635E0,8.439001007E0,1.387614441E0,8.702666678E0
4.787599750E0,1.057101746E0,6.990313568E0,1.447190552E0,7.216391645E0
4.797677750E0,1.079555054E0,6.498735809E0,1.714833984E0,6.807324131E0
4.807756750E0,9.181906128E-1,6.327791290E0,1.665137329E0,6.607321616E0
4.817834750E0,1.331181793E0,6.417305145E0,1.305734711E0,6.682723504E0
4.827913750E0,1.687890015E0,6.495442657E0,2.335144043E-1,6.715227248E0
4.837992750E0,2.036515045E0,6.337521057E0,-1.071022797E0,6.742303502E0
4.848070750E0,2.782264252E0,5.839656372E0,-2.230212250E0,6.842253108E0
4.858149750E0,2.762355652E0,5.356610870E0,-2.602338409E0,6.564758485E0
4.868227750E0,2.931952972E0,5.630391541E0,-1.889221344E0,6.623202731E0
4.878306750E0,2.613714752E0,5.761818237E0,-7.261399841E-1,6.368463981E0
4.888385750E0,2.481240234E0,5.846092987E0,1.326242065E-1,6.352239408E0
4.898463750E0,1.904938660E0,5.886059875E0,3.209326172E-1,6.194956812E0
4.908542750E0,8.783734131E-1,6.090384979E0,3.724255371E-1,6.164659750E0
4.918620750E0,2.255809021E-1,5.907165985E0,1.095721436E-1,5.912487021E0
4.928699750E0,-8.711883545E-2,6.147566071E0,-3.320095825E-1,6.157141272E0
4.938778750E0,-9.571096802E-1,7.005881195E0,-4.243675232E-1,7.083679697E0
4.948856750E0,-1.188229065E0,8.327333221E0,-5.957611084E-1,8.432751520E0
4.958935750E0,-3.454815674E-1,1.028735733E1,-1.114731903E0,1.035334272E1
4.969013750E0,5.372328186E-1,1.214798813E1,-1.002165985E0,1.220108894E1
4.979092750E0,2.050735474E0,1.371957001E1,-4.174818420E-1,1.387827108E1
4.989171750E0,4.075874176E0,1.518996231E1,4.004173279E-1,1.573238823E1
4.999249750E0,6.034401398E0,1.642190048E1,8.970845032E-1,1.751849241E1
5.009328750E0,7.645800476E0,1.668894516E1,1.019380188E-1,1.835727504E1
5.019406750E0,8.696764984E0,1.560489944E1,-1.541494446E0,1.793105722E1
5.029485750E0,9.005123749E0,1.394724655E1,-2.665207672E0,1.681431747E1
5.039564750E0,9.148076477E0,1.275527527E1,-2.998564453E0,1.598047994E1
5.049642750E0,9.041947174E0,1.256008118E1,-2.960543518E0,1.575681649E1
5.059721750E0,7.265890503E0,1.313234116E1,-2.984044647E0,1.530215905E1
5.069799750E0,5.885461121E0,1.320179672E1,-3.183430023E0,1.480068634E1
5.079878750E0,4.337829437E0,1.260588593E1,-3.549718323E0,1.379585533E1
5.089957750E0,3.245550842E0,1.118219650E1,-3.725153503E0,1.222505164E1
5.100035750E0,2.435136108E0,9.527238007E0,-2.947969666E0,1.026589875E1
5.110114750E0,1.736987915E0,8.241561584E0,-1.511107635E0,8.557097093E0
5.120192750E0,1.006207581E0,7.305408325E0,1.853146362E-1,7.376705634E0
5.130271750E0,5.147795105E-1,6.757098541E0,1.530417480E0,6.947341672E0
5.140350750E0,4.602928162E-1,6.454278259E0,2.372566223E0,6.891926277E0
5.150428750E0,4.787045288E-1,6.594237213E0,2.800825653E0,7.180372329E0
5.160507750E0,3.628454590E-1,6.921007690E0,2.926264801E0,7.522966833E0
5.170586750E0,2.052232361E-1,7.445966034E0,2.985391846E0,8.024779824E0
5.180664750E0,2.618055725E-1,8.496182098E0,3.091970215E0,9.045105429E0
5.190743750E0,3.317102051E-1,9.874964905E0,3.278931427E0,1.041039648E1
5.200821750E0,5.444178772E-1,1.112232101E1,3.347189484E0,1.162781549E1
5.210900750E0,1.269959106E0,1.211625412E1,3.008743286E0,1.254866312E1
5.220979750E0,2.076182556E0,1.296768356E1,2.737507324E0,1.341511451E1
5.231057750E0,2.666704559E0,1.336645432E1,2.673590240E0,1.388961839E1
5.241136750E0,2.761008453E0,1.312395859E1,2.323019257E0,1.361094689E1
5.251214750E0,2.412233734E0,1.228420486E1,1.281485138E0,1.258422683E1
5.261293750E0,2.541564789E0,1.151749924E1,-1.725910950E-1,1.179585215E1
5.271372750E0,3.174299011E0,1.080423248E1,-1.323697357E0,1.133842090E1
5.281450750E0,3.818858643E0,9.864187317E0,-2.026934967E0,1.077006676E1
5.291529750E0,3.975732422E0,8.999884644E0,-2.242486725E0,1.009123970E1
5.301607750E0,3.058889008E0,8.023315430E0,-1.823358307E0,8.778099336E0
5.311686750E0,2.896925812E0,7.078929291E0,-1.402433624E0,7.776261257E0
5.321765750E0,2.564018097E0,6.411167908E0,-1.222507782E0,7.012259837E0
5.331843750E0,2.685116272E0,5.851032715E0,-1.435963898E0,6.595940080E0
5.341922750E0,2.813998260E0,5.133874054E0,-1.739233246E0,6.107387436E0
5.352000750E0,1.328786774E0,4.752018127E0,-1.452878723E0,5.143754189E0
5.362079750E0,9.785151672E-1,4.702620850E0,-8.074209595E-1,4.870735406E0
5.372158750E0,8.860075378E-1,4.606969757E0,-3.820056152E-1,4.706921286E0
5.382236750E0,8.201445007E-1,4.379592590E0,-6.167175293E-2,4.456149870E0
5.392315750E0,8.174501038E-1,4.261787567E0,9.370513916E-2,4.340488290E0
5.402393750E0,1.029858398E0,4.205504608E0,1.707948303E-1,4.333133763E0
5.412472750E0,1.452729034E0,4.226161652E0,2.046244812E-1,4.473559559E0
5.422551750E0,2.226170654E0,4.428241425E0,3.300636292E-1,4.967303081E0
5.432629750E0,2.959944763E0,5.116061096E0,3.100053406E-1,5.918737826E0
5.442708750E0,3.477418671E0,6.149811401E0,-2.691403198E-1,7.070011131E0
5.452786750E0,3.665427704E0,7.302414551E0,-9.312135315E-1,8.223610957E0
5.462865750E0,4.109703827E0,8.897796936E0,-1.419498138E0,9.903304036E0
5.472944750E0,4.452341309E0,1.100212097E1,-1.868414612E0,1.201503151E1
5.483022750E0,4.451592865E0,1.293699738E1,-2.268831940E0,1.386831563E1
5.493101750E0,4.381089478E0,1.481289642E1,-2.544259186E0,1.565532179E1
5.503179750E0,4.233197021E0,1.650123550E1,-2.863096161E0,1.727449130E1
5.513258750E0,3.698658600E0,1.786594757E1,-3.191213837E0,1.852177108E1
5.523337750E0,3.550017700E0,1.721614883E1,-3.097359009E0,1.784914674E1
5.533415750E0,3.453618164E0,1.479164063E1,-2.612666931E0,1.541253189E1
5.543494750E0,3.006647644E0,1.288281006E1,-2.587668915E0,1.347971645E1
5.553572750E0,3.328179016E0,1.181433197E1,-3.028801575E0,1.264234371E1
5.563651750E0,3.750600586E0,1.132919083E1,-3.164718933E0,1.234637661E1
5.573730750E0,3.898193665E0,1.119611755E1,-3.114423523E0,1.225759340E1
5.583808750E0,3.804638214E0,1.148666336E1,-2.876268768E0,1.243750896E1
5.593887750E0,3.586841125E0,1.190070236E1,-2.405048676E0,1.266003180E1
5.603965750E0,3.046764221E0,1.173948761E1,-1.878144379E0,1.227296899E1
5.614044750E0,2.365680542E0,1.066247726E1,-1.246607666E0,1.099267468E1
5.624123750E0,1.445094910E0,8.951834564E0,-4.869374084E-1,9.080790131E0
5.634201750E0,4.403842163E-1,7.574249268E0,6.741979980E-1,7.616937256E0
5.644280750E0,-6.183641052E-1,6.854545898E0,1.963766327E0,7.157063073E0
5.654358750E0,-1.443897400E0,6.584208069E0,3.090473328E0,7.415366544E0
5.664437750E0,-2.183060303E0,7.133865051E0,3.816313934E0,8.379858883E0
5.674516750E0,-2.106269989E0,8.568182373E0,3.855682068E0,9.628935904E0
5.684594750E0,-1.122815094E0,1.020892044E1,3.047213287E0,1.071299580E1
5.694673750E0,-3.579057312E-1,1.174562485E1,2.139949951E0,1.194433696E1
5.704751750E0,2.486329651E-1,1.274868896E1,1.478026428E0,1.283648904E1
5.714830750E0,1.164278870E0,1.312874863E1,1.447639618E0,1.325953416E1
5.724909750E0,2.124232635E0,1.338860825E1,1.772464142E0,1.367146021E1
5.734987750E0,3.201242981E0,1.374980713E1,1.558259583E0,1.420328573E1
5.745066750E0,3.990401917E0,1.409663589E1,9.877958679E-1,1.468380712E1
5.755144750E0,3.970643005E0,1.292292664E1,3.263214111E-1,1.352311075E1
5.765223750E0,3.451672211E0,1.095751373E1,1.800755310E-1,1.148971607E1
5.775302750E0,3.250340881E0,9.543853455E0,3.496728516E-1,1.008821717E1
5.785380750E0,3.084186401E0,8.129295044E0,1.507365417E-1,8.695997078E0
5.795459750E0,3.072360992E0,6.640640717E0,-3.222798157E-1,7.324027272E0
5.805538750E0,2.353256378E0,6.160738678E0,-3.026705933E-1,6.601827484E0
5.815616750E0,2.429597626E0,5.877677307E0,-1.466949463E-1,6.361725753E0
5.825695750E0,2.364033966E0,5.506898346E0,-3.749702454E-1,6.004597295E0
5.835773750E0,1.564396820E0,5.250032501E0,-6.486012268E-1,5.516417517E0
5.845852750E0,1.283880157E0,5.407505035E0,-9.054670715E-1,5.631103763E0
5.855931750E0,1.168769531E0,5.155129852E0,-1.296154633E0,5.442554808E0
5.866009750E0,1.674418030E0,5.146896973E0,-1.436263275E0,5.599738957E0
5.876088750E0,2.621348877E0,5.729036407E0,-1.112336884E0,6.397704388E0
5.886166750E0,2.472558289E0,5.882916412E0,-6.408174133E-1,6.413493351E0
5.896245750E0,1.473835144E0,5.601351929E0,-4.418811035E-1,5.808837437E0
5.906324750E0,3.519181824E-1,5.076243896E0,-7.602690125E-1,5.144910833E0
5.916402750E0,-5.083428955E-1,4.838538208E0,-5.620811462E-1,4.897529960E0
5.926481750E0,-1.176553345E0,4.932093658E0,-5.098397827E-1,5.096053594E0
5.936559750E0,-1.164278870E0,5.558391266E0,-6.851252747E-1,5.720197146E0
5.946638750E0,-8.812174988E-1,6.888674927E0,-6.797364807E-1,6.977996002E0
5.956717750E0,-2.305206299E-2,9.080117798E0,-3.775149536E-1,9.087991426E0
5.966795750E0,1.731599121E0,1.179472275E1,9.879455566E-2,1.192156368E1
5.976874750E0,4.138593750E0,1.416878586E1,5.237608337E-1,1.477013122E1
5.986952750E0,6.327491913E0,1.597777405E1,5.810916138E-1,1.719488543E1
5.997031750E0,8.492589569E0,1.718201981E1,-5.658233643E-1,1.917461964E1
6.007110750E0,1.030771500E1,1.640872787E1,-1.782942352E0,1.945955350E1
6.017188750E0,1.010039612E1,1.445005096E1,-1.275497589E0,1.767622326E1
6.027267750E0,7.521109772E0,1.291978317E1,-7.936495972E-1,1.497056342E1
6.037345750E0,6.581813049E0,1.160252243E1,-1.525028687E0,1.342626166E1
6.047424750E0,5.902076569E0,1.112920670E1,-2.436333618E0,1.283080165E1
6.057503750E0,4.701573029E0,1.117875366E1,-2.990630951E0,1.249052424E1
6.067581750E0,3.325035553E0,1.058673477E1,-2.997067566E0,1.149422588E1
6.077660750E0,2.478845215E0,9.616602173E0,-2.422861633E0,1.022222918E1
6.087738750E0,2.092798004E0,8.818312225E0,-1.487606506E0,9.184519972E0
6.097817750E0,1.673370209E0,8.289761353E0,-3.514691162E-1,8.464268526E0
6.107896750E0,1.176403656E0,7.880213013E0,8.460406494E-1,8.012332212E0
6.117974750E0,1.054706726E0,7.816146240E0,1.705852661E0,8.069354474E0
6.128053750E0,1.267713776E0,8.052953796E0,2.210603027E0,8.446533538E0
6.138131750E0,1.461860046E0,8.275391235E0,2.532882843E0,8.776937415E0
6.148210750E0,1.474733276E0,8.829838257E0,2.827470245E0,9.388049311E0
6.158289750E0,1.507066040E0,9.594747620E0,2.978206787E0,1.015874725E1
6.168367750E0,1.595232697E0,1.071382050E1,3.093766479E0,1.126508358E1
6.178446750E0,1.403032379E0,1.194860275E1,3.176095276E0,1.244287703E1
6.188524750E0,1.226998444E0,1.313293991E1,2.907404022E0,1.350676253E1
6.198603750E0,1.432820435E0,1.430006287E1,2.505190430E0,1.458837727E1
6.208682750E0,1.359323273E0,1.492636047E1,1.969454498E0,1.511696887E1
6.218760750E0,1.219064941E0,1.464000595E1,1.291065216E0,1.474729612E1
6.228839750E0,1.637444916E0,1.341495346E1,2.374063110E-1,1.351660327E1
6.238917750E0,2.225122833E0,1.254840546E1,-7.926017761E-1,1.276878493E1
6.248996750E0,2.677631836E0,1.178319672E1,-1.269510040E0,1.215010670E1
6.259075750E0,2.899021454E0,1.073537567E1,-1.181942139E0,1.118255800E1
6.269153750E0,2.582130432E0,9.650880890E0,-8.114625549E-1,1.002324154E1
6.279232750E0,2.171534271E0,8.868457947E0,-4.803511047E-1,9.143076322E0
6.289310750E0,1.957180023E0,8.319399719E0,-4.918771362E-1,8.560660515E0
6.299389750E0,1.879940643E0,7.478149109E0,-6.764433289E-1,7.740443559E0
6.309468750E0,1.700763245E0,6.554869080E0,-9.497749329E-1,6.838199813E0
6.319546750E0,1.276695099E0,6.679260406E0,-9.247769165E-1,6.862775116E0
6.329625750E0,1.144969025E0,6.230044556E0,-5.269042969E-1,6.356259700E0
6.339703750E0,1.023571472E0,6.005511475E0,-2.465373230E-1,6.097101548E0
6.349782750E0,1.408421173E0,5.992338867E0,-5.526507568E-1,6.180388188E0
6.359861750E0,2.152972870E0,5.698499908E0,-1.500629425E0,6.273761396E0
6.369939750E0,2.238594818E0,5.304219818E0,-1.705104218E0,6.004451268E0
6.380018750E0,2.463726654E0,4.825814667E0,-1.247206421E0,5.560032381E0
6.390096750E0,2.903961182E0,4.619543610E0,-6.740483093E-1,5.497955514E0
6.400175750E0,3.386258240E0,4.378694458E0,-1.718426514E-1,5.537981575E0
6.410254750E0,3.761378174E0,4.494104462E0,1.868115234E-1,5.863432376E0
6.420332750E0,4.072581024E0,4.763095093E0,2.642005920E-1,6.272383360E0
6.430411750E0,3.816763000E0,5.996530151E0,3.326083374E-1,7.115945613E0
6.440489750E0,2.881657562E0,7.887996826E0,4.179309082E-1,8.408276308E0
6.450568750E0,2.429298248E0,9.555229797E0,4.320016479E-1,9.868664139E0
6.460647750E0,2.549647980E0,1.087847809E1,2.869532776E-1,1.117695542E1
6.470725750E0,2.830613708E0,1.167063080E1,-1.344204712E-1,1.200974879E1
6.480804750E0,3.044967957E0,1.225621307E1,-6.271957397E-1,1.264436488E1
6.490883750E0,3.104843445E0,1.282652710E1,-8.443940735E-1,1.322394992E1
6.500961750E0,2.907703400E0,1.324385925E1,-5.882766724E-1,1.357205277E1
6.511040750E0,2.407743073E0,1.321302338E1,-7.604187012E-2,1.343082260E1
6.521118750E0,2.157313843E0,1.290526337E1,9.864486694E-2,1.308470697E1
6.531197750E0,2.003583527E0,1.257070908E1,-3.510200500E-1,1.273421724E1
6.541276750E0,1.874252472E0,1.245065872E1,-9.163943481E-1,1.262424269E1
6.551354750E0,1.811682587E0,1.289972488E1,-1.154249725E0,1.307736167E1
6.561433750E0,1.820065155E0,1.342079132E1,-9.445358276E-1,1.357653950E1
6.571511750E0,1.602268066E0,1.308698547E1,-6.432124329E-1,1.320038537E1
6.581590750E0,1.286724243E0,1.149534531E1,-3.200344849E-1,1.157156191E1
6.591669750E0,5.598358154E-1,9.463171234E0,2.326162720E-1,9.482570130E0
6.601747750E0,-1.017883301E-1,8.624465332E0,9.918374634E-1,8.681906742E0
6.611826750E0,-4.831951904E-1,8.407117310E0,1.716031494E0,8.594059759E0
6.621904750E0,-1.161883850E0,8.572223969E0,2.419718170E0,8.982651828E0
6.631983750E0,-1.713486786E0,9.282496948E0,2.830164642E0,9.854472003E0
6.642062750E0,-1.615889740E0,1.022164398E1,2.737806702E0,1.070461073E1
6.652140750E0,-1.169817352E0,1.134326157E1,2.340532837E0,1.164114039E1
6.662219750E0,-6.786886597E-1,1.265782791E1,2.070943451E0,1.284406604E1
6.672297750E0,5.667214966E-1,1.407538010E1,1.754950562E0,1.419568067E1
6.682375833E0,9.400451660E-1,1.448567688E1,1.596280518E0,1.460365129E1
6.692454833E0,1.455722809E0,1.426997543E1,1.769021301E0,1.445270785E1
6.702532833E0,2.257754974E0,1.390114243E1,1.662143555E0,1.418104155E1
6.712611833E0,2.562221832E0,1.306932220E1,1.331481171E0,1.338450618E1
6.722689833E0,2.351759491E0,1.138816818E1,1.151106262E0,1.168529815E1
6.732768833E0,3.945046234E0,1.015338593E1,9.548643494E-1,1.093464226E1
6.742847833E0,3.480861511E0,9.301507416E0,8.047265625E-1,9.964036426E0
6.752925833E0,1.402882690E0,8.783434753E0,9.991722107E-1,8.950706733E0
6.763004833E0,3.766168213E-1,8.059091034E0,1.620979156E0,8.229116717E0
6.773082833E0,-2.282752991E-1,7.241640930E0,1.710942078E0,7.444514475E0
6.783161833E0,2.342628479E-1,6.798712006E0,1.231189728E0,6.913262049E0
6.793240833E0,1.026864624E0,6.221811676E0,1.480421448E-1,6.307718127E0
6.803318833E0,1.563199310E0,5.955964508E0,-5.935157776E-1,6.186223911E0
6.813397833E0,1.461111603E0,5.725593567E0,-9.431886292E-1,5.983884491E0
6.823475833E0,1.147513733E0,5.553301849E0,-8.887019348E-1,5.739838005E0
6.833554833E0,1.111139374E0,5.271737366E0,-9.071136475E-1,5.463396446E0
6.843633833E0,1.330433350E0,4.675377502E0,-9.768685913E-1,4.958173044E0
6.853711833E0,1.187330933E0,4.104015656E0,-8.318202209E-1,4.352542260E0
6.863790833E0,1.183588715E0,4.211641846E0,-5.200186157E-1,4.405590612E0
6.873868833E0,9.699829102E-1,4.538112946E0,1.736389160E-2,4.640650542E0
6.883947833E0,8.164022827E-1,5.017715607E0,4.640350342E-1,5.104832133E0
6.894026833E0,7.969427490E-1,5.964796143E0,3.891906738E-1,6.030371477E0
6.904104833E0,2.972817993E-1,7.086114349E0,1.546284485E-1,7.094032915E0
6.914183833E0,-1.302291870E-1,8.260122986E0,1.745370483E-1,8.262993075E0
6.924261833E0,-1.474433899E-1,9.671388245E0,-1.616638184E-2,9.672525600E0
6.934340833E0,3.682342529E-2,1.139999359E1,-4.198768616E-1,1.140778271E1
6.944419833E0,9.735754395E-1,1.312395859E1,-5.754034424E-1,1.317259379E1
6.954497833E0,2.483036499E0,1.487067627E1,-3.802093506E-1,1.508134749E1
6.964576833E0,4.242178345E0,1.649360138E1,-2.938389587E-1,1.703294763E1
6.974654833E0,5.889203339E0,1.761027924E1,-3.251239014E-1,1.857176234E1
6.984733833E0,6.949298859E0,1.707229797E1,-4.825964355E-1,1.843879096E1
6.994812833E0,7.074288940E0,1.553259979E1,-9.532177734E-1,1.709432199E1
7.004890833E0,6.834188232E0,1.388138351E1,-1.381776581E0,1.553409938E1
7.014969833E0,6.743027802E0,1.276680130E1,-1.828747101E0,1.455348602E1
7.025047833E0,6.484066315E0,1.236309082E1,-2.329904938E0,1.415335959E1
7.035126833E0,5.930517426E0,1.215352661E1,-2.596201172E0,1.377023989E1
7.045205833E0,5.010829926E0,1.195129715E1,-2.258802795E0,1.315462315E1
7.055283833E0,3.974235535E0,1.149519562E1,-1.476978607E0,1.225216455E1
7.065362833E0,3.172353058E0,1.055275543E1,-7.997868347E-1,1.104826367E1
7.075440833E0,2.269580383E0,9.264833679E0,-2.647993469E-1,9.542445018E0
7.085519833E0,1.481469269E0,7.885003052E0,2.618055725E-1,8.027239032E0
7.095598833E0,7.997868347E-1,6.693480835E0,7.937992859E-1,6.787669849E0
7.105676833E0,3.962260437E-1,5.654790802E0,1.167122955E0,5.787558214E0
7.115755833E0,2.192939758E-1,5.144651642E0,1.455124054E0,5.350973405E0
7.125833833E0,8.891510010E-2,5.075645142E0,1.654659119E0,5.339286122E0
7.135912833E0,-5.388793945E-3,5.443729706E0,1.884580994E0,5.760717635E0
7.145991833E0,-1.062789917E-1,6.506369934E0,2.366578674E0,6.924221224E0
7.156069833E0,-4.266128540E-2,7.890990601E0,2.815195770E0,8.378238471E0
7.166148833E0,8.981323242E-3,9.399703217E0,2.977158966E0,9.859917684E0
7.176227833E0,4.104464722E-1,1.130209717E1,3.106040955E0,1.172831433E1
7.186305833E0,1.172511749E0,1.299642380E1,3.223396912E0,1.344143233E1
7.196384833E0,1.853445740E0,1.406160873E1,3.058589630E0,1.450927537E1
7.206462833E0,2.398013306E0,1.449435883E1,2.740501099E0,1.494480685E1
7.216541833E0,2.969674530E0,1.435275330E1,2.123334503E0,1.480976176E1
7.226620833E0,3.791764984E0,1.398002838E1,9.642947388E-1,1.451718084E1
7.236698833E0,4.485871582E0,1.361314133E1,-3.897894287E-1,1.433850049E1
7.246777833E0,4.740342407E0,1.278386581E1,-1.774559784E0,1.374944121E1
7.256855833E0,4.257446594E0,1.180400345E1,-2.676134949E0,1.283051235E1
7.266934833E0,3.140020294E0,1.079240707E1,-2.521656189E0,1.151931108E1
7.277013833E0,2.163750458E0,9.911938019E0,-1.725012817E0,1.029096694E1
7.287091833E0,2.082319794E0,8.651708679E0,-1.042132874E0,8.959584796E0
7.297170833E0,3.206033020E0,7.720195770E0,-7.273374939E-1,8.391012471E0
7.307248833E0,1.707199860E0,7.216792603E0,-8.077203369E-1,7.459828347E0
7.317327833E0,1.831142120E0,5.894442444E0,-1.016236725E0,6.255419272E0
7.327406833E0,2.161804504E0,5.615272980E0,-1.244062958E0,6.144296705E0
7.337484833E0,1.670975189E0,5.113217010E0,-1.401984558E0,5.559020326E0
7.347563833E0,1.575623474E0,4.385280762E0,-1.505120087E0,4.896801320E0
7.357641833E0,1.937271423E0,3.759581909E0,-1.688788147E0,4.554062154E0
7.367720833E0,2.364033966E0,3.525019684E0,-1.831142120E0,4.622499522E0
7.377799833E0,1.873953094E0,3.764970703E0,-1.738484802E0,4.550717966E0
7.387877833E0,1.813628540E0,3.978277130E0,-1.636546783E0,4.668428299E0
7.397956833E0,2.117496643E0,4.629123688E0,-1.385668488E0,5.275666338E0
7.408034833E0,2.259551239E0,5.047653351E0,-9.783654785E-1,5.616188669E0
7.418113833E0,2.482587433E0,5.548811188E0,-5.682183838E-1,6.105359784E0
7.428192833E0,2.912493439E0,6.504723358E0,-8.143066406E-2,7.127459221E0
7.438270833E0,3.149001617E0,7.582781525E0,1.682501221E-1,8.212374501E0
7.448349833E0,3.367397461E0,8.854387207E0,9.894424438E-2,9.473612217E0
7.458427833E0,3.701951752E0,1.027672943E1,-1.841171265E-2,1.092318422E1
7.468506833E0,3.881428528E0,1.137798935E1,-1.704954529E-1,1.202302781E1
7.478585833E0,4.333638153E0,1.264121246E1,-2.237846375E-1,1.336528158E1
7.488663833E0,5.087021484E0,1.405532181E1,-1.730401611E-1,1.494857189E1
7.498742833E0,5.512287140E0,1.515164200E1,-3.219804382E-1,1.612641424E1
7.508820833E0,4.913981323E0,1.503967484E1,-6.656657410E-1,1.583610250E1
7.518899833E0,3.743714905E0,1.418764664E1,-4.933740234E-1,1.468155769E1
7.528978833E0,3.031046906E0,1.407927200E1,-7.035369873E-3,1.440184693E1
7.539056833E0,2.660118256E0,1.477233078E1,1.197509766E-2,1.500993435E1
7.549135833E0,2.169438629E0,1.519415359E1,-2.619552612E-1,1.535048494E1
7.559213833E0,1.842967529E0,1.411744263E1,-8.683442688E-1,1.426368597E1
7.569292833E0,2.012115784E0,1.230935257E1,-1.514101410E0,1.256428564E1
7.579371833E0,2.028880920E0,1.128608047E1,-1.635948029E0,1.158310391E1
7.589449833E0,1.553319855E0,1.009485764E1,-1.352287903E0,1.030279748E1
7.599528833E0,9.214837646E-1,8.708141327E0,-7.042854309E-1,8.785037033E0
7.609606833E0,3.463796997E-1,7.374863892E0,7.828720093E-2,7.383408779E0
7.619685833E0,1.628613281E-1,6.591393127E0,6.864724731E-1,6.629044549E0
7.629764833E0,-7.349716187E-2,6.364764404E0,9.419911194E-1,6.434514358E0
7.639842833E0,-9.458830261E-1,6.312223663E0,1.023870850E0,6.464299946E0
7.649921833E0,-1.389859772E0,7.611222382E0,1.318158875E0,7.848564145E0
7.659999833E0,-7.873626709E-1,9.444310455E0,1.499282227E0,9.594935495E0
7.670078833E0,-6.327342224E-1,1.065214874E1,1.352287903E0,1.075626831E1
7.680158083E0,-7.086264038E-1,1.137394775E1,1.293609924E0,1.146918766E1
7.690236083E0,-1.451980591E-2,1.181298477E1,1.457668762E0,1.190258872E1
7.700315083E0,1.236129456E0,1.210188400E1,1.723815308E0,1.228638074E1
7.710393083E0,2.861898651E0,1.265932480E1,1.975292358E0,1.312824239E1
7.720472083E0,3.654201050E0,1.311797104E1,1.951641541E0,1.375657131E1
7.730551083E0,3.174748077E0,1.226474533E1,1.507066040E0,1.275830128E1
7.740629083E0,1.786684570E0,1.141556122E1,1.344953156E0,1.163254824E1
7.750708083E0,1.021026764E0,1.075423645E1,8.315208435E-1,1.083455233E1
7.760786083E0,1.529669037E0,9.449399872E0,7.843688965E-2,9.572731984E0
7.770865083E0,2.399061127E0,8.648116150E0,3.041674805E-1,8.979862198E0
7.780944083E0,2.600691833E0,8.825646973E0,4.531077576E-1,9.212000279E0
7.791022083E0,1.625469818E0,9.189839630E0,3.263214111E-1,9.338189879E0
7.801101083E0,1.093326416E0,8.717122650E0,3.083587646E-2,8.785473283E0
7.811179083E0,1.165775757E0,7.956554260E0,-1.324745178E-1,8.042595247E0
7.821258083E0,1.314716034E0,7.088808746E0,-4.619393921E-1,7.224477538E0
7.831337083E0,1.376537476E0,6.111341400E0,-7.551795959E-1,6.309805492E0
7.841415083E0,1.372046814E0,5.250032501E0,-9.473799133E-1,5.508437385E0
7.851494083E0,1.619631958E0,4.865182800E0,-1.140178986E0,5.252924850E0
7.861572083E0,1.923649750E0,5.188360748E0,-1.298549652E0,5.683814460E0
7.871651083E0,2.013612671E0,5.270689545E0,-1.366807709E0,5.805425702E0
7.881730083E0,1.613943787E0,5.100792847E0,-1.132844238E0,5.468659642E0
7.891808083E0,9.256750488E-1,5.023403778E0,-7.759863281E-1,5.166586358E0
7.901887083E0,1.975891113E-1,5.123246155E0,-5.628295898E-1,5.157855152E0
7.911966083E0,-3.731739807E-1,5.629343719E0,-3.899391174E-1,5.655158888E0
7.922044083E0,-7.616162109E-1,6.747069397E0,-3.043171692E-1,6.796735513E0
7.932123083E0,-7.120692444E-1,8.364456024E0,-3.299139404E-1,8.401191011E0
7.942201083E0,-3.261717224E-1,1.016775604E1,-3.818559265E-1,1.018015053E1
7.952280083E0,3.932322693E-1,1.176583282E1,-3.785627747E-1,1.177848732E1
7.962359083E0,1.694476318E0,1.312141388E1,-2.456391907E-1,1.323265245E1
7.972437083E0,3.254532166E0,1.402089340E1,-1.887574768E-1,1.439489704E1
7.982516083E0,4.431235199E0,1.492246857E1,-6.140231323E-1,1.557860513E1
7.992594083E0,5.781128082E0,1.531016235E1,-9.036708069E-1,1.639021458E1
8.002673083E0,6.894512787E0,1.494297592E1,-7.455995178E-1,1.647369887E1
8.012752083E0,6.134692841E0,1.421997940E1,-8.301736450E-1,1.550907665E1
8.022830083E0,4.903353424E0,1.314027466E1,-1.389111328E0,1.409394633E1
8.032909083E0,4.111649780E0,1.245529907E1,-1.900897064E0,1.325343535E1
8.042987083E0,3.953279114E0,1.210457840E1,-2.189796295E0,1.292069819E1
8.053066083E0,4.017345886E0,1.157812317E1,-2.252216492E0,1.246051697E1
8.063145083E0,3.967349854E0,1.081530945E1,-2.080673218E0,1.170640783E1
8.073223083E0,3.524570618E0,9.785151672E0,-1.860930176E0,1.056573956E1
8.083302083E0,2.748584290E0,8.641529846E0,-1.355281677E0,9.168835373E0
8.093380083E0,2.039059753E0,7.839198303E0,-5.697152710E-1,8.120059741E0
8.103459083E0,1.438358917E0,7.264543304E0,3.857478333E-1,7.415609698E0
8.113538083E0,1.100810852E0,6.998845825E0,1.406026154E0,7.223055930E0
8.123616083E0,1.360221405E0,7.132517853E0,2.006577301E0,7.533217484E0
8.133695083E0,1.560355225E0,7.599396973E0,2.158661041E0,8.052661688E0
8.143773083E0,1.570683746E0,8.344846802E0,2.239642639E0,8.781771731E0
8.153852083E0,1.470092926E0,9.421258392E0,2.339185638E0,9.817997370E0
8.163931083E0,1.529519348E0,1.058927948E1,2.282004547E0,1.093982697E1
8.174009083E0,1.662592621E0,1.199710190E1,2.111359406E0,1.229440957E1
8.184088083E0,2.086810455E0,1.306707687E1,1.910477142E0,1.336986159E1
8.194166083E0,2.636916504E0,1.358035950E1,1.593735809E0,1.392549771E1
8.204245083E0,3.091072083E0,1.366014359E1,1.140927429E0,1.405190253E1
8.214324083E0,3.422782288E0,1.333936066E1,5.860313416E-1,1.378395495E1
8.224402083E0,3.592828674E0,1.295915131E1,-2.016307068E-1,1.344948606E1
8.234481083E0,3.523373108E0,1.228435455E1,-9.945318604E-1,1.281829234E1
8.244559083E0,3.127596130E0,1.120030884E1,-1.473535767E0,1.172177816E1
8.254638083E0,2.466870117E0,1.030951126E1,-1.591490479E0,1.071934292E1
8.264717083E0,2.499053192E0,9.448501740E0,-1.718127136E0,9.923276316E0
8.274795083E0,1.924697571E0,8.587342529E0,-1.796863403E0,8.981961397E0
8.284874083E0,1.553170166E0,7.618108063E0,-1.669627991E0,7.952079329E0
8.294952083E0,1.913470917E0,6.735543365E0,-1.700314178E0,7.205552282E0
8.305031083E0,1.743274841E0,6.210585022E0,-2.033820648E0,6.763638068E0
8.315110083E0,1.306333466E0,5.193300476E0,-2.319426727E0,5.835804769E0
8.325188083E0,8.660989380E-1,4.513414307E0,-2.099833374E0,5.052755315E0
8.335267083E0,3.481759644E-1,4.080813904E0,-1.578916626E0,4.389447156E0
8.345345083E0,7.204518127E-1,3.593427429E0,-1.213376770E0,3.860576989E0
8.355424083E0,1.150058441E0,3.845952301E0,-8.102650452E-1,4.095181676E0
8.365503083E0,1.198407898E0,4.277654572E0,-2.454895020E-1,4.449131962E0
8.375581083E0,1.738035736E0,4.522545319E0,2.071691895E-1,4.849443623E0
8.385660083E0,2.369273071E0,4.795577545E0,4.471202087E-1,5.367581891E0
8.395738083E0,2.521057434E0,5.911207581E0,2.990780640E-1,6.433315890E0
8.405817083E0,2.752925262E0,7.380402374E0,-1.751358032E-1,7.879061445E0
8.415896083E0,3.090473328E0,8.795409851E0,-5.388793945E-1,9.338128872E0
8.425974083E0,3.470982056E0,1.020323227E1,-6.541397095E-1,1.079729429E1
8.436053083E0,3.530408478E0,1.122470810E1,-8.824150085E-1,1.179985221E1
8.446131083E0,3.408861237E0,1.206491089E1,-1.055904236E0,1.258162722E1
8.456210083E0,3.347339172E0,1.287233185E1,-7.800279236E-1,1.332328977E1
8.466289083E0,3.065774689E0,1.367750748E1,-4.237687683E-1,1.402329366E1
8.476367083E0,2.561174011E0,1.438748108E1,-1.721420288E-1,1.461467950E1
8.486446083E0,2.534379730E0,1.392224854E1,1.507365417E-1,1.415184816E1
8.496524083E0,3.146307220E0,1.264899628E1,3.200344849E-1,1.303835795E1
8.506603083E0,3.512445831E0,1.145897095E1,-1.404080200E-1,1.198603376E1
8.516682083E0,3.567381592E0,1.084195404E1,-1.053808594E0,1.146231614E1
8.526760083E0,3.311713257E0,1.104343506E1,-1.578617249E0,1.163687823E1
8.536839083E0,3.033292236E0,1.217822525E1,-1.512005768E0,1.264105191E1
8.546917083E0,2.928510132E0,1.327783859E1,-1.298250275E0,1.365879288E1
8.556996083E0,2.562371521E0,1.298250275E1,-1.529519348E0,1.332105682E1
8.567075083E0,1.807491302E0,1.149908752E1,-1.649420013E0,1.175655668E1
8.577153083E0,8.378077698E-1,9.838740234E0,-1.132544861E0,9.939083918E0
8.587232083E0,7.948471069E-2,8.343050537E0,-1.431024170E-1,8.344656277E0
8.597310083E0,-5.327421570E-1,7.181016998E0,9.901908875E-1,7.268514107E0
8.607389083E0,-1.050515442E0,6.605463867E0,1.855541382E0,6.941092811E0
8.617468083E0,-1.462159424E0,6.582411804E0,2.192490692E0,7.090350540E0
8.627546083E0,-1.880240021E0,7.148833923E0,2.072739716E0,7.677068381E0
8.637625083E0,-1.958676910E0,8.177345123E0,1.817819824E0,8.602898199E0
8.647704083E0,-1.543290710E0,9.574689331E0,1.529669037E0,9.818162219E0
8.657782083E0,-8.577163696E-1,1.122410934E1,1.177451477E0,1.131824633E1
8.667861083E0,-1.318757629E-1,1.285900955E1,1.061592407E0,1.290342963E1
8.677939083E0,9.246272278E-1,1.423075699E1,1.149309998E0,1.430700155E1
8.688018583E0,2.146985321E0,1.521660690E1,1.148561554E0,1.541018706E1
8.698097583E0,3.082839203E0,1.598166595E1,8.487350464E-1,1.629840162E1
8.708175583E0,3.451522522E0,1.517140091E1,-9.699829102E-2,1.555936445E1
8.718254583E0,2.823129272E0,1.337768097E1,-4.885839844E-1,1.368104972E1
8.728332583E0,1.935325470E0,1.217463272E1,1.196012878E-1,1.232807653E1
8.738411583E0,1.255439301E0,1.089778793E1,9.419911194E-1,1.101023419E1
8.748490583E0,5.255570984E-1,1.001627106E1,1.622925110E0,1.016050107E1
8.758568583E0,4.055067444E-1,9.184450836E0,1.509311371E0,9.316468950E0
8.768647583E0,8.663983154E-1,8.223000183E0,8.951385498E-1,8.316829388E0
8.778725583E0,1.425036621E0,6.964417419E0,3.432362366E-1,7.116997294E0
8.788804583E0,2.022593994E0,5.928571472E0,1.676513672E-2,6.264114242E0
8.798883583E0,2.104922791E0,5.499114532E0,-5.340893555E-1,5.912377866E0
8.808961583E0,2.019001465E0,5.488786011E0,-1.269210663E0,5.984482809E0
8.819040583E0,1.954785004E0,5.039420471E0,-2.011517029E0,5.767420901E0
8.829118583E0,1.543590088E0,4.131408691E0,-2.397713928E0,5.019984085E0
8.839197583E0,1.395997009E0,3.384461975E0,-2.293680267E0,4.320226809E0
8.849276583E0,1.434467010E0,3.348836060E0,-1.669178925E0,4.007312920E0
8.859354583E0,1.869612122E0,3.655997314E0,-9.894424438E-1,4.223832643E0
8.869433583E0,2.404300232E0,4.240531769E0,-3.980223083E-1,4.890929466E0
8.879511583E0,2.054477692E0,4.816234589E0,1.877096558E-1,5.239487486E0
8.889590583E0,1.644031219E0,5.526806946E0,2.860551453E-1,5.773236632E0
8.899669583E0,1.074914703E0,6.581513672E0,-7.529342651E-2,6.669140344E0
8.909747583E0,3.755690002E-1,8.472381592E0,-2.299218750E-1,8.483817889E0
8.919826583E0,1.932481384E-1,1.031894165E1,-1.517843628E-1,1.032186708E1
8.929904583E0,5.791456604E-1,1.178035263E1,-3.204835510E-1,1.179893332E1
8.939983583E0,1.189426575E0,1.301079391E1,-6.050418091E-1,1.307905079E1
8.950062583E0,2.171384583E0,1.416294800E1,-1.077758789E0,1.436890988E1
8.960140583E0,3.539240112E0,1.505584122E1,-1.593586121E0,1.554812182E1
8.970219583E0,5.074597321E0,1.560145660E1,-1.804048462E0,1.650489555E1
8.980297583E0,6.255791016E0,1.524040741E1,-1.487456818E0,1.654138649E1
8.990376583E0,5.381010132E0,1.400158356E1,-1.108744354E0,1.504090842E1
9.000455583E0,4.494852905E0,1.262519577E1,-1.731150055E0,1.351281434E1
9.010533583E0,4.494553528E0,1.163994461E1,-2.735711060E0,1.277393584E1
9.020612583E0,4.157155151E0,1.104163879E1,-2.444566498E0,1.204888508E1
9.030690583E0,3.877386932E0,1.066711761E1,-1.577270050E0,1.145902738E1
9.040769583E0,3.799848175E0,1.007839188E1,-1.136885834E0,1.083075890E1
9.050848583E0,3.321143646E0,9.170829163E0,-9.909393311E-1,9.803880018E0
9.060926583E0,2.817740479E0,8.656498718E0,-7.250921631E-1,9.132381404E0
9.071005583E0,2.316432953E0,8.947792969E0,1.694476318E-1,9.244326538E0
9.081083583E0,1.797013092E0,9.814790039E0,1.426832886E0,1.007944501E1
9.091162583E0,9.647438049E-1,1.035875885E1,2.473755798E0,1.069364687E1
9.101241583E0,2.396516418E-1,1.038211029E1,3.151097260E0,1.085242189E1
9.111319583E0,7.694000244E-2,1.029798523E1,3.535797272E0,1.088835533E1
9.121398583E0,5.399272156E-1,1.026684998E1,3.644920349E0,1.090803255E1
9.131476583E0,7.797285461E-1,1.072085587E1,3.436703339E0,1.128519636E1
9.141555583E0,5.237608337E-1,1.174457703E1,3.071911926E0,1.215096942E1
9.151634583E0,2.802172852E-1,1.268537064E1,2.914140015E0,1.301880801E1
9.161712583E0,3.577560425E-1,1.319476135E1,2.872376862E0,1.350852565E1
9.171791583E0,7.289840698E-1,1.309312271E1,2.975512390E0,1.344674511E1
9.181869583E0,1.467997284E0,1.270602768E1,3.010090485E0,1.313996956E1
9.191948583E0,2.240540771E0,1.249047592E1,2.294728088E0,1.289564999E1
9.202027583E0,3.037483521E0,1.212254105E1,9.918374634E-1,1.253658842E1
9.212105583E0,3.898642731E0,1.146091690E1,-3.549119568E-1,1.211106906E1
9.222184583E0,4.766837311E0,1.056038956E1,-9.608518982E-1,1.162616884E1
9.232263583E0,4.121229858E0,1.060799057E1,-4.981640625E-1,1.139131981E1
9.242341583E0,1.949845276E0,1.024349854E1,3.869453430E-1,1.043460040E1
9.252420583E0,1.501826935E0,8.718020782E0,2.811154175E-1,8.850898055E0
9.262498583E0,1.709894257E0,8.101153564E0,4.565505981E-2,8.279765204E0
9.272577583E0,1.904040527E0,7.828121338E0,2.143542480E-1,8.059206025E0
9.282655583E0,3.444936218E0,8.369246063E0,2.815644836E-1,9.054896122E0
9.292734583E0,3.808979187E0,8.528215485E0,3.341052246E-1,9.346144023E0
9.302813583E0,2.341580658E0,7.838449860E0,1.957928467E-1,8.183069780E0
9.312891583E0,1.140328674E0,7.939639435E0,7.694000244E-2,8.021480138E0
9.322970583E0,3.146456909E-1,7.537425842E0,6.259982300E-1,7.569918363E0
9.333049583E0,1.002764740E0,7.843838654E0,1.038240967E0,7.975543007E0
9.343127583E0,-1.200503540E-1,7.248227234E0,1.050964508E0,7.325007612E0
9.353206583E0,-9.334588623E-1,7.155569916E0,1.447639618E0,7.359971925E0
9.363284583E0,6.150709534E-1,6.896608429E0,3.966751099E-1,6.935334977E0
9.373363583E0,1.003363495E0,6.365213470E0,1.930984497E-1,6.446702090E0
9.383442583E0,4.188290405E-1,6.365961914E0,1.944905548E0,6.669598672E0
9.393520583E0,5.195695496E-1,5.830076294E0,1.260229340E0,5.987313262E0
9.403599583E0,1.851350098E0,6.077811127E0,1.179547119E-1,6.354620255E0
9.413677583E0,2.960842896E0,6.813830566E0,-1.541793823E-2,7.429341515E0
9.423756583E0,3.001258850E0,7.261250153E0,6.219566345E-1,7.881632986E0
9.433835583E0,3.684138794E0,7.243736572E0,1.996997223E0,8.368548028E0
9.443913583E0,3.739972687E0,7.492369537E0,3.188369751E0,8.960396121E0
9.453992583E0,3.310515747E0,8.231233063E0,2.736459503E0,9.284445210E0
9.464070583E0,3.110082550E0,8.829838257E0,7.243437195E-1,9.389533052E0
9.474149583E0,3.444187775E0,1.014245865E1,5.077441406E-1,1.072332509E1
9.484228583E0,3.244952087E0,1.150776947E1,8.948391724E-1,1.198996286E1
9.494306583E0,3.317850494E0,1.224932739E1,8.626560974E-1,1.271999721E1
9.504385583E0,3.367098083E0,1.256202713E1,8.381071472E-1,1.303243257E1
9.514463583E0,3.500620422E0,1.278506332E1,3.173400879E-1,1.325944540E1
9.524542583E0,3.023113403E0,1.314880692E1,-6.265969849E-1,1.350640447E1
9.534621583E0,2.519560547E0,1.308249481E1,-5.484594727E-1,1.333419153E1
9.544699583E0,1.619033203E0,1.255723709E1,-8.975335693E-1,1.269295231E1
9.554778583E0,8.393046570E-1,1.162871796E1,-8.798703003E-1,1.169212065E1
9.564856583E0,2.745291138E-1,1.091051147E1,-1.182540894E-2,1.091397117E1
9.574935583E0,-2.829116821E-1,1.112232101E1,1.612297211E0,1.124213352E1
9.585014583E0,-4.342469788E-1,1.117785553E1,1.722019043E0,1.131805523E1
9.595092583E0,-6.262976074E-1,1.071816147E1,1.539847870E0,1.084630653E1
9.605171583E0,-2.606080627E-1,9.982591095E0,1.280137939E0,1.006771050E1
9.615249583E0,-3.457809448E-2,9.440717926E0,1.167871399E0,9.512742728E0
9.625328583E0,1.761836243E-1,9.112600250E0,1.213077393E0,9.194676762E0
9.635407583E0,3.547622681E-1,8.636889496E0,1.255139923E0,8.734820700E0
9.645485583E0,5.450166321E-1,7.907755737E0,6.337820435E-1,7.951812599E0
9.655564583E0,-6.432124329E-1,7.584128723E0,3.632945251E-1,7.620020580E0
9.665642583E0,-2.991080017E0,7.791896667E0,2.663261719E0,8.760889015E0
9.675721583E0,-2.073338470E0,8.801696777E0,3.819457397E0,9.816152677E0
9.685800000E0,-9.955796814E-1,9.643845520E0,2.613265686E0,1.004112010E1
9.695878000E0,-6.655160522E-1,1.044797333E1,9.412426758E-1,1.051137460E1
9.705957000E0,-2.848576355E-1,1.074914703E1,1.818717957E-1,1.075445876E1
9.716035000E0,3.797602844E-1,1.080258591E1,3.529660034E-1,1.081502035E1
9.726114000E0,1.113384705E0,1.089584198E1,3.857478333E-1,1.095937039E1
9.736193000E0,1.430874481E0,1.127410538E1,7.909552002E-1,1.139203511E1
9.746271000E0,1.025218048E0,1.140912460E1,1.756597137E0,1.158899606E1
9.756350000E0,6.641688538E-1,1.100481537E1,2.112556915E0,1.122541662E1
9.766428000E0,7.188052368E-1,1.043689636E1,1.881287842E0,1.062942758E1
9.776507000E0,9.246272278E-1,9.867330780E0,1.576521606E0,1.003516680E1
9.786586000E0,1.319955139E0,9.061257019E0,6.319857788E-1,9.178674543E0
9.796664000E0,1.107546844E0,9.004225616E0,7.122189331E-1,9.099999713E0
9.806743000E0,2.686912537E-1,9.064999237E0,1.450932770E0,9.184313369E0
9.816822000E0,6.382727051E-1,9.257498932E0,1.221459961E0,9.359521513E0
9.826900000E0,5.556445312E-1,8.989855499E0,1.001267853E0,9.062493038E0
9.836979000E0,8.360115051E-1,8.768615570E0,6.224057007E-1,8.830341053E0
9.847057000E0,1.435514832E0,8.711584167E0,-2.457888794E-1,8.832486270E0
9.857136000E0,1.289867706E0,8.975485382E0,-1.076261902E-1,9.068333912E0
9.867214000E0,6.577322388E-1,9.116641846E0,6.307882690E-1,9.162077498E0
9.877293000E0,5.224136353E-1,8.955726471E0,7.572752380E-1,9.002856125E0
9.887372000E0,4.102967834E-1,8.675359497E0,9.425898743E-1,8.736056406E0
9.897450000E0,5.758525085E-1,8.712182922E0,4.772076416E-1,8.744224638E0
9.907529000E0,4.305047607E-1,8.614436188E0,6.259982300E-1,8.647873667E0
9.917608000E0,6.337820435E-1,9.008267212E0,7.426057434E-1,9.061016562E0
9.927686000E0,5.183720398E-1,9.313033447E0,1.501078491E0,9.447461998E0
9.937765000E0,6.965016174E-1,9.541907501E0,1.629212036E0,9.705021645E0
9.947843000E0,6.216572571E-1,9.834998016E0,1.999392242E0,1.005540716E1
9.957922000E0,3.619473267E-1,9.528136139E0,2.625540161E0,9.889886010E0
9.968001000E0,1.199006653E-1,9.197773132E0,2.376158752E0,9.500501944E0
9.978079000E0,9.821076965E-1,9.609716492E0,-1.182540894E0,9.731885200E0
9.988158000E0,1.051114197E0,1.041728714E1,-3.781137085E-1,1.047700732E1
9.998236000E0,1.045575714E0,1.115570160E1,2.028880920E0,1.138680221E1