"Time (s)","Acceleration x (m/s^2)","Acceleration y (m/s^2)","Acceleration z (m/s^2)","Absolute acceleration (m/s^2)"
-1.183833345E-3,2.792293396E0,-9.478140106E0,1.207838287E0,9.954442004E0
8.895166684E-3,2.427501984E0,-9.509425049E0,1.208437042E0,9.888490821E0
1.897316671E-2,2.188598785E0,-9.572593689E0,1.167721710E0,9.888786001E0
2.905216673E-2,2.095941467E0,-9.622440033E0,1.110091553E0,9.910430166E0
3.913016664E-2,2.080972595E0,-9.571545868E0,1.036145325E0,9.849798697E0
4.920916667E-2,2.074685669E0,-9.479786682E0,9.771679688E-1,9.753231947E0
5.928716669E-2,2.140548706E0,-9.372310181E0,9.934840393E-1,9.664841304E0
6.936616672E-2,2.294728088E0,-9.304800568E0,1.095571747E0,9.646002698E0
7.944416674E-2,2.440524902E0,-9.236392822E0,1.237326965E0,9.633176640E0
8.952316665E-2,2.506986694E0,-9.179361420E0,1.417701874E0,9.620578827E0
9.960116667E-2,2.608325958E0,-9.160949707E0,1.599573669E0,9.658416007E0
1.096801667E-1,2.706821136E0,-9.195378113E0,1.693428497E0,9.733938534E0
1.197581667E-1,2.789898376E0,-9.195378113E0,1.725312195E0,9.762951078E0
1.298371668E-1,2.735711060E0,-9.094787292E0,1.700613556E0,9.648386257E0
1.399151667E-1,2.543810120E0,-8.924740906E0,1.589245148E0,9.415289178E0
1.499941667E-1,2.401156769E0,-8.726403351E0,1.457369385E0,9.167311208E0
1.600731667E-1,2.245031433E0,-8.633895721E0,1.345102844E0,9.021841449E0
1.701511667E-1,2.066901855E0,-8.763675842E0,1.298998718E0,9.097334512E0
1.802301666E-1,1.889969788E0,-9.121282196E0,1.298849030E0,9.405146650E0
1.903081667E-1,1.791175232E0,-9.655670929E0,1.297801208E0,9.905785066E0
2.003871667E-1,1.750908966E0,-1.024484573E1,1.229842529E0,1.046589982E1
2.104651667E-1,1.687440948E0,-1.071741302E1,1.037642212E0,1.089894950E1
2.205441667E-1,1.687590637E0,-1.081950073E1,7.538323975E-1,1.097623895E1
2.306221667E-1,1.768422546E0,-1.040980270E1,4.878355408E-1,1.057020786E1
2.407011667E-1,1.933828583E0,-9.642198944E0,2.716850281E-1,9.837962503E0
2.507791667E-1,2.328707428E0,-8.871751099E0,1.848655701E-1,9.174149613E0
2.608581667E-1,2.791694641E0,-8.425978088E0,1.788780212E-1,8.878212830E0
2.709361668E-1,3.154240723E0,-8.427624664E0,2.291734314E-1,9.001478350E0
2.810151667E-1,3.203787689E0,-8.832832031E0,2.414479065E-1,9.399014541E0
2.910931667E-1,2.930306396E0,-9.232500916E0,2.841091919E-1,9.690535938E0
3.011721667E-1,2.517764282E0,-9.469607849E0,4.090992737E-1,9.807138829E0
3.112501667E-1,2.106419678E0,-9.645043030E0,5.146298218E-1,9.885782860E0
3.213291666E-1,1.701212311E0,-9.816137238E0,5.596861267E-1,9.978172285E0
3.314081667E-1,1.359622650E0,-9.997110901E0,5.049000549E-1,1.010176837E1
3.414859583E-1,1.079704742E0,-1.019484970E1,2.923420715E-1,1.025603172E1
3.515649583E-1,8.415499878E-1,-1.036205200E1,-1.709445190E-1,1.039757424E1
3.616429584E-1,6.511459351E-1,-1.055230637E1,-8.599617004E-1,1.060729441E1
3.717219584E-1,5.507048035E-1,-1.073043594E1,-1.667532349E0,1.087318700E1
3.817999584E-1,5.530998230E-1,-1.089150101E1,-2.391127625E0,1.116459605E1
3.918789583E-1,6.846762085E-1,-1.094838272E1,-2.884202271E0,1.134259620E1
4.019569583E-1,9.857002258E-1,-1.087428680E1,-3.128045197E0,1.135809778E1
4.120359584E-1,1.346899109E0,-1.051548294E1,-3.291954346E0,1.110074241E1
4.221139584E-1,1.535057831E0,-9.905351715E0,-3.652255096E0,1.066824083E1
4.321929583E-1,1.423539734E0,-9.299561462E0,-4.495152283E0,1.042663430E1
4.422709583E-1,1.089434509E0,-8.917406158E0,-5.860163727E0,1.072606727E1
4.523499584E-1,6.544390869E-1,-8.866961060E0,-7.030579834E0,1.133491693E1
4.624279584E-1,4.773573303E-1,-9.163644104E0,-7.059918823E0,1.157768099E1
4.725069584E-1,8.039781189E-1,-1.007270370E1,-6.538103943E0,1.203547024E1
4.825849583E-1,1.349144440E0,-1.178514267E1,-6.062393188E0,1.332150103E1
4.926639583E-1,2.098336487E0,-1.398092651E1,-5.615272980E0,1.521185764E1
5.027419584E-1,2.894830170E0,-1.560340256E1,-4.170477448E0,1.640850679E1
5.128209584E-1,3.451073456E0,-1.562555649E1,-1.028511200E0,1.603514137E1
5.228999583E-1,3.242557068E0,-1.503503448E1,1.686243439E0,1.547287482E1
5.329779583E-1,1.803749084E0,-1.501138367E1,2.378703461E0,1.530533830E1
5.430569584E-1,4.131408691E-1,-1.513472717E1,1.008901978E0,1.517394264E1
5.531349584E-1,-8.936416626E-2,-1.518412445E1,-2.201621704E0,1.534316654E1
5.632139584E-1,1.210981750E0,-1.406220749E1,-2.244582367E0,1.429161664E1
5.732919583E-1,2.870430908E0,-1.225576401E1,5.468128967E-1,1.259929083E1
5.833709583E-1,3.240760803E0,-1.086859863E1,1.874851227E0,1.149539186E1
5.934489584E-1,2.063309326E0,-1.003752686E1,-4.412823486E-1,1.025689626E1
6.035279584E-1,1.510359192E0,-8.936865692E0,-3.004701691E0,9.548664071E0
6.136059584E-1,1.718725891E0,-7.410789185E0,-3.111130371E0,8.219059996E0
6.236849583E-1,2.073488159E0,-5.648803253E0,-2.781066742E0,6.628926275E0
6.337629583E-1,1.930685120E0,-4.849315796E0,-1.639091492E0,5.470834455E0
6.438419584E-1,8.948391724E-1,-4.166585541E0,-7.716453552E-1,4.330890066E0
6.539199584E-1,-2.011816406E-1,-3.404969330E0,-5.289999390E-1,3.451685259E0
6.639989583E-1,-1.002165985E0,-2.595003662E0,-3.620970154E-1,2.805262005E0
6.740769583E-1,-8.988807678E-1,-1.795366516E0,-4.661306763E-1,2.061214537E0
6.841559584E-1,2.888992310E-1,-9.352551270E-1,-9.009764099E-1,1.330384685E0
6.942339584E-1,1.772015076E0,-2.219883728E-1,-1.704655151E0,2.468838887E0
7.043129584E-1,3.296894073E0,-2.779719543E-1,-3.172053680E0,4.583525225E0
7.143919583E-1,4.076921997E0,-1.702260132E0,-5.818550262E0,7.305786041E0
7.244699583E-1,4.197720795E0,-4.011058960E0,-9.187743988E0,1.086849085E1
7.345489584E-1,4.646038513E0,-5.828579407E0,-1.265438507E1,1.468643841E1
7.446269584E-1,4.897964630E0,-7.246131592E0,-1.540177185E1,1.771189026E1
7.547059584E-1,4.374054108E0,-8.351283417E0,-1.588766144E1,1.847414599E1
7.647839583E-1,2.932252350E0,-8.680748291E0,-1.454779770E1,1.719278665E1
7.748629584E-1,1.256487122E0,-7.796836395E0,-1.264585281E1,1.490929277E1
7.849409584E-1,-3.516188049E-1,-6.893914032E0,-1.080078964E1,1.281821920E1
7.950199584E-1,-1.672472076E0,-6.727909241E0,-9.601034546E0,1.184237265E1
8.050979583E-1,-2.680625610E0,-7.340285797E0,-9.212592316E0,1.208045556E1
8.151769583E-1,-3.092868347E0,-8.033194885E0,-9.353299713E0,1.271150149E1
8.252549584E-1,-2.765349426E0,-8.276588745E0,-9.386380920E0,1.281613146E1
8.353339584E-1,-2.439327393E0,-7.885003052E0,-8.616382141E0,1.193170702E1
8.454119584E-1,-2.271526337E0,-7.162305908E0,-7.761958923E0,1.080307661E1
8.554909583E-1,-2.244432678E0,-6.618935852E0,-7.602839813E0,1.032719532E1
8.655699583E-1,-1.805395660E0,-6.069727936E0,-7.648345184E0,9.929664383E0
8.756479584E-1,-4.549040222E-1,-5.556744690E0,-6.621330872E0,8.656002064E0
8.857269584E-1,1.647773438E0,-4.953648834E0,-4.176315308E0,6.685462110E0
8.958049584E-1,4.786296844E0,-4.504582672E0,-1.882784729E0,6.837015494E0
9.058839583E-1,9.935139771E0,-4.869673462E0,-3.273243256E0,1.153840731E1
9.159619584E-1,1.440469528E1,-6.687942352E0,-7.145989838E0,1.741519422E1
9.260409584E-1,1.383887192E1,-9.162596283E0,-3.474275208E0,1.695694945E1
9.361189584E-1,1.134326157E1,-9.679022369E0,-3.281176758E-1,1.491511710E1
9.461979583E-1,9.500443726E0,-8.670270081E0,1.859133911E-1,1.286338128E1
9.562759583E-1,5.097350006E0,-8.276888123E0,6.358776855E-1,9.741365126E0
9.663549584E-1,2.324815521E0,-9.090745697E0,1.360969849E0,9.481490572E0
9.764329584E-1,2.369871826E0,-1.007839188E1,4.902455292E0,1.145531943E1
9.865119584E-1,2.924169159E0,-1.102217926E1,6.932533722E0,1.334538215E1
9.965899583E-1,3.501219177E0,-1.194066925E1,5.859415283E0,1.375393999E1
1.006668958E0,3.484304352E0,-1.282293457E1,2.444117432E0,1.351080078E1
1.016746958E0,2.221679993E0,-1.391760818E1,-6.394702148E-1,1.410831676E1
1.026825958E0,3.603007507E-1,-1.465916611E1,-1.839674377E0,1.477854422E1
1.036903958E0,-1.292412415E0,-1.496617767E1,-3.079096985E-1,1.502503286E1
1.046982958E0,-1.846110992E0,-1.491498413E1,2.783461761E0,1.528438866E1
1.057061958E0,-6.337820435E-1,-1.446651672E1,4.736749878E0,1.523543846E1
1.067139958E0,8.393046570E-1,-1.370534958E1,4.451293488E0,1.443450910E1
1.077218958E0,1.327439575E0,-1.242895386E1,2.819087677E0,1.281359611E1
1.087296958E0,1.049916687E0,-1.064271835E1,3.552113342E-1,1.070027822E1
1.097375958E0,5.578898621E-1,-8.897946625E0,-2.644850006E0,9.299458414E0
1.107453958E0,6.512956238E-1,-8.004454651E0,-2.980901184E0,8.566285783E0
1.117532958E0,1.003213806E0,-7.887398071E0,-1.922152863E0,8.179985202E0
1.127610958E0,4.135899353E-1,-7.805368652E0,-1.230141907E0,7.912527128E0
1.137689958E0,-9.443861389E-1,-7.976612549E0,-7.286846924E-1,8.065308073E0
1.147767958E0,-1.577719116E0,-8.733438721E0,-9.683363342E-1,8.927475833E0
1.157846958E0,-1.651066589E0,-9.275461578E0,-1.793121185E0,9.590385392E0
1.167924958E0,-1.916913757E0,-9.421408081E0,-2.509531403E0,9.936560594E0
1.178003958E0,-2.093247070E0,-9.503138123E0,-2.476001129E0,1.004101086E1
1.188081958E0,-1.446142731E0,-9.127269745E0,-2.434088287E0,9.556315586E0
1.198160958E0,-9.095086670E-1,-8.421188049E0,-2.311493225E0,8.779898354E0
1.208238958E0,7.783813477E-3,-7.795638885E0,-1.733545074E0,7.986064409E0
1.218317958E0,1.352437592E0,-7.369924164E0,-1.895059204E-1,7.495384054E0
1.228396958E0,1.621278534E0,-6.936575317E0,1.504820709E0,7.280735305E0
1.238474958E0,1.247206421E0,-6.448590088E0,2.651585999E0,7.083131107E0
1.248553958E0,1.060394897E0,-5.785469055E0,3.713926849E0,6.956244832E0
1.258631958E0,1.550775146E0,-5.397026825E0,4.153263245E0,6.984439683E0
1.268710958E0,1.926493835E0,-5.414839783E0,2.667003937E0,6.335990717E0
1.278788958E0,2.221230927E0,-6.504873047E0,7.319778442E-2,6.874052524E0
1.288867958E0,4.190236359E0,-9.644743652E0,-6.963818665E0,1.261245144E1
1.298945958E0,4.533771973E0,-1.285002823E1,-1.560864166E1,2.071974923E1
1.309024958E0,2.339784393E0,-1.439346863E1,-1.806129135E1,2.321328877E1
1.319102958E0,1.148112488E0,-1.409678558E1,-5.464985504E0,1.516257210E1
1.329181958E0,1.602268066E0,-1.379965347E1,2.986289978E0,1.420970185E1
1.339259917E0,9.545649719E-1,-1.512125519E1,4.427193604E0,1.578491672E1
1.349338917E0,-8.186476135E-1,-1.685884186E1,4.640200653E0,1.750491916E1
1.359416917E0,-3.027604065E0,-1.847592911E1,5.828130341E0,1.960850443E1
1.369495917E0,-4.875361633E0,-1.849389175E1,5.688171387E0,1.995365824E1
1.379574917E0,-6.114035797E0,-1.767045410E1,3.159330139E0,1.896332642E1
1.389652917E0,-6.386169891E0,-1.661649582E1,-1.117426300E0,1.783647221E1
1.399731917E0,-5.383405151E0,-1.493234802E1,-7.638765106E0,1.761552727E1
1.409809917E0,-3.390299835E0,-1.311377975E1,-1.106394241E1,1.748931600E1
1.419888917E0,-2.270029449E0,-1.229782654E1,-9.901759186E0,1.595100016E1
1.429966917E0,-1.908082123E0,-1.346809296E1,-6.584058380E0,1.511225099E1
1.440045917E0,-1.235979767E0,-1.503009476E1,-3.930676117E0,1.558465942E1
1.450123917E0,-8.081694031E-1,-1.517065247E1,-1.655108185E0,1.528205540E1
1.460202917E0,-1.959425354E-1,-1.437939789E1,1.704655151E0,1.448141313E1
1.470280917E0,1.378633118E-1,-1.458896210E1,4.376449127E0,1.523187869E1
1.480359917E0,8.211923218E-1,-1.623284363E1,5.892047424E0,1.728860295E1
1.490437917E0,1.937421112E0,-1.797117874E1,5.733227692E0,1.896277315E1
1.500516917E0,2.846630402E0,-1.898681671E1,5.579946442E0,1.999345682E1
1.510594917E0,3.805985413E0,-1.914952835E1,5.653144226E0,2.032604242E1
1.520673917E0,4.808301086E0,-1.884880371E1,5.275479584E0,2.015509478E1
1.530751917E0,5.679938507E0,-1.853161331E1,4.503983917E0,1.989895134E1
1.540830917E0,6.779851227E0,-1.819616089E1,3.908073120E0,1.980756646E1
1.550909917E0,8.547974396E0,-1.808075089E1,2.971171417E0,2.021903258E1
1.560987917E0,1.044932053E1,-1.796204773E1,-5.703140259E-1,2.078818694E1
1.571066917E0,8.596922607E0,-1.636621628E1,-5.870492249E0,1.939646341E1
1.581144917E0,4.411476288E0,-1.426907730E1,-4.589156799E0,1.562459760E1
1.591223917E0,2.383493500E0,-1.300031570E1,-7.958949280E-1,1.324094779E1
1.601301917E0,1.713636475E0,-1.109672424E1,2.735860748E0,1.155676308E1
1.611380917E0,1.320553894E0,-9.605674896E0,5.323529663E0,1.106132094E1
1.621458917E0,1.963466949E0,-7.960446167E0,6.884333954E0,1.070597775E1
1.631537917E0,1.980830841E0,-6.146667938E0,7.878267059E0,1.018686946E1
1.641615917E0,2.933749237E0,-4.469705200E0,7.896080017E0,9.535891610E0
1.651694917E0,3.538940735E0,-2.647843781E0,6.651118927E0,7.985772423E0
1.661772917E0,4.136498108E0,-1.121467896E0,5.476361847E0,6.954052482E0
1.671851917E0,3.750899963E0,8.337661743E-2,5.400769043E0,6.576055691E0
1.681929917E0,2.351160736E0,1.078507233E0,5.959557037E0,6.496726463E0
1.692008917E0,8.232879639E-1,1.569785614E0,6.792874146E0,7.020339671E0
1.702086917E0,-1.040336609E-1,2.039359131E0,6.712042236E0,7.015790736E0
1.712165917E0,-9.595046997E-2,2.569107513E0,6.041885834E0,6.566117905E0
1.722244917E0,6.379733276E-1,3.215613098E0,5.194947052E0,6.142853770E0
1.732322917E0,1.317859497E0,3.476819916E0,4.376598816E0,5.742790922E0
1.742401917E0,2.186503143E0,3.470233612E0,3.976780243E0,5.712976319E0
1.752479917E0,2.895428925E0,3.222648468E0,3.893253937E0,5.824637158E0
1.762558917E0,2.710263977E0,2.877166901E0,3.675157471E0,5.397258807E0
1.772636917E0,2.311493225E0,1.756297760E0,3.331621857E0,4.418968991E0
1.782715917E0,2.506986694E0,-6.740483093E-1,2.370021515E0,3.515156524E0
1.792793917E0,4.066892853E0,-4.129762115E0,-1.211730194E0,5.921388576E0
1.802872917E0,7.479496307E0,-9.750573578E0,-1.399888916E1,1.862754541E1
1.812950917E0,1.384979919E1,-2.266691391E1,-4.038227463E1,4.833563932E1
1.823029917E0,1.753887772E1,-3.460024841E1,-4.310990250E1,5.799356098E1
1.833107917E0,1.694147003E1,-3.638887894E1,-2.263787430E1,4.608293903E1
1.843186917E0,1.695598984E1,-3.036794952E1,-1.704909622E1,3.873486326E1
1.853264917E0,1.335178482E1,-1.639615402E1,-8.916058960E0,2.294776965E1
1.863343917E0,5.444029083E0,-1.034334091E1,-3.940705261E0,1.233496298E1
1.873421917E0,-2.517764282E-1,-7.011719055E0,-4.065545654E0,8.109023181E0
1.883500917E0,-3.172502747E0,-4.824317780E0,-4.102967834E-1,5.788536876E0
1.893579917E0,-2.755769348E0,-4.895120544E0,8.461753693E0,1.015666015E1
1.903657917E0,5.562432861E-1,-5.422623596E0,1.489612335E1,1.586217968E1
1.913736917E0,2.834954681E0,-6.281687164E0,1.441143127E1,1.597453953E1
1.923814917E0,3.644920349E0,-7.295528870E0,1.150253036E1,1.410029754E1
1.933893917E0,5.031486969E0,-8.161328430E0,8.341553650E0,1.270844838E1
1.943971917E0,5.497917023E0,-1.056742493E1,2.990780640E0,1.228178855E1
1.954050917E0,4.929548950E0,-1.278251862E1,3.239862671E0,1.407799507E1
1.964128917E0,5.696104889E0,-1.341974350E1,5.090015259E0,1.544161202E1
1.974207917E0,5.707331543E0,-1.397538803E1,4.539310455E0,1.576357965E1
1.984285917E0,5.109624481E0,-1.422536819E1,4.124672699E0,1.566787438E1
1.994364917E0,4.442012787E0,-1.478879654E1,3.578757935E0,1.585078828E1
2.004442917E0,3.161126404E0,-1.525328064E1,3.187770996E0,1.590022561E1
2.014521917E0,1.321601715E0,-1.430485291E1,3.799698486E0,1.485978319E1
2.024599917E0,2.868035889E-1,-1.297157547E1,4.057163086E0,1.359428552E1
2.034678917E0,-5.099894714E-1,-1.177316757E1,3.719914398E0,1.235739969E1
2.044757917E0,-5.638774109E-1,-1.099837875E1,3.047362976E0,1.142666680E1
2.054835917E0,1.664538574E-1,-1.043734543E1,1.959125977E0,1.062092562E1
2.064914917E0,7.069798279E-1,-1.009291168E1,-1.064286804E-1,1.011820210E1
2.074992917E0,6.891668701E-1,-9.508826294E0,-4.036056976E0,1.035289739E1
2.085071917E0,1.072220306E0,-8.709937592E0,-6.518345032E0,1.093167376E1
2.095149917E0,9.250762939E-1,-8.282127228E0,-5.560187531E0,1.001823752E1
2.105228917E0,2.983296204E-1,-7.590715027E0,-4.269272003E0,8.714048348E0
2.115306917E0,-2.273771667E-1,-7.097041626E0,-2.982398071E0,7.701584153E0
2.125385917E0,-7.177574158E-1,-7.359296265E0,-1.640887756E0,7.574095976E0
2.135463917E0,-7.479945374E-1,-7.648345184E0,-1.963916016E-1,7.687343465E0
2.145542917E0,-2.947370911E-1,-7.675887909E0,2.115251312E0,7.967459649E0
2.155620917E0,2.296224976E-1,-7.996521149E0,3.224893799E0,8.625370542E0
2.165699917E0,1.898052979E-1,-7.525301056E0,2.965632935E0,8.090807175E0
2.175777917E0,1.475930786E-1,-6.262077942E0,2.943029938E0,6.920753505E0
2.185856917E0,-1.089733887E-1,-5.342540131E0,2.719095612E0,5.995672706E0
2.195934917E0,-6.755451965E-1,-4.829257507E0,2.023641815E0,5.279509028E0
2.206013917E0,-4.415817261E-1,-4.897814941E0,1.264869690E0,5.077743687E0
2.216092917E0,9.057664490E-1,-6.343059540E0,1.225202179E0,6.523491210E0
2.226170917E0,3.645668793E0,-1.045276337E1,4.110452271E-1,1.107791141E1
2.236249917E0,6.269712067E0,-1.421518936E1,-8.138725433E0,1.753909204E1
2.246327917E0,7.197482758E0,-1.586326218E1,-1.719848557E1,2.447927186E1
2.256406917E0,6.894812164E0,-1.519310577E1,-1.935026093E1,2.554998035E1
2.266484917E0,4.964426422E0,-1.341689941E1,-7.954009552E0,1.636841433E1
2.276563917E0,2.727627869E0,-1.274719208E1,-1.064286804E0,1.307912711E1
2.286641917E0,8.095166016E-1,-1.273701324E1,2.201322327E0,1.295116379E1
2.296720917E0,-5.692662048E-1,-1.313862808E1,5.379962311E0,1.420885662E1
2.306798917E0,-2.063159637E0,-1.407837387E1,7.320826263E0,1.600161666E1
2.316877917E0,-3.449576569E0,-1.509955032E1,7.078779602E0,1.702953667E1
2.326955917E0,-4.789440308E0,-1.616458557E1,6.324348450E0,1.800638632E1
2.337034917E0,-5.853727112E0,-1.699535797E1,5.213807831E0,1.871609216E1
2.347112958E0,-6.394253082E0,-1.698922073E1,1.635948029E0,1.822625632E1
2.357191958E0,-6.414311371E0,-1.564636322E1,-5.994434509E0,1.794116266E1
2.367269958E0,-6.024971008E0,-1.401415741E1,-1.110211304E1,1.886673786E1
2.377348958E0,-5.206473083E0,-1.307486069E1,-1.131137787E1,1.805565322E1
2.387426958E0,-3.734883270E0,-1.232806366E1,-1.015099091E1,1.640040009E1
2.397505958E0,-1.568139038E0,-1.190175018E1,-7.763455811E0,1.429622200E1
2.407584958E0,4.629872131E-1,-1.227297821E1,-4.403093719E0,1.304712940E1
2.417662958E0,2.101330261E0,-1.247999771E1,-3.135978699E-1,1.265955273E1
2.427741958E0,3.051404572E0,-1.251262985E1,3.747008057E0,1.341331596E1
2.437819958E0,3.913312225E0,-1.283715500E1,5.353018341E0,1.444857662E1
2.447898958E0,4.740342407E0,-1.376657227E1,5.210364990E0,1.546406355E1
2.457976958E0,5.638774109E0,-1.473924957E1,4.782255249E0,1.648973064E1
2.468055958E0,6.874304810E0,-1.581027237E1,4.414170685E0,1.779622662E1
2.478133958E0,8.482410736E0,-1.706137070E1,3.903133392E0,1.944932164E1
2.488212958E0,1.079300583E1,-1.881976410E1,2.813848572E0,2.187670540E1
2.498290958E0,1.204215820E1,-1.974708572E1,1.963017883E0,2.321237618E1
2.508369958E0,1.168814438E1,-1.953662338E1,9.864486694E-1,2.278739681E1
2.518447958E0,9.788295135E0,-1.884655838E1,-2.681673431E0,2.140548661E1
2.528526958E0,6.034850464E0,-1.698607727E1,-6.511159973E0,1.916615364E1
2.538604958E0,3.131937103E0,-1.381387390E1,-3.682791595E0,1.463540557E1
2.548683958E0,1.559307404E0,-1.133697464E1,1.056353302E0,1.149235902E1
2.558761958E0,8.394543457E-1,-9.791288910E0,3.713178406E0,1.050531846E1
2.568840958E0,1.430275726E0,-7.958200836E0,3.386258240E0,8.766150470E0
2.578919958E0,2.006427612E0,-5.842051392E0,4.854854279E0,7.856521259E0
2.588997958E0,1.379531250E0,-4.205803986E0,6.483168182E0,7.850054988E0
2.599076958E0,1.554068298E0,-2.579286346E0,6.120173035E0,6.820877092E0
2.609154958E0,2.081271973E0,-1.412313080E0,5.967041473E0,6.475484940E0
2.619233958E0,2.211351471E0,-7.776329041E-1,5.485792236E0,5.965626935E0
2.629311958E0,2.743644562E0,2.263293457E-1,4.979095917E0,5.689482103E0
2.639390958E0,2.969524841E0,7.369175720E-1,5.096002808E0,5.943935557E0
2.649468958E0,2.759212189E0,1.403930511E0,5.445525970E0,6.264026331E0
2.659547958E0,2.442770233E0,1.898352356E0,5.918093262E0,6.677926020E0
2.669625958E0,2.127525787E0,2.365381165E0,5.590873718E0,6.432671526E0
2.679704958E0,3.104544067E0,2.907703400E0,4.629123688E0,6.286630182E0
2.689782958E0,2.974913635E0,2.767894135E0,4.250261536E0,5.880142192E0
2.699861958E0,2.822680206E0,2.562221832E0,3.832929382E0,5.405908981E0
2.709939958E0,3.176544342E0,1.839674377E0,3.205583954E0,4.873459167E0
2.720018958E0,3.232228546E0,2.871029663E-1,2.417023773E0,4.046199872E0
2.730096958E0,3.592529297E0,-1.890418854E0,1.182091827E0,4.228154595E0
2.740175958E0,4.835694122E0,-4.166735229E0,-1.383872223E0,6.531517622E0
2.750254958E0,7.652386780E0,-8.616232452E0,-1.247086670E1,1.698001771E1
2.760332958E0,1.231204697E1,-1.885703659E1,-3.171110641E1,3.889432606E1
2.770411958E0,1.366373611E1,-2.968372238E1,-3.634037979E1,4.887171229E1
2.780489958E0,9.403445435E0,-3.282613770E1,-2.210228806E1,4.067543779E1
2.790568958E0,4.819976807E0,-3.122821060E1,-1.238763977E1,3.393945982E1
2.800646958E0,3.715423737E0,-2.402219559E1,-6.567143555E0,2.517930954E1
2.810725958E0,2.020049286E0,-1.440723999E1,-4.314178619E0,1.517436326E1
2.820803958E0,5.786965942E-1,-9.633966064E0,-5.111720123E0,1.092144104E1
2.830882958E0,8.289761353E-1,-7.696844330E0,-5.238057404E0,9.346970602E0
2.840960958E0,2.548001404E0,-6.941065979E0,-3.065625000E0,8.004296641E0
2.851039958E0,4.883444824E0,-6.797364807E0,3.424129486E0,9.043056143E0
2.861117958E0,6.612499237E0,-7.441625061E0,9.613608398E0,1.383923394E1
2.871196958E0,7.156318359E0,-8.810678101E0,1.146615601E1,1.613423920E1
2.881274958E0,8.019124146E0,-9.919123077E0,1.006791367E1,1.624986893E1
2.891353958E0,8.743767242E0,-1.051218979E1,7.843389587E0,1.576319638E1
2.901431958E0,8.269104309E0,-1.019604721E1,4.829706573E0,1.398797807E1
2.911510958E0,5.989045715E0,-9.492510223E0,4.759801941E0,1.219147790E1
2.921588958E0,4.843777313E0,-8.477471008E0,5.294789429E0,1.110695676E1
2.931667958E0,3.851041718E0,-7.381899261E0,4.611460419E0,9.517800492E0
2.941746958E0,3.306623840E0,-7.511380005E0,3.961511993E0,9.113076762E0
2.951824958E0,3.704496460E0,-8.967402191E0,3.637585602E0,1.036193153E1
2.961903958E0,4.038451996E0,-1.074390793E1,3.310366058E0,1.194567602E1
2.971981958E0,4.090693359E0,-1.210158463E1,2.796185303E0,1.307672646E1
2.982060958E0,3.927083588E0,-1.262818954E1,2.649041290E0,1.348742290E1
2.992138958E0,3.474574585E0,-1.254451355E1,2.946772156E0,1.334619627E1
3.002217958E0,2.743195496E0,-1.210847031E1,3.235671387E0,1.283003289E1
3.012295958E0,1.856738892E0,-1.163919617E1,3.378324738E0,1.226097242E1
3.022374958E0,9.021739197E-1,-1.106304428E1,3.468137970E0,1.162896588E1
3.032452958E0,-1.052311707E-1,-1.020667511E1,3.819307709E0,1.089836693E1
3.042531958E0,-1.000669098E0,-9.231153717E0,3.653003540E0,9.977974366E0
3.052609958E0,-1.331181793E0,-8.758436737E0,2.481090546E0,9.199895072E0
3.062688958E0,-1.575473785E0,-8.621022491E0,2.847079468E-1,8.768420899E0
3.072766958E0,-1.771865387E0,-8.427025909E0,-2.505639496E0,8.968416912E0
3.082845958E0,-2.125430145E0,-8.346194000E0,-4.850812683E0,9.884674566E0
3.092923958E0,-2.392474823E0,-8.562045135E0,-5.069358215E0,1.023381382E1
3.103002958E0,-1.937271423E0,-8.778495026E0,-2.730471954E0,9.395236696E0
3.113080958E0,-1.165626068E0,-8.723708954E0,7.679031372E-2,8.801572518E0
3.123159958E0,-4.273612976E-1,-8.478219452E0,1.246607666E0,8.580027589E0
3.133238958E0,2.231858826E-1,-8.373736725E0,1.376238098E0,8.489011131E0
3.143316958E0,6.179150391E-1,-7.971672821E0,1.360371094E0,8.110486796E0
3.153395958E0,6.728507996E-1,-7.592361603E0,1.795665894E0,7.830778946E0
3.163473958E0,8.815168762E-1,-8.380173340E0,1.066532135E0,8.493636913E0
3.173552958E0,1.289119263E0,-9.528585205E0,-2.323468323E0,9.892131698E0
3.183630958E0,1.607507172E0,-1.066382446E1,-6.329587555E0,1.250459556E1
3.193709958E0,4.725672913E-1,-1.183244431E1,-7.432793427E0,1.398129022E1
3.203787958E0,-1.053209839E0,-1.210098587E1,-4.720433807E0,1.303171536E1
3.213866958E0,-1.013692017E0,-1.209350143E1,-1.875449982E0,1.227996991E1
3.223944958E0,-7.271878052E-1,-1.209829147E1,-4.793032837E-1,1.212959976E1
3.234023958E0,-1.043929138E0,-1.238689133E1,2.622546387E-1,1.243356917E1
3.244101958E0,-1.495090942E0,-1.265288818E1,1.397493896E0,1.281732677E1
3.254180958E0,-1.844614105E0,-1.317919373E1,1.880539398E0,1.343987265E1
3.264258958E0,-2.402054901E0,-1.422566757E1,2.040257263E0,1.457059145E1
3.274337958E0,-3.150797882E0,-1.584215607E1,1.734592896E0,1.624531467E1
3.284415958E0,-3.941453705E0,-1.719489304E1,9.145980835E-2,1.764108185E1
3.294494958E0,-4.289629669E0,-1.698473007E1,-2.987188110E0,1.777091081E1
3.304573958E0,-3.701203308E0,-1.563319061E1,-5.692961426E0,1.704421792E1
3.314651958E0,-2.267933807E0,-1.471739502E1,-7.492369537E0,1.666975828E1
3.324730958E0,-5.908213806E-1,-1.444316528E1,-8.321944427E0,1.667959389E1
3.334808958E0,1.154100037E0,-1.371642654E1,-9.009464722E0,1.645122362E1
3.344888417E0,3.062481537E0,-1.233285370E1,-1.111812973E1,1.688463450E1
3.354966417E0,4.728816376E0,-1.126677063E1,-1.141870468E1,1.672389432E1
3.365045417E0,5.369184723E0,-1.075633209E1,-5.917494507E0,1.339938677E1
3.375123417E0,5.067412262E0,-1.081920135E1,1.362766113E0,1.202459631E1
3.385202417E0,4.337979126E0,-1.145163620E1,4.930447083E0,1.320103568E1
3.395280417E0,4.393363953E0,-1.245035934E1,5.110821991E0,1.415745726E1
3.405359417E0,5.239853668E0,-1.346315323E1,4.781057739E0,1.521745953E1
3.415437417E0,6.880442047E0,-1.443029205E1,4.808600464E0,1.669420408E1
3.425516417E0,8.904233551E0,-1.540027496E1,4.952151947E0,1.846558022E1
3.435594417E0,1.122560623E1,-1.646920212E1,5.137316895E0,2.058253819E1
3.445673417E0,1.349309097E1,-1.793016403E1,5.375771027E0,2.307494746E1
3.455751417E0,1.497620682E1,-1.923185715E1,5.051994324E0,2.489324701E1
3.465830417E0,1.404244858E1,-1.860226639E1,1.149759064E0,2.333573703E1
3.475909417E0,1.007854156E1,-1.669747742E1,-1.163949554E1,2.271256500E1
3.485987417E0,5.241649933E0,-1.435889053E1,-1.383258499E1,2.061535930E1
3.496066417E0,5.135370941E0,-1.095137650E1,-3.590583344E0,1.261732819E1
3.506144417E0,5.314099274E0,-8.985215149E0,1.572330322E0,1.055679710E1
3.516223417E0,5.034181366E0,-7.048991547E0,5.102140045E0,1.005301432E1
3.526301417E0,4.646936646E0,-4.436773682E0,7.539371796E0,9.905609924E0
3.536380417E0,3.998335419E0,-2.972668304E0,9.098379822E0,1.037323278E1
3.546458417E0,2.328258362E0,-2.055076447E0,8.647517395E0,9.188236136E0
3.556537417E0,1.436712341E0,-7.014413452E-1,7.494914246E0,7.663543688E0
3.566615417E0,3.790118408E-1,9.400451660E-2,6.218219147E0,6.230468376E0
3.576694417E0,-5.381309509E-1,9.889933777E-1,5.141358490E0,5.263198642E0
3.586772417E0,-1.227896576E0,1.730401611E0,4.881648560E0,5.322829360E0
3.596851417E0,-1.679956512E0,2.347717896E0,4.441414032E0,5.297187160E0
3.606929417E0,-1.604812775E0,3.018922119E0,3.486699371E0,4.883276288E0
3.617008417E0,-1.113833771E0,3.392395477E0,2.727777557E0,4.493299806E0
3.627086417E0,-7.333250427E-1,3.361260223E0,2.411485291E0,4.201320889E0
3.637165417E0,-6.222560120E-1,3.007545776E0,1.922751617E0,3.623466286E0
3.647243417E0,-6.872209167E-1,2.033221893E0,1.362017670E0,2.541919745E0
3.657322417E0,-5.516029358E-1,-2.261796570E-1,6.999444580E-1,9.194266041E-1
3.667400417E0,-2.974314880E-1,-3.549868011E0,-6.447093201E-1,3.620176584E0
3.677479417E0,5.987548828E-2,-6.896458740E0,-6.039790192E0,9.167540226E0
3.687558417E0,9.675878906E-1,-1.425680283E1,-3.047632416E1,3.366005032E1
3.697636417E0,3.442391510E0,-2.901012314E1,-4.636653030E1,5.480230320E1
3.707715417E0,5.262157288E0,-3.487298126E1,-2.274220734E1,4.196454594E1
3.717793417E0,6.080954590E0,-3.515649170E1,-8.721763000E0,3.672909020E1
3.727872417E0,7.454348602E0,-2.857407990E1,-7.709867249E0,3.052027863E1
3.737950417E0,7.440876617E0,-1.749052826E1,-8.236472168E0,2.071532518E1
3.748029417E0,6.111191711E0,-8.698261871E0,-7.600295105E0,1.306793440E1
3.758107417E0,6.220763855E0,-5.280119934E0,-6.811734924E0,1.062907814E1
3.768186417E0,6.493197327E0,-4.179608459E0,-4.869673462E0,9.129318596E0
3.778264417E0,6.357130280E0,-4.427343292E0,4.074526978E-1,7.757608634E0
3.788343417E0,6.862928467E0,-5.625302124E0,6.253994751E0,1.085616237E1
3.798421417E0,7.535629578E0,-7.326514435E0,8.608598328E0,1.358570911E1
3.808500417E0,7.852670288E0,-9.128766632E0,8.308023376E0,1.462949293E1
3.818578417E0,8.167315979E0,-1.028511200E1,7.043902130E0,1.490319215E1
3.828657417E0,8.146509247E0,-1.071905960E1,4.935686188E0,1.433962516E1
3.838735417E0,6.668333130E0,-1.072744217E1,2.989583130E0,1.298007279E1
3.848814417E0,4.724774780E0,-1.054078033E1,3.713477783E0,1.213348524E1
3.858893417E0,3.215613098E0,-9.629625092E0,4.301604767E0,1.102604419E1
3.868971417E0,1.951491852E0,-8.724008331E0,4.557871857E0,1.003448243E1
3.879050417E0,2.305206299E0,-8.537645874E0,4.478836212E0,9.912887923E0
3.889128417E0,3.170107727E0,-9.140442352E0,4.324207764E0,1.059698269E1
3.899207417E0,3.002456360E0,-9.755812683E0,4.215533752E0,1.104361128E1
3.909285417E0,2.242786102E0,-1.019799316E1,4.340972900E0,1.130810328E1
3.919364417E0,1.151106262E0,-1.038839722E1,5.171146545E0,1.166124346E1
3.929442417E0,2.903961182E-1,-1.021700363E1,6.889273682E0,1.232613423E1
3.939521417E0,1.197509766E-1,-1.023915756E1,7.658973083E0,1.278728105E1
3.949599417E0,-4.387376404E-1,-1.069076843E1,7.213499451E0,1.290424716E1
3.959678417E0,-7.544311523E-1,-1.123548569E1,6.253994751E0,1.288090662E1
3.969756417E0,-5.528004456E-1,-1.151854706E1,4.639452209E0,1.243008574E1
3.979835417E0,-4.228706360E-1,-1.118548965E1,2.917582855E0,1.156746680E1
3.989913417E0,-6.047424316E-1,-1.040755737E1,1.715283051E0,1.056528087E1
3.999992417E0,-1.485959930E0,-9.444160767E0,1.193318481E0,9.634534680E0
4.010070417E0,-2.354004822E0,-8.389304352E0,-1.193767548E0,8.794705633E0
4.020149417E0,-3.490591278E0,-7.218588867E0,-5.201832733E0,9.557788263E0
4.030227417E0,-4.125570831E0,-7.713310089E0,-3.620820465E0,9.467091848E0
4.040306417E0,-3.502566376E0,-9.038055267E0,-1.288071442E0,9.778217745E0
4.050385417E0,-2.542911987E0,-1.002435425E1,5.418731689E-1,1.035604683E1
4.060463417E0,-1.696571960E0,-1.039887543E1,7.217990112E-1,1.056105868E1
4.070542417E0,-1.270258484E0,-1.022987686E1,7.478448486E-1,1.033553139E1
4.080620417E0,-1.140029297E0,-9.890682220E0,8.801696777E-1,9.994996761E0
4.090699417E0,-1.259630585E0,-9.866282959E0,-8.532257080E-2,9.946732558E0
4.100777417E0,-1.687440948E0,-1.049003586E1,-2.825973358E0,1.099429100E1
4.110856417E0,-2.131866760E0,-1.167646866E1,-6.076763306E0,1.333461017E1
4.120934417E0,-1.931283875E0,-1.238090378E1,-8.022566986E0,1.487878412E1
4.131013417E0,-1.052760773E0,-1.171179520E1,-7.722441101E0,1.406806840E1
4.141091417E0,-2.092648315E-1,-1.062011536E1,-5.299729156E0,1.187087912E1
4.151170417E0,1.707948303E-1,-1.021595581E1,-2.467618561E0,1.051114006E1
4.161248417E0,2.965333557E-1,-1.063957489E1,-2.788700867E-1,1.064735903E1
4.171327417E0,4.728666687E-1,-1.136002670E1,1.079704742E0,1.142101449E1
4.181405417E0,5.951623535E-1,-1.225621307E1,1.832639008E0,1.240675392E1
4.191484417E0,2.975811768E-1,-1.349623444E1,2.392325134E0,1.370985478E1
4.201562417E0,-7.089257812E-1,-1.490375748E1,2.766996002E0,1.517500674E1
4.211641417E0,-1.934876404E0,-1.596160767E1,2.592458954E0,1.628611401E1
4.221719417E0,-3.143463135E0,-1.620125931E1,1.061442719E0,1.653749752E1
4.231798417E0,-3.869004364E0,-1.594244751E1,-1.116378479E0,1.644314837E1
4.241877417E0,-3.643423462E0,-1.517125122E1,-3.450624390E0,1.597961848E1
4.251955417E0,-2.260748749E0,-1.408076889E1,-5.970783691E0,1.546057228E1
4.262034417E0,-6.256988525E-1,-1.297486862E1,-7.834707642E0,1.516975144E1
4.272112417E0,9.285191345E-1,-1.173903854E1,-9.095386047E0,1.487928833E1
4.282191417E0,2.493814087E0,-1.065783691E1,-1.140313705E1,1.580633199E1
4.292269417E0,3.950584717E0,-1.003079086E1,-1.393137955E1,1.761553919E1
4.302348417E0,5.026696930E0,-9.998458099E0,-1.161749130E1,1.613080750E1
4.312426417E0,4.780608673E0,-1.038106247E1,-2.515219574E0,1.170243593E1
4.322505417E0,3.695515137E0,-1.098385895E1,4.693340149E0,1.250317685E1
4.332583417E0,2.768642578E0,-1.192001221E1,6.343059540E0,1.378355822E1
4.342663042E0,2.823129272E0,-1.310869034E1,5.944887543E0,1.466797563E1
4.352741042E0,3.475772095E0,-1.398287247E1,5.609734497E0,1.546191564E1
4.362820042E0,3.963008881E0,-1.472368195E1,5.512436829E0,1.621355017E1
4.372898042E0,4.337230682E0,-1.553993454E1,4.783901825E0,1.682815653E1
4.382977042E0,5.470823364E0,-1.676244232E1,4.575385437E0,1.821657302E1
4.393055042E0,6.893764343E0,-1.876288239E1,4.815186768E0,2.056102541E1
4.403134042E0,7.969577179E0,-2.000080811E1,3.721710663E0,2.184943055E1
4.413212042E0,8.177045746E0,-2.007250900E1,-1.526824951E-1,2.167470892E1
4.423291042E0,6.284531250E0,-1.852367981E1,-9.537566528E0,2.176205923E1
4.433369042E0,2.883304138E0,-1.466006424E1,-1.002300705E1,1.799143120E1
4.443448042E0,3.225342865E0,-1.130164810E1,-3.879183197E0,1.237651602E1
4.453527042E0,3.704496460E0,-8.904532928E0,2.106120300E-1,9.646676014E0
4.463605042E0,3.284170532E0,-6.648125153E0,2.524799652E0,7.833132031E0
4.473684042E0,2.802472229E0,-4.627177734E0,4.870272217E0,7.279023001E0
4.483762042E0,1.984123993E0,-3.010539551E0,6.582262115E0,7.505083008E0
4.493841042E0,1.491049347E0,-1.728006592E0,6.956483917E0,7.321332080E0
4.503919042E0,8.098159790E-1,-1.150357819E0,6.223158875E0,6.380190546E0
4.513998042E0,2.751278687E-1,-5.611830139E-1,5.691015472E0,5.725231771E0
4.524076042E0,-9.280700684E-2,1.190025330E-1,5.097050629E0,5.099284249E0
4.534155042E0,8.681945801E-3,9.624984741E-1,4.472998352E0,4.575389923E0
4.544233042E0,6.855743408E-2,1.597777405E0,4.082460480E0,4.384526922E0
4.554312042E0,3.038681030E-1,2.161205750E0,3.463796997E0,4.094024396E0
4.564390042E0,7.803273010E-1,2.426454163E0,3.187172241E0,4.081011810E0
4.574469042E0,1.293011169E0,2.424508209E0,3.878135376E0,4.752899319E0
4.584547042E0,1.720222778E0,2.195783844E0,4.744084625E0,5.503360067E0
4.594626042E0,2.158361664E0,1.292711792E0,5.071902924E0,5.661610029E0
4.604704042E0,2.732567596E0,-7.924520874E-1,4.257895660E0,5.120994184E0
4.614783042E0,3.179538116E0,-2.941832428E0,3.140319672E0,5.350275536E0
4.624861042E0,3.755540314E0,-4.874313812E0,1.280736694E0,6.285165445E0
4.634940042E0,5.407055969E0,-8.671018524E0,-7.195087738E0,1.249768395E1
4.645019042E0,8.013735352E0,-2.310310684E1,-4.418317062E1,5.049877292E1
4.655097042E0,6.590045929E0,-3.551514587E1,-4.413467148E1,5.703177639E1
4.665176042E0,3.209026794E0,-3.538327011E1,-2.081466568E1,4.117674057E1
4.675254042E0,-4.019142151E-1,-2.950259903E1,-5.638774109E0,3.003931853E1
4.685333042E0,-2.269580383E0,-2.167821991E1,-3.526815948E0,2.208018669E1
4.695411042E0,2.145039368E-1,-1.344055023E1,-5.479056244E0,1.451600702E1
4.705490042E0,3.212020569E0,-9.151519318E0,-5.126688995E0,1.097042944E1
4.715568042E0,3.471431122E0,-7.858508148E0,-3.931723938E0,9.448038816E0
4.725647042E0,3.921694794E0,-6.874753876E0,-2.627336426E0,8.339354148E0
4.735725042E0,4.669689331E0,-6.491999817E0,8.412506104E-2,7.997445661E0
4.745804042E0,5.067861328E0,-6.524482269E0,4.451443176E0,9.384425058E0
4.755882042E0,4.663103027E0,-6.846462708E0,7.194039917E0,1.097145349E1
4.765961042E0,3.856131134E0,-7.320227509E0,7.595355377E0,1.123142473E1
4.776039042E0,4.094585266E0,-8.127349091E0,6.920558624E0,1.143300325E1
4.786118042E0,5.585185547E0,-8.735983429E0,5.607638855E0,1.178801585E1
4.796196042E0,7.515271912E0,-9.264234924E0,3.745211792E0,1.250327845E1
4.806275042E0,7.729326782E0,-1.051009415E1,2.633922729E0,1.330947484E1
4.816353042E0,6.349496155E0,-1.079570023E1,3.503763885E0,1.300536836E1
4.826432042E0,4.910388794E0,-1.000998413E1,2.974763947E0,1.153953729E1
4.836511042E0,3.370540924E0,-9.104217682E0,2.210902405E0,9.956676914E0
4.846589042E0,2.502196655E0,-8.363258514E0,1.915716248E0,8.937284253E0
4.856668042E0,2.408491516E0,-8.158484344E0,2.096390533E0,8.761081637E0
4.866746042E0,2.618804169E0,-8.582103424E0,2.461780701E0,9.304353748E0
4.876825042E0,2.541265411E0,-9.634115753E0,3.018023987E0,1.041070051E1
4.886903042E0,2.527943115E0,-1.117800522E1,3.726650391E0,1.205098420E1
4.896982042E0,2.553539886E0,-1.264869690E1,4.715344391E0,1.373843411E1
4.907060042E0,2.626288605E0,-1.367586090E1,5.909111938E0,1.512759621E1
4.917139042E0,2.519111481E0,-1.403197037E1,6.573729858E0,1.569891841E1
4.927217042E0,1.826950836E0,-1.355461304E1,6.377188568E0,1.509085213E1
4.937296042E0,9.940827942E-1,-1.235515732E1,5.681136017E0,1.363500713E1
4.947374042E0,2.996768188E-1,-1.101274887E1,5.019062805E0,1.210625604E1
4.957453042E0,-4.945715332E-1,-9.683063965E0,4.921016693E0,1.087302782E1
4.967531042E0,-1.207838287E0,-8.313861237E0,4.521647186E0,9.540673732E0
4.977610042E0,-1.288221130E0,-7.147636414E0,3.294499054E0,7.975082695E0
4.987688042E0,-1.204694824E0,-6.360273743E0,2.186652832E0,6.832702416E0
4.997767042E0,-9.470805359E-1,-5.484295349E0,1.015039215E0,5.657275106E0
5.007845042E0,-6.809339905E-1,-4.831353149E0,-4.429289246E-1,4.899166295E0
5.017924042E0,-7.485932922E-1,-5.032684479E0,-1.680854645E0,5.358505138E0
5.028002042E0,-1.384920044E0,-5.892945557E0,-2.883453827E0,6.705155989E0
5.038081042E0,-2.379152527E0,-7.652237091E0,-3.801644440E0,8.869588474E0
5.048160042E0,-3.456312561E0,-1.024050476E1,-4.736899567E0,1.180051913E1
5.058238042E0,-4.278702393E0,-1.283969971E1,-5.448669434E0,1.458948873E1
5.068317042E0,-4.556674347E0,-1.445139816E1,-4.186943207E0,1.572058152E1
5.078395042E0,-3.695964203E0,-1.418390442E1,-1.442699890E0,1.472836308E1
5.088474042E0,-2.465073853E0,-1.357407257E1,1.137634277E-2,1.379609237E1
5.098552042E0,-1.800605621E0,-1.362511642E1,5.438191223E-1,1.375433450E1
5.108631042E0,-1.403780823E0,-1.385099670E1,4.155358887E-1,1.392815064E1
5.118709042E0,-1.062789917E0,-1.337169342E1,-9.180409241E-1,1.344524103E1
5.128788042E0,-8.858578491E-1,-1.255289612E1,-1.837728424E0,1.271759375E1
5.138866042E0,-1.066981201E0,-1.193243637E1,-1.412462769E0,1.206302357E1
5.148945042E0,-1.596729584E0,-1.157198593E1,-4.535568237E-1,1.169042846E1
5.159023042E0,-2.456541595E0,-1.192749664E1,3.968247986E-1,1.218430313E1
5.169102042E0,-3.594475250E0,-1.316691925E1,1.010099487E0,1.368606283E1
5.179180042E0,-4.526437225E0,-1.442864548E1,1.417252808E0,1.518825368E1
5.189259042E0,-4.725223846E0,-1.493713806E1,1.150058441E0,1.570886591E1
5.199337042E0,-3.803440704E0,-1.468251755E1,-1.555265808E-1,1.516794881E1
5.209416042E0,-2.139351196E0,-1.412612457E1,-2.286046143E0,1.446894004E1
5.219494042E0,-8.921447754E-1,-1.399080597E1,-4.462520142E0,1.471233020E1
5.229573042E0,4.864883423E-2,-1.395727570E1,-6.787335663E0,1.552017516E1
5.239652042E0,1.476828918E0,-1.327484482E1,-9.530531158E0,1.640833790E1
5.249730042E0,3.341351624E0,-1.176777878E1,-1.307201660E1,1.790315241E1
5.259809042E0,5.402116241E0,-1.064526306E1,-1.561792236E1,1.965766986E1
5.269887042E0,6.123615875E0,-1.035232224E1,-1.192480225E1,1.693724168E1
5.279966042E0,5.180427246E0,-1.048060547E1,-3.144660645E0,1.210656054E1
5.290044042E0,4.365970917E0,-1.101499420E1,3.890260162E0,1.247100331E1
5.300123042E0,3.733835449E0,-1.178080170E1,6.643185425E0,1.403070662E1
5.310201042E0,3.980223083E0,-1.254137009E1,6.143823853E0,1.452152578E1
5.320280042E0,5.126988373E0,-1.324326050E1,5.772146759E0,1.532930646E1
5.330358042E0,5.708529053E0,-1.402253998E1,5.179828491E0,1.600154851E1
5.340437042E0,5.857469330E0,-1.494537094E1,4.725972290E0,1.673346568E1
5.350514208E0,6.732699280E0,-1.615665207E1,4.568799133E0,1.808979191E1
5.360593208E0,9.163644104E0,-1.833402420E1,3.790118408E0,2.084403546E1
5.370671208E0,1.211385910E1,-2.095701965E1,3.515888672E0,2.446024792E1
5.380750208E0,1.251741989E1,-2.130594406E1,-2.540367279E0,2.484114569E1
5.390828208E0,9.414971466E0,-1.994377670E1,-1.506272690E1,2.670733342E1
5.400907208E0,7.234156494E0,-1.672981018E1,-1.127066254E1,2.143005840E1
5.410985208E0,7.245981903E0,-1.317664902E1,-2.341281281E0,1.521873619E1
5.421064208E0,6.447841644E0,-9.889335022E0,2.977308655E0,1.217530188E1
5.431142208E0,5.614823914E0,-7.229815521E0,6.011948090E0,1.095171219E1
5.441221208E0,4.677473145E0,-5.289700012E0,7.698790283E0,1.044658093E1
5.451300208E0,4.010310516E0,-3.784130859E0,8.627459106E0,1.023891046E1
5.461378208E0,2.296823730E0,-2.659369812E0,8.239316254E0,8.957342205E0
5.471457208E0,2.429447937E-1,-1.585502930E0,6.873556366E0,7.058230574E0
5.481535208E0,-1.248852997E0,-1.063837738E0,5.243595886E0,5.494240836E0
5.491614208E0,-2.339634705E0,-1.848655701E-1,4.201313324E0,4.812390204E0
5.501692208E0,-2.890189819E0,8.204438782E-1,4.471052399E0,5.386709097E0
5.511771208E0,-2.612816620E0,1.681004333E0,5.000501404E0,5.887070625E0
5.521849208E0,-1.570534058E0,2.563119965E0,5.174739075E0,5.984487085E0
5.531928208E0,-6.370751953E-1,3.007695465E0,5.367538147E0,6.185673979E0
5.542006208E0,-3.686833191E-1,3.122955780E0,4.674179993E0,5.633536970E0
5.552085208E0,-3.450325012E-1,2.745590515E0,2.600542145E0,3.797385173E0
5.562163208E0,-5.321434021E-1,1.731299744E0,7.743397522E-1,1.969816604E0
5.572242208E0,-2.558180237E-1,-4.584965515E-1,-8.020321655E-1,9.586018691E-1
5.582320208E0,-1.347198486E-2,-4.184697876E0,-4.700974274E0,6.293729970E0
5.592399208E0,-8.890013123E-1,-1.006162674E1,-1.781460434E1,2.047893512E1
5.602477208E0,-5.936654663E-1,-2.294159271E1,-4.247462357E1,4.827797388E1
5.612556208E0,-2.314187622E-1,-3.466581207E1,-3.415013443E1,4.866213891E1
5.622634208E0,-5.589376831E-1,-3.644471283E1,-1.378902557E1,3.897007481E1
5.632713208E0,8.710386658E-1,-3.377336792E1,-5.386548615E0,3.421131384E1
5.642791208E0,2.253264313E0,-2.513288589E1,-5.656736755E0,2.585996566E1
5.652870208E0,3.507805481E0,-1.302336777E1,-8.736133118E0,1.606962442E1
5.662949208E0,5.235363007E0,-6.092929688E0,-1.039737854E1,1.313918942E1
5.673027208E0,7.426955566E0,-2.980901184E0,-9.329199829E0,1.229143646E1
5.683106208E0,7.920030212E0,-2.335892487E0,-2.342329102E0,8.583110036E0
5.693184208E0,7.962392120E0,-3.191213837E0,5.982908478E0,1.045842856E1
5.703263208E0,8.324788513E0,-3.838018799E0,8.389004974E0,1.242609740E1
5.713341208E0,7.460036774E0,-4.265380096E0,7.886649628E0,1.166382692E1
5.723420208E0,6.597380676E0,-4.899311829E0,7.172634430E0,1.090758327E1
5.733498208E0,6.500981140E0,-6.139033813E0,5.610482941E0,1.055594670E1
5.743577208E0,6.684349823E0,-7.633376312E0,3.261717224E0,1.065775613E1
5.753655208E0,6.225404205E0,-9.152118073E0,1.355581055E0,1.115143590E1
5.763734208E0,5.029690704E0,-1.085782104E1,2.022593994E0,1.213593642E1
5.773812208E0,3.745211792E0,-1.144849274E1,3.501518555E0,1.254413128E1
5.783891208E0,1.917662201E0,-1.143786484E1,3.259471893E0,1.204683931E1
5.793969208E0,7.490423584E-1,-1.131242569E1,2.959346008E0,1.171707166E1
5.804048208E0,6.991960144E-1,-1.078058167E1,2.841391296E0,1.117064549E1
5.814126208E0,3.532653809E-1,-9.806108093E0,1.836081848E0,9.982772607E0
5.824205208E0,-5.328918457E-1,-9.627828827E0,1.238823853E0,9.721818049E0
5.834283208E0,-1.113085327E0,-1.062550415E1,2.778372345E0,1.103900586E1
5.844362208E0,-1.919907532E0,-1.172885971E1,3.745660858E0,1.246122668E1
5.854440208E0,-2.668351135E0,-1.309342209E1,4.558171234E0,1.411859500E1
5.864519208E0,-2.745889893E0,-1.395817383E1,5.101391602E0,1.511273384E1
5.874598208E0,-1.825453949E0,-1.399454819E1,4.778662720E0,1.490017713E1
5.884676208E0,-1.168170776E0,-1.339175171E1,3.953578491E0,1.401193847E1
5.894755208E0,-1.252146149E0,-1.240260864E1,2.872227173E0,1.279227345E1
5.904833208E0,-1.831890564E0,-1.105855362E1,1.426832886E0,1.129970280E1
5.914912208E0,-2.553689575E0,-9.325607300E0,-1.290316772E0,9.754650139E0
5.924990208E0,-2.535876617E0,-7.602839813E0,-3.594475250E0,8.783740420E0
5.935069208E0,-1.919009399E0,-7.354057159E0,-3.892355804E0,8.539039026E0
5.945147208E0,-1.179547119E0,-7.789651337E0,-2.849923553E0,8.378070399E0
5.955226208E0,-5.408253479E-1,-7.766449585E0,-1.456770630E0,7.920379529E0
5.965304208E0,9.999206543E-2,-7.645052032E0,-3.625460815E-1,7.654296745E0
5.975383208E0,9.008267212E-1,-7.765701141E0,5.469625854E-1,7.836885291E0
5.985461208E0,1.386416931E0,-7.436535645E0,1.212328949E0,7.661198064E0
5.995540208E0,1.314865723E0,-6.724017334E0,1.847158813E0,7.096004274E0
6.005618208E0,1.063238983E0,-6.060297546E0,2.324067078E0,6.577155256E0
6.015697208E0,9.601034546E-1,-5.989045715E0,2.448159027E0,6.540944110E0
6.025775208E0,9.731263733E-1,-6.908433838E0,2.212399292E0,7.319026141E0
6.035854208E0,7.379653931E-1,-8.669821014E0,1.627565460E0,8.852082166E0
6.045932208E0,3.088078308E-1,-1.054212753E1,9.699829102E-1,1.059116056E1
6.056011208E0,-1.043330383E-1,-1.241248810E1,-1.986369324E-1,1.241451581E1
6.066089208E0,-6.750961304E-1,-1.391416534E1,-2.224075012E0,1.410695792E1
6.076168208E0,-1.575623474E0,-1.490630219E1,-5.271737366E0,1.588935647E1
6.086247208E0,-2.364333344E0,-1.495629822E1,-7.998467102E0,1.712473079E1
6.096325208E0,-2.305056610E0,-1.405607025E1,-7.397017822E0,1.604999282E1
6.106404208E0,-1.197809143E0,-1.275123367E1,-4.331542511E0,1.352002099E1
6.116482208E0,3.462300110E-1,-1.166643951E1,-1.571432190E0,1.177688776E1
6.126561208E0,9.068142700E-1,-1.103744751E1,3.698808289E-1,1.108081096E1
6.136639208E0,3.965254211E-1,-1.120435043E1,1.971250763E0,1.138334444E1
6.146718208E0,-7.381150818E-1,-1.214873657E1,3.098556519E0,1.255936570E1
6.156796208E0,-1.894610138E0,-1.322963882E1,3.498524780E0,1.381493998E1
6.166875208E0,-2.776725769E0,-1.430754730E1,3.300037537E0,1.494343881E1
6.176953208E0,-3.154839478E0,-1.509940063E1,2.228715363E0,1.558563710E1
6.187032208E0,-2.953059082E0,-1.517798721E1,-3.294648743E-1,1.546610490E1
6.197110208E0,-2.365830231E0,-1.413824936E1,-3.855083313E0,1.484415424E1
6.207189208E0,-1.709594879E0,-1.261127472E1,-6.903344421E0,1.447836762E1
6.217267208E0,-6.171665955E-1,-1.126272903E1,-9.123677216E0,1.450763405E1
6.227346208E0,9.286688232E-1,-1.017643799E1,-1.136122421E1,1.528069801E1
6.237424208E0,2.623893585E0,-9.594448242E0,-1.248254242E1,1.596095611E1
6.247503208E0,3.999981995E0,-9.591155090E0,-9.121282196E0,1.382707130E1
6.257581208E0,4.793631592E0,-9.925410004E0,-3.660487976E0,1.161429463E1
6.267660208E0,4.506678314E0,-1.037567368E1,9.569599915E-1,1.135255593E1
6.277738208E0,3.891757050E0,-1.095451996E1,4.900958405E0,1.261612753E1
6.287817208E0,3.683689728E0,-1.186747147E1,6.015839996E0,1.380567926E1
6.297895208E0,4.014950867E0,-1.240365646E1,5.548661499E0,1.416891557E1
6.307974208E0,4.006568298E0,-1.276710068E1,5.137167206E0,1.433324583E1
6.318053208E0,3.476670227E0,-1.354368576E1,4.674479370E0,1.474345337E1
6.328131208E0,3.319796448E0,-1.472847198E1,4.377646637E0,1.571981951E1
6.338210208E0,4.146377563E0,-1.610650635E1,3.982318726E0,1.710177932E1
6.348288458E0,5.748945007E0,-1.817984482E1,4.167034607E0,1.951720533E1
6.358367458E0,7.387138367E0,-2.113035919E1,4.436923370E0,2.281990758E1
6.368445458E0,7.570956116E0,-2.171639053E1,3.176394653E-1,2.300047585E1
6.378524458E0,5.177283783E0,-1.942001587E1,-1.107217529E1,2.294633630E1
6.388602458E0,1.316063232E0,-1.533905228E1,-1.280197815E1,2.002271689E1
6.398681458E0,2.342628479E0,-1.198048645E1,-5.510790253E0,1.339360941E1
6.408759458E0,3.507506104E0,-1.034783157E1,-1.728605347E0,1.106202033E1
6.418838458E0,3.591032410E0,-8.317453766E0,1.527423706E0,9.187413896E0
6.428916458E0,3.357218628E0,-6.158792725E0,4.756359100E0,8.474939329E0
6.438995458E0,3.189118195E0,-4.390370178E0,6.434219971E0,8.416947891E0
6.449073458E0,3.407663727E0,-2.887046356E0,6.710844727E0,8.061181407E0
6.459152458E0,2.942880249E0,-1.826501770E0,6.103856964E0,7.018099651E0
6.469230458E0,2.142794037E0,-1.640588379E0,5.485642548E0,6.113539946E0
6.479309458E0,1.203347626E0,-1.216220856E0,5.063819733E0,5.345045272E0
6.489387458E0,6.084846497E-1,-1.930984497E-1,4.050576782E0,4.100574697E0
6.499466458E0,2.038760376E-1,8.024812317E-1,3.294948120E0,3.397384977E0
6.509544458E0,-1.856140137E-2,1.631457367E0,3.586242371E0,3.939940610E0
6.519623458E0,-1.122665405E-2,2.107916565E0,4.013453979E0,4.533348776E0
6.529702458E0,3.882925415E-1,2.383792877E0,3.513643341E0,4.263675540E0
6.539780458E0,1.103804626E0,2.317480774E0,2.878364410E0,3.856693334E0
6.549859458E0,1.637893982E0,1.560804291E0,2.226020966E0,3.173952752E0
6.559937458E0,1.704056396E0,1.800755310E-1,8.364605713E-1,1.906804050E0
6.570016458E0,1.598376160E0,-1.754052429E0,9.864486694E-2,2.375128856E0
6.580094458E0,2.077529755E0,-4.216282196E0,4.625381470E-2,4.700564312E0
6.590173458E0,2.501597900E0,-7.855664063E0,-6.939868469E0,1.077641983E1
6.600251458E0,1.018032990E0,-1.904983566E1,-3.808215775E1,4.259323149E1
6.610330458E0,5.930667114E-1,-3.024789917E1,-3.824172592E1,4.876183686E1
6.620408458E0,1.599274292E0,-3.255130920E1,-1.842219086E1,3.743691394E1
6.630487458E0,1.721420288E0,-3.108346161E1,-6.878645782E0,3.188197988E1
6.640565458E0,6.150709534E-1,-2.470507553E1,-3.946543121E0,2.502587205E1
6.650644458E0,8.394543457E-1,-1.536719376E1,-4.973707123E0,1.617383968E1
6.660722458E0,1.488804016E0,-8.931327209E0,-6.453080750E0,1.111878565E1
6.670801458E0,2.728076935E0,-5.568121033E0,-6.529272308E0,9.004319656E0
6.680879458E0,4.257147217E0,-4.636009369E0,-4.193379822E0,7.563089291E0
6.690958458E0,5.800886993E0,-5.393733673E0,-4.447251892E-1,7.933500699E0
6.701036458E0,6.238726501E0,-6.086493073E0,3.019820251E0,9.224230083E0
6.711115458E0,5.575006714E0,-6.329886932E0,4.931794281E0,9.770914147E0
6.721193458E0,4.363276520E0,-6.739884338E0,5.470823364E0,9.715664216E0
6.731272458E0,3.759581909E0,-7.444618835E0,5.293891296E0,9.878364783E0
6.741351458E0,4.790488129E0,-8.619824982E0,4.681963806E0,1.091654452E1
6.751429458E0,6.201154633E0,-1.027298721E1,3.669169922E0,1.254796370E1
6.761508458E0,6.570885773E0,-1.241503281E1,1.887874146E0,1.417299009E1
6.771586458E0,4.761149139E0,-1.337483688E1,1.120719452E0,1.424116621E1
6.781665458E0,3.373385010E0,-1.230321533E1,1.984573059E0,1.291074607E1
6.791743458E0,2.433339844E0,-1.060335022E1,1.519789581E0,1.098462285E1
6.801822458E0,1.628463593E0,-8.434360657E0,5.782475281E-1,8.609570463E0
6.811900458E0,1.426383820E0,-6.073021088E0,-2.373314667E0,6.674487129E0
6.821979458E0,6.366261292E-1,-5.379213867E0,-2.086660767E0,5.804772848E0
6.832057458E0,2.314187622E-1,-7.434440002E0,1.584754486E0,7.604991754E0
6.842136458E0,1.429527283E-1,-9.367220764E0,3.186124420E0,9.895284187E0
6.852214458E0,7.888595581E-2,-1.100331848E1,4.041595459E0,1.172236045E1
6.862293458E0,2.040257263E-1,-1.253478378E1,5.075495453E0,1.352490610E1
6.872371458E0,7.092251587E-1,-1.355341553E1,5.732329559E0,1.473287735E1
6.882450458E0,5.869294739E-1,-1.384815262E1,6.066434784E0,1.513001811E1
6.892528458E0,-3.613485718E-1,-1.338471634E1,6.188880157E0,1.475070988E1
6.902607458E0,-1.570084991E0,-1.221953934E1,5.857319641E0,1.364149925E1
6.912685458E0,-2.437531128E0,-1.068957092E1,5.466183014E0,1.225102613E1
6.922764458E0,-2.431693268E0,-9.327553253E0,4.966971130E0,1.084376245E1
6.932842458E0,-1.939367065E0,-8.223449249E0,4.020938416E0,9.357040553E0
6.942921458E0,-1.586401062E0,-7.475155334E0,2.969225464E0,8.198226361E0
6.952999458E0,-1.337468719E0,-6.868017883E0,1.169368286E0,7.094076008E0
6.963078458E0,-1.052760773E0,-6.922504578E0,-1.436263275E0,7.147882698E0
6.973157458E0,-7.529342651E-1,-8.409063263E0,-2.683020630E0,8.858772752E0
6.983235458E0,-5.577401733E-1,-9.636361084E0,-2.452050934E0,9.959070380E0
6.993314458E0,-3.447331238E-1,-9.925859070E0,-1.530716858E0,1.004911008E1
7.003392458E0,5.390290833E-1,-9.891580353E0,-6.271957397E-1,9.926091311E0
7.013471458E0,1.332978058E0,-9.721384277E0,8.696914673E-2,9.812731852E0
7.023549458E0,1.787133636E0,-9.303004303E0,6.095324707E-1,9.492695377E0
7.033628458E0,2.494113464E0,-8.805888062E0,5.785469055E-1,9.170549768E0
7.043706458E0,3.107986908E0,-9.112600250E0,-5.065466309E-1,9.641351328E0
7.053785458E0,2.971770172E0,-1.009156448E1,-2.982697449E0,1.093469596E1
7.063863458E0,1.898052979E0,-1.133592682E1,-5.671256561E0,1.281674658E1
7.073942458E0,-1.158590698E-1,-1.182061890E1,-7.036268005E0,1.375679911E1
7.084020458E0,-1.073866882E0,-1.139834702E1,-5.755531311E0,1.281411899E1
7.094099458E0,-1.239871674E0,-1.102173019E1,-3.320993958E0,1.157777263E1
7.104177458E0,-1.417552185E0,-1.085662354E1,-1.694176941E0,1.107907777E1
7.114256458E0,-1.941762085E0,-1.094344299E1,-7.322772217E-1,1.113847451E1
7.124334458E0,-2.548600159E0,-1.094523926E1,1.393601990E-1,1.123890771E1
7.134413458E0,-2.852019196E0,-1.066621948E1,6.912625122E-1,1.106255375E1
7.144491458E0,-2.914738770E0,-1.018616776E1,1.009800110E0,1.064299826E1
7.154570458E0,-2.875819702E0,-9.898016968E0,1.297501831E0,1.038867604E1
7.164649458E0,-3.092419281E0,-9.906698914E0,1.604214020E0,1.050139243E1
7.174727458E0,-3.550616455E0,-1.030457153E1,1.837578735E0,1.105295288E1
7.184806458E0,-3.902534637E0,-1.122201370E1,1.630259857E0,1.199254416E1
7.194884458E0,-3.914060669E0,-1.257085876E1,8.919950867E-1,1.319628797E1
7.204963458E0,-3.360212402E0,-1.408002045E1,-5.013075256E-1,1.448410551E1
7.215041458E0,-2.176773376E0,-1.537767197E1,-2.374212799E0,1.571139790E1
7.225120458E0,-5.819897461E-1,-1.608300522E1,-4.365821228E0,1.667519607E1
7.235198458E0,1.393452301E0,-1.597028961E1,-7.204069061E0,1.757528010E1
7.245277458E0,3.710783386E0,-1.487741226E1,-1.115704880E1,1.896278057E1
7.255355458E0,6.071823578E0,-1.369801483E1,-1.308219543E1,1.989086447E1
7.265434458E0,7.001839600E0,-1.313084427E1,-8.253087616E0,1.701641220E1
7.275512458E0,6.211632843E0,-1.288325912E1,-3.135978699E-1,1.430598098E1
7.285591458E0,5.876629486E0,-1.284613632E1,3.812571716E0,1.463194094E1
7.295669458E0,6.009253693E0,-1.292966263E1,5.633834381E0,1.533060323E1
7.305748458E0,6.075865173E0,-1.320344330E1,6.609804840E0,1.596673331E1
7.315826458E0,5.776038666E0,-1.339788895E1,6.247258759E0,1.587117806E1
7.325905458E0,5.516328735E0,-1.348246307E1,5.546416168E0,1.558747656E1
7.335984458E0,5.738317108E0,-1.355491241E1,4.909790039E0,1.551676423E1
7.346061583E0,6.190826111E0,-1.403691010E1,4.657115479E0,1.603277573E1
7.356140583E0,6.400240631E0,-1.403212006E1,3.958518219E0,1.592273029E1
7.366218583E0,6.306535492E0,-1.310150528E1,2.296823730E0,1.472063958E1
7.376297583E0,6.268813934E0,-1.227447510E1,-5.089416504E-3,1.378262649E1
7.386375583E0,5.269042969E0,-1.127590164E1,-2.940185852E0,1.278880231E1
7.396454583E0,3.740122375E0,-1.011641281E1,-4.587210846E0,1.172061547E1
7.406532583E0,3.172652435E0,-8.996890869E0,-3.088527374E0,1.002740097E1
7.416611583E0,2.939287720E0,-7.917934570E0,-5.084925842E-1,8.461185784E0
7.426689583E0,2.661166077E0,-6.912625122E0,1.777703247E0,7.617507453E0
7.436768583E0,2.013313293E0,-5.838907928E0,4.217180328E0,7.478695484E0
7.446846583E0,9.259744263E-1,-5.068160706E0,6.164630585E0,8.034074422E0
7.456925583E0,5.031037903E-1,-4.848567352E0,7.221432953E0,8.712681142E0
7.467003583E0,3.186872864E-1,-5.067262573E0,7.518115997E0,9.071977718E0
7.477082583E0,5.625302124E-1,-5.036576385E0,6.479725342E0,8.226200972E0
7.487160583E0,1.136287079E0,-4.728816376E0,4.939129028E0,6.931655516E0
7.497239583E0,1.521136780E0,-4.320764923E0,4.061653748E0,6.122082798E0
7.507318583E0,1.691183167E0,-3.703748016E0,3.427272949E0,5.322034361E0
7.517396583E0,1.898651733E0,-3.427871704E0,2.899919586E0,4.874906813E0
7.527475583E0,2.167492676E0,-3.671564941E0,2.244582367E0,4.818356942E0
7.537553583E0,2.367476807E0,-4.402794342E0,1.730102234E0,5.289876954E0
7.547632583E0,2.205962677E0,-5.541027374E0,1.629810791E0,6.182680560E0
7.557710583E0,2.073039093E0,-7.356152802E0,1.313368835E0,7.754702626E0
7.567789583E0,2.393522644E0,-9.578581238E0,4.857398987E-1,9.885044887E0
7.577867583E0,2.734513550E0,-1.219244568E1,-2.825374603E0,1.281077818E1
7.587946583E0,2.547702026E0,-1.584814362E1,-1.443612991E1,2.158833686E1
7.598024583E0,1.093775482E0,-1.856080261E1,-2.150188660E1,2.842588373E1
7.608103583E0,6.328839111E-1,-1.807461365E1,-1.998119888E1,2.695070517E1
7.618181583E0,1.967059479E0,-1.401939651E1,-1.002270767E1,1.734553172E1
7.628260583E0,2.571053467E0,-9.857451324E0,-2.798430634E0,1.056460489E1
7.638338583E0,2.282752991E0,-7.876470795E0,-2.221380615E-1,8.203602789E0
7.648417583E0,2.162852325E0,-7.255561981E0,1.193168793E0,7.664513136E0
7.658495583E0,1.694326630E0,-6.938072205E0,2.093097382E0,7.442354822E0
7.668574583E0,1.432071991E0,-6.889722748E0,2.847678223E0,7.591335916E0
7.678653583E0,1.857786713E0,-7.223079529E0,3.258274384E0,8.138832920E0
7.688731583E0,2.602188721E0,-8.060438232E0,3.266357574E0,9.078058297E0
7.698810583E0,3.308420105E0,-9.701625366E0,3.239712982E0,1.075001947E1
7.708888583E0,3.602708130E0,-1.148576523E1,2.879711609E0,1.237719870E1
7.718967583E0,3.111280060E0,-1.249212250E1,2.040406952E0,1.303443319E1
7.729045583E0,2.571801910E0,-1.323113571E1,1.282832336E0,1.353967415E1
7.739124583E0,2.080523529E0,-1.359472961E1,7.668553162E-1,1.377437180E1
7.749202583E0,1.468446350E0,-1.330942291E1,3.315605164E-1,1.339429003E1
7.759281583E0,9.610015869E-1,-1.201611237E1,-3.894900513E-1,1.206077041E1
7.769359583E0,9.394464111E-1,-1.016027161E1,-2.078427887E0,1.041314271E1
7.779438583E0,1.686542816E0,-9.090745697E0,-5.321434021E0,1.066788377E1
7.789516583E0,2.524200897E0,-9.029223633E0,-7.818241882E0,1.220751308E1
7.799595583E0,2.779120789E0,-9.421857147E0,-7.120692444E0,1.213256631E1
7.809673583E0,2.347119141E0,-9.907597046E0,-4.004921722E0,1.094115375E1
7.819752583E0,1.352736969E0,-1.031909134E1,-6.942562866E-1,1.043050982E1
7.829830583E0,3.971241760E-1,-1.066996170E1,1.519939270E0,1.078498983E1
7.839909583E0,-9.565109253E-2,-1.064331711E1,2.711910553E0,1.098379748E1
7.849988583E0,-3.597019958E-1,-1.037687119E1,3.939058685E0,1.110518007E1
7.860066583E0,-3.029699707E-1,-1.006851242E1,5.002147980E0,1.124669807E1
7.870145583E0,-1.017883301E-2,-1.000459534E1,4.824018402E0,1.110689808E1
7.880223583E0,1.070274353E-1,-1.009500732E1,4.093537445E0,1.089392843E1
7.890302583E0,-2.963836670E-2,-1.015937347E1,3.587290192E0,1.077415420E1
7.900380583E0,1.347198486E-3,-1.011656250E1,3.183280334E0,1.060556987E1
7.910459583E0,1.140628052E-1,-9.971813507E0,2.854264526E0,1.037289260E1
7.920537583E0,2.932402039E-1,-9.760902100E0,2.583327942E0,1.010122680E1
7.930616583E0,6.357279968E-1,-9.448052673E0,2.229463806E0,9.728327619E0
7.940694583E0,8.646020508E-1,-9.056466980E0,1.734892273E0,9.261586369E0
7.950773583E0,9.601034546E-1,-8.788224792E0,1.272054749E0,8.931562961E0
7.960851583E0,1.015937347E0,-8.656947784E0,9.012757874E-1,8.762828977E0
7.970930583E0,1.114282837E0,-8.758137360E0,6.304888916E-1,8.851220961E0
7.981008583E0,1.307081909E0,-9.154363403E0,4.108955383E-1,9.256331216E0
7.991087583E0,1.513203278E0,-9.709409180E0,2.475851440E-1,9.829735967E0
8.001165583E0,1.772164764E0,-1.018976028E1,1.046324158E-1,1.034324565E1
8.011244583E0,1.939516754E0,-1.043569885E1,-1.182540894E-1,1.061506099E1
8.021322583E0,1.933678894E0,-1.034947815E1,-5.658233643E-1,1.054376442E1
8.031401583E0,1.868414612E0,-1.016326538E1,-1.160386963E0,1.039853039E1
8.041480583E0,1.927092590E0,-1.003827530E1,-1.663640442E0,1.035607823E1
8.051558583E0,2.046993256E0,-1.006237518E1,-1.926793213E0,1.044768433E1
8.061637583E0,2.022144928E0,-1.014290771E1,-1.883383484E0,1.051260103E1
8.071715583E0,1.758393402E0,-1.017673737E1,-1.482666779E0,1.043341898E1
8.081794583E0,1.392554169E0,-1.003782623E1,-6.837780762E-1,1.015700325E1
8.091872583E0,1.112037506E0,-9.827064514E0,3.129991150E-1,9.894735612E0
8.101951583E0,9.743238831E-1,-9.591304779E0,1.275347900E0,9.724656635E0
8.112029583E0,8.876541138E-1,-9.385033722E0,1.966909790E0,9.629928448E0
8.122108583E0,8.050259399E-1,-9.423204346E0,2.241588593E0,9.719545582E0
8.132186583E0,6.337820435E-1,-9.654323730E0,2.181713104E0,9.918040050E0
8.142265583E0,3.388952637E-1,-9.840087433E0,2.083217926E0,1.006389426E1
8.152343583E0,1.264869690E-1,-9.886940002E0,2.165846100E0,1.012217718E1
8.162422583E0,1.895059204E-1,-9.839039612E0,2.228266296E0,1.008998432E1
8.172500583E0,4.905299377E-1,-9.876312103E0,2.058369598E0,1.010044780E1
8.182579583E0,1.042731628E0,-9.977801056E0,1.809586945E0,1.019403787E1
8.192657583E0,1.831142120E0,-1.005878265E1,1.382375336E0,1.031712903E1
8.202736583E0,2.635569305E0,-1.017194733E1,6.990463257E-1,1.053106850E1
8.212814583E0,3.376229095E0,-1.036833893E1,-1.375639343E-1,1.090505841E1
8.222893583E0,3.980223083E0,-1.037163208E1,-7.735913086E-1,1.113603930E1
8.232972583E0,4.269122314E0,-9.884844360E0,-1.080602875E0,1.082142578E1
8.243050583E0,4.137246552E0,-8.911717987E0,-9.358538818E-1,9.869718790E0
8.253129583E0,3.889511719E0,-7.969128113E0,-3.043171692E-1,8.872875139E0
8.263207583E0,3.659440155E0,-7.499704285E0,5.321434021E-1,8.361832527E0
8.273286583E0,3.419189758E0,-7.476053467E0,1.290765839E0,8.321556975E0
8.283364583E0,3.137325897E0,-7.918683014E0,2.010319519E0,8.751556378E0
8.293443583E0,2.808908844E0,-8.649613037E0,2.552042999E0,9.445564994E0
8.303521583E0,2.399959259E0,-9.350006561E0,2.822380829E0,1.005724916E1
8.313600583E0,1.842967529E0,-9.775870972E0,2.733465729E0,1.031678329E1
8.323678583E0,1.267564087E0,-9.924362183E0,2.500849457E0,1.031280425E1
8.333757583E0,8.030799866E-1,-1.000908600E1,2.307900696E0,1.030306487E1
8.343835917E0,4.757107544E-1,-1.008467880E1,2.098037109E0,1.031158606E1
8.353914917E0,2.345622253E-1,-1.022119492E1,1.811532898E0,1.038313519E1
8.363992917E0,8.876541138E-2,-1.033555710E1,1.541793823E0,1.045029894E1
8.374071917E0,3.218307495E-2,-1.032522858E1,1.318757629E0,1.040915475E1
8.384149917E0,8.038284302E-2,-1.017449203E1,1.188378754E0,1.024397353E1
8.394228917E0,3.766168213E-1,-9.934091949E0,1.115031281E0,1.000356526E1
8.404306917E0,1.030606842E0,-9.765243073E0,1.148411865E0,9.886403418E0
8.414385917E0,1.802102509E0,-9.667196960E0,1.110839996E0,9.896273845E0
8.424463917E0,2.342927856E0,-9.599387970E0,9.291178894E-1,9.924757951E0
8.434542917E0,2.649939423E0,-9.573940887E0,6.667135620E-1,9.956255824E0
8.444620917E0,2.980452118E0,-9.578431549E0,3.514691162E-1,1.003757821E1
8.454699917E0,3.227438507E0,-9.530980225E0,3.727249146E-2,1.006267025E1
8.464777917E0,3.275338898E0,-9.397158508E0,-1.800755310E-1,9.953233652E0
8.474856917E0,3.081641693E0,-9.288035431E0,-1.673519897E-1,9.787345114E0
8.484935917E0,2.639012146E0,-9.266480255E0,2.133064270E-1,9.637299469E0
8.495013917E0,2.129172363E0,-9.293723602E0,8.144563293E-1,9.569222145E0
8.505092917E0,1.629661102E0,-9.345366211E0,1.350192261E0,9.581997916E0
8.515170917E0,1.289268951E0,-9.426198120E0,1.795665894E0,9.681933765E0
8.525249917E0,1.127006378E0,-9.522747345E0,2.090402985E0,9.814410069E0
8.535327917E0,1.067130890E0,-9.647438049E0,2.257305908E0,9.965302766E0
8.545406917E0,1.126407623E0,-9.814939728E0,2.360441437E0,1.015743667E1
8.555484917E0,1.289119263E0,-9.809550934E0,2.351160736E0,1.016941861E1
8.565563917E0,1.567839661E0,-9.670490112E0,2.113455048E0,1.002213512E1
8.575641917E0,1.870659943E0,-9.573491821E0,1.767374725E0,9.913361069E0
8.585720917E0,2.187700653E0,-9.551337891E0,1.360520782E0,9.892679437E0
8.595798917E0,2.431393890E0,-9.527088318E0,9.982740784E-1,9.882997481E0
8.605877917E0,2.583327942E0,-9.467362518E0,7.162605286E-1,9.839591732E0
8.615955917E0,2.697839813E0,-9.456734619E0,5.828878784E-1,9.851290656E0
8.626034917E0,2.730921021E0,-9.507030029E0,5.795947266E-1,9.908454958E0
8.636112917E0,2.640359344E0,-9.529333649E0,6.337820435E-1,9.908651620E0
8.646191917E0,2.426903229E0,-9.497000885E0,7.848179626E-1,9.833556037E0
8.656269917E0,2.156266022E0,-9.477092285E0,9.816586304E-1,9.768746849E0
8.666348917E0,1.878294067E0,-9.517807617E0,1.162632294E0,9.770791385E0
8.676426917E0,1.694626007E0,-9.553134155E0,1.340612183E0,9.794456111E0
8.686505917E0,1.598525848E0,-9.571246490E0,1.537901917E0,9.824926797E0
8.696583917E0,1.575324097E0,-9.580826569E0,1.680106201E0,9.853762763E0
8.706662917E0,1.584006042E0,-9.573641510E0,1.726360016E0,9.856165878E0
8.716741917E0,1.578018494E0,-9.537117462E0,1.627715149E0,9.802867359E0
8.726819917E0,1.647773438E0,-9.498198395E0,1.465452576E0,9.750819519E0
8.736898917E0,1.735191650E0,-9.470206604E0,1.268462219E0,9.711060683E0
8.746976917E0,1.808838501E0,-9.501042480E0,1.102906494E0,9.734377621E0
8.757055917E0,1.879341888E0,-9.556277618E0,1.004860382E0,9.791022022E0
8.767133917E0,1.892664185E0,-9.560468903E0,9.276210022E-1,9.790057409E0
8.777212917E0,1.853296051E0,-9.577832794E0,8.854087830E-1,9.795587578E0
8.787290917E0,1.766626282E0,-9.634564819E0,8.663983154E-1,9.833435499E0
8.797369917E0,1.653461609E0,-9.658365326E0,7.979905701E-1,9.831314511E0
8.807447917E0,1.561403046E0,-9.659862213E0,7.402107239E-1,9.813196694E0
8.817526917E0,1.526375885E0,-9.634864197E0,7.872129822E-1,9.786732637E0
8.827604917E0,1.519490204E0,-9.628726959E0,8.996292114E-1,9.789308763E0
8.837683917E0,1.550026703E0,-9.609566803E0,1.014590149E0,9.786508575E0
8.847761917E0,1.550176392E0,-9.588011627E0,1.069974976E0,9.771277309E0
8.857840917E0,1.568887482E0,-9.565558319E0,1.103954315E0,9.756025267E0
8.867918917E0,1.593137054E0,-9.558672638E0,1.127006378E0,9.755841924E0
8.877997917E0,1.654210052E0,-9.546398163E0,1.148711243E0,9.756519169E0
8.888075917E0,1.692230988E0,-9.521998901E0,1.178050232E0,9.742685007E0
8.898154917E0,1.683249664E0,-9.513616333E0,1.144070892E0,9.728880890E0
8.908232917E0,1.656156006E0,-9.533674622E0,1.040785675E0,9.732267944E0
8.918311917E0,1.676813049E0,-9.571396179E0,9.623487854E-1,9.764703887E0
8.928389917E0,1.754800873E0,-9.611363068E0,9.746232605E-1,9.818732944E0
8.938468917E0,1.780098267E0,-9.612560577E0,9.888436890E-1,9.825878207E0
8.948546917E0,1.787732391E0,-9.590706024E0,9.798623657E-1,9.804986456E0
8.958625917E0,1.806293793E0,-9.631720734E0,9.915380859E-1,9.849664427E0
8.968703917E0,1.790277100E0,-9.661059723E0,1.009051666E0,9.877213794E0
8.978782917E0,1.740430756E0,-9.668394470E0,1.043031006E0,9.879011313E0
8.988860917E0,1.682501221E0,-9.644144897E0,1.069825287E0,9.848089526E0
8.998939917E0,1.678160248E0,-9.564061432E0,1.116228790E0,9.774121935E0
9.009018917E0,1.719174957E0,-9.536369019E0,1.160985718E0,9.759394675E0
9.019096917E0,1.721869354E0,-9.528884583E0,1.206491089E0,9.758078510E0
9.029175917E0,1.760489044E0,-9.560917969E0,1.219514008E0,9.797841012E0
9.039253917E0,1.795516205E0,-9.590556335E0,1.217717743E0,9.832877797E0
9.049332917E0,1.963466949E0,-9.676178284E0,1.281185760E0,9.956157170E0
9.059410917E0,2.151775360E0,-9.759704590E0,1.415007477E0,1.009377120E1
9.069489917E0,2.041903839E0,-9.584269409E0,1.398242340E0,9.898619754E0
9.079567917E0,1.952988739E0,-9.315877533E0,1.379381561E0,9.617818501E0
9.089646917E0,1.666933594E0,-9.283245392E0,1.216520233E0,9.509849320E0
9.099724917E0,1.650168457E0,-9.514215088E0,1.191372528E0,9.729476511E0
9.109803917E0,2.154918823E0,-9.756261749E0,1.541344757E0,1.010960247E1
9.119881917E0,2.890938263E0,-9.951755219E0,1.947150879E0,1.054449394E1
9.129960917E0,3.043171692E0,-9.766141205E0,1.743574219E0,1.037682317E1
9.140038917E0,2.714305573E0,-9.322463837E0,1.398541718E0,9.809776025E0
9.150117917E0,2.373164978E0,-9.080267487E0,1.124311981E0,9.452367273E0
9.160195917E0,2.065404968E0,-9.119485931E0,9.204359436E-1,9.395643866E0
9.170274917E0,2.261048126E0,-9.542356567E0,8.997789001E-1,9.847766729E0
9.180352917E0,2.598296814E0,-9.689350891E0,9.686357117E-1,1.007833926E1
9.190431917E0,2.368374939E0,-9.498647461E0,9.400451660E-1,9.834489735E0
9.200509917E0,2.110910339E0,-9.364975433E0,8.593629456E-1,9.638319978E0
9.210588917E0,2.253114624E0,-9.494605865E0,1.100511475E0,9.820142135E0
9.220666917E0,2.600991211E0,-9.698032837E0,1.669178925E0,1.017856348E1
9.230745917E0,2.520608368E0,-9.618248749E0,2.130669250E0,1.016877215E1
9.240823917E0,2.073338470E0,-9.181906128E0,1.983974304E0,9.619890155E0
9.250902917E0,2.322719879E0,-9.136999512E0,2.012864227E0,9.640093885E0
9.260980917E0,2.134561157E0,-8.974587250E0,2.096390533E0,9.460149095E0
9.271059917E0,1.693727875E0,-9.130413208E0,1.793719940E0,9.457832240E0
9.281137917E0,1.428180084E0,-9.473499756E0,1.502725067E0,9.697684188E0
9.291216917E0,1.381926270E0,-9.620494080E0,1.183588715E0,9.791042273E0
9.301294917E0,1.657054138E0,-9.591753845E0,9.289682007E-1,9.778064848E0
9.311373917E0,1.934726715E0,-9.443262634E0,8.954379272E-1,9.680918640E0
9.321452917E0,2.143542480E0,-9.541907501E0,7.587721252E-1,9.809103336E0
9.331530917E0,2.248623962E0,-1.004246658E1,2.709365845E-1,1.029470016E1
9.341609917E0,2.637066193E0,-1.032747391E1,-1.100212097E-1,1.065940618E1
9.351687708E0,3.072510681E0,-1.039049286E1,-4.146377563E-1,1.084318165E1
9.361766708E0,3.920197906E0,-1.076336746E1,-4.842430115E-1,1.146527462E1
9.371844708E0,4.391118622E0,-1.127171036E1,-7.526348877E-1,1.212022427E1
9.381923708E0,4.248614960E0,-1.125120300E1,-1.172811127E0,1.208369910E1
9.392001708E0,4.227957916E0,-1.124970612E1,-1.239721985E0,1.208173938E1
9.402080708E0,4.242627411E0,-1.124880798E1,-8.578660583E-1,1.205286284E1
9.412158708E0,4.000431061E0,-1.110839996E1,-4.426295471E-1,1.181507170E1
9.422237708E0,3.398233337E0,-1.025247986E1,-2.233355713E-1,1.080329634E1
9.432315708E0,2.953807526E0,-9.377249908E0,4.492158508E-1,9.841726964E0
9.442394708E0,2.067799988E0,-8.329728241E0,7.367678833E-1,8.614116105E0
9.452472708E0,9.642947388E-1,-7.108867035E0,9.954299927E-1,7.242702240E0
9.462551708E0,5.330415344E-1,-6.305787048E0,8.675958252E-1,6.387472590E0
9.472629708E0,6.562353516E-1,-6.400090942E0,9.569599915E-1,6.504427825E0
9.482708708E0,-2.320175171E-1,-6.487359467E0,1.438059540E0,6.648885637E0
9.492786708E0,-9.011260986E-2,-6.763385468E0,2.232756958E0,7.122970370E0
9.502865708E0,1.529070282E0,-7.411837006E0,2.514920197E0,7.974848420E0
9.512943708E0,1.748064880E0,-8.236621857E0,1.895208893E0,8.630729238E0
9.523022708E0,2.049687653E0,-8.979676666E0,1.365011444E0,9.311233471E0
9.533100708E0,2.526745605E0,-9.670939178E0,8.199948120E-1,1.002915248E1
9.543179708E0,1.839824066E0,-9.777816925E0,1.239422607E-1,9.950176787E0
9.553257708E0,1.084045715E0,-9.731413422E0,-3.179388428E-1,9.796767191E0
9.563336708E0,1.400936737E0,-9.931996307E0,-3.499722290E-1,1.003641644E1
9.573414708E0,1.844314728E0,-9.807604980E0,-5.777984619E-2,9.979676887E0
9.583493708E0,1.500928802E0,-9.337432709E0,3.939807129E-1,9.465498279E0
9.593571708E0,1.520238647E0,-9.423354034E0,1.112037506E0,9.609753078E0
9.603650708E0,2.449356537E0,-1.031983978E1,1.270108795E0,1.068230392E1
9.613728708E0,2.497406616E0,-1.071307205E1,1.450633392E0,1.109555271E1
9.623807708E0,2.559976501E0,-1.109822113E1,1.646426239E0,1.150802812E1
9.633885708E0,2.867886200E0,-1.147962799E1,1.674717407E0,1.195036855E1
9.643964708E0,2.718197479E0,-1.112052475E1,1.346450043E0,1.152682072E1
9.654043708E0,2.712808685E0,-1.102861588E1,9.828561401E-1,1.139981163E1
9.664121708E0,2.426454163E0,-1.072429871E1,5.258564758E-1,1.100794202E1
9.674200708E0,1.611099701E0,-9.926757202E0,3.921844482E-1,1.006429130E1
9.684278708E0,1.759141846E0,-9.282047882E0,5.001100159E-1,9.460502257E0
9.694357708E0,2.923869781E0,-8.991951141E0,1.044228516E0,9.512865658E0
9.704435708E0,4.237837372E0,-9.179511108E0,1.333427124E0,1.019807421E1
9.714514708E0,4.853656769E0,-9.391620026E0,7.843688965E-1,1.060074268E1
9.724592708E0,4.752916260E0,-9.381890259E0,-2.243833923E-1,1.051952593E1
9.734671708E0,5.118755493E0,-9.514514465E0,-9.521699524E-1,1.084593338E1
9.744749708E0,4.844675446E0,-9.410780182E0,-1.680255890E0,1.071713225E1
9.754828708E0,4.193230133E0,-9.421707458E0,-2.231858826E0,1.055144275E1
9.764906708E0,3.587290192E0,-9.339977417E0,-2.436333618E0,1.029755071E1
9.774985708E0,2.608625336E0,-9.016649780E0,-2.414029999E0,9.691874960E0
9.785063708E0,2.234403534E0,-8.916208649E0,-1.820663910E0,9.370493738E0
9.795142708E0,2.446961517E0,-8.847501526E0,-7.110214233E-1,9.207141542E0
9.805220708E0,2.724185028E0,-8.635392609E0,-4.559518433E-1,9.066370920E0
9.815299708E0,3.158432007E0,-8.797206116E0,-1.101110229E0,9.411640235E0
9.825377708E0,3.471281433E0,-9.182504883E0,-1.718127136E0,9.965949607E0
9.835456708E0,3.720513153E0,-9.340875549E0,-1.731150055E0,1.020250237E1
9.845534708E0,3.706741791E0,-9.519304504E0,-1.258732452E0,1.029278875E1
9.855613708E0,3.347488861E0,-9.677525482E0,-1.013692017E0,1.029017748E1
9.865691708E0,3.162473602E0,-9.696835327E0,-1.091230774E0,1.025771121E1
9.875770708E0,2.893932037E0,-9.694739685E0,-1.255139923E0,1.019500841E1
9.885848708E0,2.393672333E0,-9.508676605E0,-1.080602875E0,9.864699721E0
9.895927708E0,2.259700928E0,-9.141041107E0,-5.402265930E-1,9.431687313E0
9.906005708E0,2.533182220E0,-8.944649506E0,-2.433938599E-1,9.299624052E0
9.916084708E0,2.765648804E0,-8.806486816E0,1.550775146E-1,9.231850973E0
9.926162708E0,3.175197144E0,-8.723409576E0,3.591032410E-1,9.290247934E0
9.936241708E0,3.559148712E0,-8.669821014E0,3.333567810E-1,9.377870906E0
9.946319708E0,3.805386658E0,-8.661288757E0,4.409829712E-1,9.470657661E0
9.956398708E0,3.978127441E0,-8.758436737E0,4.587959290E-1,9.630483151E0
9.966476708E0,4.127666473E0,-8.848100281E0,4.409829712E-1,9.773483262E0
9.976555708E0,4.358785858E0,-9.068292389E0,6.568341064E-1,1.008287519E1
9.986634708E0,4.508025513E0,-9.310788116E0,1.334474945E0,1.043043109E1
9.996712708E0,4.888534241E0,-9.057664490E0,2.229314117E0,1.053132919E1