"Time (s)","Acceleration x (m/s^2)","Acceleration y (m/s^2)","Acceleration z (m/s^2)","Absolute acceleration (m/s^2)"
2.022166667E-3,7.961044922E0,-4.405937805E0,1.908231812E0,9.296874358E0
1.202916667E-2,8.669222260E0,-4.971461792E0,2.772833862E0,1.037108743E1
2.203716667E-2,8.772058411E0,-5.523663483E0,3.578757935E0,1.096664832E1
3.204516667E-2,8.483009491E0,-5.791905670E0,3.884571991E0,1.098169026E1
4.205316667E-2,7.884703674E0,-5.630092163E0,3.465443573E0,1.028959615E1
5.206116667E-2,7.491471405E0,-5.364544373E0,2.626887360E0,9.581284744E0
6.206916667E-2,6.908733215E0,-5.408702545E0,1.910177765E0,8.979612294E0
7.207616667E-2,6.362818451E0,-5.605094147E0,1.468596039E0,8.605772095E0
8.208416667E-2,5.647605743E0,-5.840554504E0,1.219663696E0,8.215540584E0
9.209216667E-2,5.051844635E0,-6.057303772E0,1.075214081E0,7.960411329E0
1.021001667E-1,4.521946564E0,-6.190377045E0,1.000220032E0,7.731054831E0
1.121081667E-1,4.177662506E0,-6.433770905E0,1.002914429E0,7.736414507E0
1.221151667E-1,3.942950592E0,-6.695576477E0,9.801617432E-1,7.831878496E0
1.321231667E-1,3.797303467E0,-6.941365356E0,1.031804352E0,7.979140734E0
1.421311667E-1,3.708238678E0,-7.176676025E0,1.153800659E0,8.160083874E0
1.521391667E-1,3.636986847E0,-7.417375488E0,1.302291870E0,8.363079371E0
1.621471667E-1,3.538791046E0,-7.625293121E0,1.376537476E0,8.518391437E0
1.721551667E-1,3.478316803E0,-7.942633209E0,1.253493347E0,8.761013392E0
1.821621667E-1,3.543730774E0,-8.123756561E0,1.016536102E0,8.921143094E0
1.921733333E-1,3.561394043E0,-8.116421814E0,7.638615417E-1,8.896252865E0
2.021813333E-1,3.684587860E0,-7.946225739E0,5.572911072E-1,8.776631732E0
2.121893333E-1,4.101470947E0,-7.751630402E0,4.441264343E-1,8.781064064E0
2.221973333E-1,4.589755554E0,-7.676636353E0,3.867956543E-1,8.952441712E0
2.322053333E-1,5.023553467E0,-7.729177094E0,3.498225403E-1,9.224892617E0
2.422123333E-1,5.429808655E0,-7.904462585E0,2.547702026E-1,9.593136017E0
2.522203333E-1,5.793103180E0,-8.028704224E0,1.425036621E-1,9.901537419E0
2.622283333E-1,6.148314514E0,-8.077502747E0,1.013392639E-1,1.015175313E1
2.722363333E-1,6.559060364E0,-8.164172516E0,8.232879639E-3,1.047258581E1
2.822443333E-1,6.969357147E0,-8.223449249E0,-9.490264893E-2,1.077989161E1
2.922523333E-1,7.409142609E0,-8.266260223E0,-1.713935852E-1,1.110206413E1
3.022593333E-1,7.861950989E0,-8.291856995E0,-2.615061951E-1,1.142950354E1
3.122673333E-1,8.422535248E0,-8.271199951E0,-4.029620361E-1,1.181161407E1
3.222753333E-1,9.052126007E0,-8.016280060E0,-4.810995483E-1,1.210095814E1
3.322833333E-1,9.392518158E0,-7.943830719E0,-4.396357727E-1,1.230922920E1
3.422913333E-1,9.458680573E0,-8.154143372E0,-4.266128540E-1,1.249554684E1
3.522993333E-1,9.418264618E0,-8.349636841E0,-5.607339478E-1,1.259899069E1
3.623063333E-1,9.430988159E0,-8.207731934E0,-9.466314697E-1,1.253820212E1
3.723143333E-1,9.336983643E0,-7.775430908E0,-1.198557587E0,1.220955075E1
3.823223333E-1,9.365125122E0,-7.544461212E0,-1.263522491E0,1.209218560E1
3.923303333E-1,9.688602448E0,-7.647596741E0,-1.252894592E0,1.240663122E1
4.023383333E-1,1.027208908E1,-7.965385895E0,-1.357377319E0,1.306926393E1
4.123463333E-1,1.094658646E1,-8.355774078E0,-1.497336273E0,1.385239082E1
4.223533333E-1,1.136661301E1,-8.588839417E0,-1.395547943E0,1.431487366E1
4.323613333E-1,1.097113541E1,-8.569828949E0,-7.595205688E-1,1.394218963E1
4.423693333E-1,9.769284668E0,-8.300838318E0,-3.592529297E-2,1.281967747E1
4.523773333E-1,8.506061554E0,-7.978558502E0,2.118095398E-1,1.166427633E1
4.623853333E-1,7.415878601E0,-7.685767365E0,5.673202515E-2,1.068033211E1
4.723933333E-1,6.536457367E0,-7.526947632E0,-2.103126526E-1,9.971180821E0
4.824003333E-1,5.997278595E0,-7.624245300E0,-3.124003601E-1,9.705362483E0
4.924083333E-1,5.823939056E0,-7.943980408E0,-2.939886475E-1,9.854517755E0
5.024163333E-1,5.757776642E0,-8.350684662E0,-1.381626892E-1,1.014421092E1
5.124243333E-1,5.502856750E0,-8.725804596E0,2.121089172E-1,1.031824057E1
5.224323333E-1,5.167254639E0,-9.144034882E0,5.174739075E-1,1.051578212E1
5.324403333E-1,4.858895874E0,-9.690398712E0,7.580236816E-1,1.086679788E1
5.424473333E-1,4.598886566E0,-1.021640488E1,9.683363342E-1,1.124554852E1
5.524553333E-1,4.395609283E0,-1.066157913E1,1.158141632E0,1.159016577E1
5.624633333E-1,4.262236633E0,-1.092203751E1,1.161883850E0,1.178166111E1
5.724713333E-1,4.083807678E0,-1.074061478E1,9.122030640E-1,1.152694259E1
5.824793333E-1,3.919449463E0,-1.028855484E1,4.929249573E-1,1.102086293E1
5.924863333E-1,3.844305725E0,-9.792486420E0,1.781295776E-2,1.052006626E1
6.024943333E-1,3.778442688E0,-9.263336792E0,-2.869532776E-1,1.000841545E1
6.125023333E-1,3.617377625E0,-8.652457123E0,-3.616479492E-1,9.385159795E0
6.225103333E-1,3.422482910E0,-7.840994568E0,-1.607656860E-1,8.556893752E0
6.325183333E-1,3.309018860E0,-6.964567108E0,7.484436035E-4,7.710693962E0
6.425263333E-1,3.313359833E0,-6.211782532E0,-1.579216003E-1,7.041983729E0
6.525333333E-1,3.373983765E0,-5.601651306E0,-3.468287659E-1,6.548477227E0
6.625413333E-1,3.454366608E0,-4.993166656E0,-4.510121155E-1,6.088330957E0
6.725493333E-1,3.488196259E0,-4.503385162E0,-5.507048035E-1,5.722872254E0
6.825573333E-1,3.510799255E0,-4.304299164E0,-6.885681152E-1,5.597037498E0
6.925653333E-1,3.554807739E0,-4.483626251E0,-8.276289368E-1,5.781395340E0
7.025733333E-1,3.493884430E0,-4.753215637E0,-9.868977356E-1,5.981158286E0
7.125803333E-1,3.286864929E0,-4.906796265E0,-1.118773499E0,6.010972033E0
7.225883333E-1,3.023712158E0,-5.143753510E0,-1.121168518E0,6.071083448E0
7.325963333E-1,2.981499939E0,-5.622308350E0,-1.337468719E0,6.502962067E0
7.426043333E-1,3.273542633E0,-6.020480347E0,-1.506018219E0,7.016434697E0
7.526123333E-1,3.505709839E0,-6.221961365E0,-1.382225647E0,7.274156476E0
7.626203333E-1,3.736080780E0,-6.435118103E0,-1.147513733E0,7.528999426E0
7.726273333E-1,4.089046783E0,-6.693780212E0,-8.881031799E-1,7.894030934E0
7.826353333E-1,4.549040222E0,-6.882537689E0,-5.340893555E-1,8.267305693E0
7.926433333E-1,5.033732300E0,-6.912475433E0,-2.168989563E-1,8.553819184E0
8.026513333E-1,5.647156677E0,-6.909032593E0,8.681945801E-3,8.923294531E0
8.126593333E-1,6.491401062E0,-6.984326019E0,2.188449097E-1,9.537661704E0
8.226673333E-1,7.453151093E0,-7.026388550E0,3.968247986E-1,1.025071057E1
8.326743333E-1,8.255332947E0,-6.990762634E0,5.089416504E-1,1.082960322E1
8.426823333E-1,9.070837097E0,-6.943610687E0,4.182302856E-1,1.143104245E1
8.526903333E-1,9.948611755E0,-7.144193573E0,3.487747192E-2,1.224808532E1
8.626983333E-1,1.079779587E1,-7.248526611E0,-4.784051514E-1,1.301393119E1
8.727063333E-1,1.134146530E1,-6.993606720E0,-1.422192535E0,1.340007469E1
8.827143333E-1,1.157617722E1,-6.649472351E0,-2.396067352E0,1.356335136E1
8.927213333E-1,1.179023209E1,-6.299051056E0,-3.098706207E0,1.372186565E1
9.027293333E-1,1.209799210E1,-5.844745789E0,-3.974385223E0,1.401135982E1
9.127373333E-1,1.269629791E1,-5.705086212E0,-4.860841827E0,1.474353325E1
9.227453333E-1,1.384276382E1,-6.183790741E0,-5.245691528E0,1.604302521E1
9.327533333E-1,1.507021133E1,-7.326065369E0,-5.124293976E0,1.752258235E1
9.427613333E-1,1.525567566E1,-8.814570007E0,-4.493056641E0,1.818295472E1
9.527683333E-1,1.394679749E1,-9.814191284E0,-2.956052856E0,1.730808364E1
9.627763333E-1,1.233060837E1,-9.601333923E0,-1.232087860E0,1.567633747E1
9.727843333E-1,1.122725281E1,-8.974587250E0,-4.231700134E-1,1.437962081E1
9.827923333E-1,1.051099228E1,-7.844138031E0,-5.249583435E-1,1.312581584E1
9.928003333E-1,9.904752960E0,-6.810836792E0,-4.403842163E-1,1.202853138E1
1.002808333E0,9.149723053E0,-6.258036346E0,9.729766846E-2,1.108557250E1
1.012815333E0,8.261919250E0,-5.847589874E0,9.201365662E-1,1.016367396E1
1.022823333E0,7.532486115E0,-5.740861816E0,1.616488495E0,9.607750856E0
1.032831333E0,6.873855743E0,-5.973777466E0,1.924398193E0,9.308019037E0
1.042839333E0,6.311325531E0,-6.420897675E0,1.929936676E0,9.207899461E0
1.052847333E0,5.809718628E0,-6.867119751E0,1.884580994E0,9.190310644E0
1.062855333E0,5.189857635E0,-7.278464355E0,1.925595703E0,9.144319792E0
1.072862333E0,4.536017303E0,-7.523355103E0,1.981130219E0,9.005620574E0
1.082870333E0,4.031117249E0,-7.624394989E0,2.040556641E0,8.862571671E0
1.092878333E0,3.703298950E0,-7.667056274E0,2.000440063E0,8.746424154E0
1.102886333E0,3.544479218E0,-7.624095612E0,1.833836517E0,8.605412436E0
1.112894333E0,3.450774078E0,-7.588469696E0,1.595532074E0,8.487545974E0
1.122902333E0,3.403023376E0,-7.543114014E0,1.416504364E0,8.395571555E0
1.132909333E0,3.400029602E0,-7.403454437E0,1.254990234E0,8.242956957E0
1.142917333E0,3.503763885E0,-7.247478790E0,1.237776031E0,8.144593279E0
1.152925333E0,3.574566650E0,-7.125033417E0,1.293460236E0,8.075683705E0
1.162933333E0,3.505260773E0,-7.003486176E0,1.346300354E0,7.946583941E0
1.172941333E0,3.472778320E0,-6.866221619E0,1.308279419E0,7.804920475E0
1.182949333E0,3.542682953E0,-6.847809906E0,1.164727936E0,7.797415865E0
1.192953417E0,3.610042877E0,-6.947053528E0,9.000782776E-1,7.880615661E0
1.202961417E0,3.584446106E0,-6.966662750E0,5.960604858E-1,7.857348908E0
1.212969417E0,3.638034668E0,-6.910379791E0,4.589456177E-1,7.822996624E0
1.222977417E0,4.001628571E0,-6.936874695E0,5.682183838E-1,8.028457752E0
1.232985417E0,4.397106171E0,-6.993007965E0,8.068222046E-1,8.299859345E0
1.242993417E0,4.708458710E0,-7.090754700E0,9.610015869E-1,8.565740463E0
1.253000417E0,5.090614014E0,-7.193590851E0,9.116043091E-1,8.859634461E0
1.263008417E0,5.405259705E0,-7.259304199E0,7.159611511E-1,9.078927817E0
1.273016417E0,5.596262512E0,-7.231162720E0,5.168751526E-1,9.158331087E0
1.283024417E0,5.748945007E0,-7.148983612E0,2.986289978E-1,9.178644489E0
1.293032417E0,5.892646179E0,-7.104226685E0,9.759704590E-2,9.230538498E0
1.303040417E0,5.955665131E0,-7.092101898E0,-2.320175171E-2,9.261122762E0
1.313047417E0,6.008355560E0,-7.095993805E0,-6.077362061E-2,9.298234136E0
1.323055417E0,6.069877625E0,-7.162455597E0,-6.062393188E-2,9.388709167E0
1.333063417E0,6.092330933E0,-7.254065094E0,-9.684860229E-2,9.473507071E0
1.343071417E0,6.110443268E0,-7.338190155E0,-1.113684082E-1,9.549814375E0
1.353079417E0,6.161337433E0,-7.389383698E0,-4.984634399E-2,9.621203410E0
1.363087417E0,6.240971832E0,-7.354057159E0,-8.981323242E-3,9.645308019E0
1.373094417E0,6.334826660E0,-7.315736847E0,1.275347900E-1,9.678135128E0
1.383102417E0,6.560706940E0,-7.406747589E0,2.950364685E-1,9.898981357E0
1.393110417E0,6.852599945E0,-7.569159851E0,4.385879517E-1,1.021971948E1
1.403118417E0,7.116052094E0,-7.723339233E0,5.080435181E-1,1.051409885E1
1.413126417E0,7.349416809E0,-7.780071259E0,4.128414917E-1,1.071045631E1
1.423134417E0,7.551945648E0,-7.735613708E0,2.478845215E-1,1.081355858E1
1.433141417E0,7.809260559E0,-7.614066467E0,1.025367737E-1,1.090729446E1
1.443149417E0,8.142767029E0,-7.521558838E0,4.131408691E-2,1.108513460E1
1.453157417E0,8.566835175E0,-7.675438843E0,2.185455322E-2,1.150232602E1
1.463165417E0,9.131610718E0,-8.197253723E0,-1.167572021E-2,1.227116210E1
1.473173417E0,9.879156189E0,-8.995393982E0,-6.227050781E-2,1.336108968E1
1.483181417E0,1.063313828E1,-9.809700623E0,-1.360670471E-1,1.446763181E1
1.493189417E0,1.121872055E1,-1.030921188E1,-1.520837402E-1,1.523688518E1
1.503196417E0,1.141511215E1,-1.029813492E1,-1.342707825E-1,1.537447225E1
1.513204417E0,1.091634933E1,-9.743238831E0,-1.835183716E-1,1.463321785E1
1.523212417E0,9.923314362E0,-9.095835114E0,-3.489244080E-1,1.346581348E1
1.533220417E0,8.940308533E0,-8.346493378E0,-4.587959290E-1,1.223942654E1
1.543228417E0,8.064479828E0,-7.819140015E0,-5.201683044E-1,1.124479260E1
1.553236417E0,7.489675140E0,-7.571554871E0,-4.387376404E-1,1.065908850E1
1.563243417E0,7.039860535E0,-7.522606659E0,-3.664379883E-1,1.030939009E1
1.573251417E0,6.743177490E0,-7.791447601E0,-3.730242920E-1,1.031097694E1
1.583259417E0,6.357878723E0,-7.843988342E0,-4.345463562E-1,1.010641408E1
1.593267417E0,5.977819061E0,-7.937094727E0,-4.709207153E-1,9.947540387E0
1.603275417E0,5.568270721E0,-8.217461700E0,-4.330494690E-1,9.935786203E0
1.613283417E0,5.276677094E0,-8.537945251E0,-2.272274780E-1,1.003949514E1
1.623290417E0,5.032085724E0,-8.870703278E0,4.041595459E-2,1.019867133E1
1.633298417E0,4.738246765E0,-8.984017639E0,-1.685494995E-1,1.015834456E1
1.643306417E0,4.458628235E0,-9.866432648E0,3.643423462E-1,1.083321763E1
1.653314417E0,4.207300873E0,-1.019230499E1,7.776329041E-1,1.105392123E1
1.663322417E0,3.967948608E0,-1.075034454E1,1.391356659E0,1.154341359E1
1.673330417E0,3.851939850E0,-1.082294357E1,1.684596863E0,1.161083179E1
1.683337417E0,3.601959686E0,-1.038166122E1,1.503922577E0,1.109120311E1
1.693345417E0,3.295696564E0,-9.659263458E0,1.021924896E0,1.025706181E1
1.703353417E0,3.299588470E0,-8.937314758E0,4.903802490E-1,9.539567703E0
1.713361417E0,3.423231354E0,-8.284073181E0,1.844165039E-1,8.965399646E0
1.723369417E0,3.328927460E0,-7.561226349E0,3.055146790E-1,8.267239028E0
1.733377417E0,3.242407379E0,-6.819518738E0,1.332229614E-1,7.552270505E0
1.743385417E0,3.233575745E0,-6.068231049E0,-3.638932800E-1,6.885626949E0
1.753392417E0,3.493734741E0,-5.533842316E0,-9.906399536E-1,6.618984872E0
1.763400417E0,3.840563507E0,-5.361999664E0,-1.360371094E0,6.734358022E0
1.773408417E0,4.042343903E0,-5.374573517E0,-1.341210938E0,6.857509132E0
1.783416417E0,4.197122040E0,-5.486091614E0,-1.223256226E0,7.014940513E0
1.793424417E0,4.334087219E0,-5.658682709E0,-1.301543427E0,7.245620561E0
1.803432417E0,4.427193604E0,-5.964347076E0,-1.507215729E0,7.579259760E0
1.813439417E0,4.327800293E0,-5.975424042E0,-1.731599121E0,7.578521186E0
1.823447417E0,4.135150909E0,-5.826034698E0,-1.861079865E0,7.382802423E0
1.833455417E0,3.872447205E0,-5.658832397E0,-1.761985931E0,7.079747586E0
1.843463417E0,3.788920898E0,-5.649851074E0,-1.605261841E0,6.989535343E0
1.853471417E0,3.962260437E0,-5.788762207E0,-1.467847595E0,7.166857904E0
1.863479417E0,4.094136200E0,-5.926924896E0,-1.218615875E0,7.305847973E0
1.873486417E0,4.258344727E0,-6.132746887E0,-9.753717041E-1,7.529637053E0
1.883494417E0,4.594096527E0,-6.426885223E0,-7.888595581E-1,7.939324655E0
1.893502417E0,4.995112610E0,-6.715485077E0,-6.012995911E-1,8.391093552E0
1.903510417E0,5.498665466E0,-6.850653992E0,-4.020639038E-1,8.793658932E0
1.913518417E0,6.092031555E0,-6.844816132E0,-2.592608643E-1,9.166873651E0
1.923526417E0,6.620283051E0,-6.714287567E0,-1.719923401E-1,9.430768079E0
1.933534417E0,7.118147736E0,-6.571334839E0,-1.125659180E-1,9.688299120E0
1.943541417E0,7.696245575E0,-6.563401337E0,-5.149291992E-2,1.011499306E1
1.953549417E0,8.268056488E0,-6.655310211E0,-1.422042847E-2,1.061386425E1
1.963557417E0,8.808582458E0,-6.701863403E0,2.454895020E-2,1.106827451E1
1.973565417E0,9.382788391E0,-6.536307678E0,1.469943237E-1,1.143598021E1
1.983573417E0,9.714648285E0,-6.265670471E0,1.987866211E-1,1.156168387E1
1.993581417E0,9.750723267E0,-6.011948090E0,1.368154907E-1,1.145595228E1
2.003588417E0,9.838141479E0,-5.935008087E0,2.933898926E-2,1.148974367E1
2.013596417E0,9.986932068E0,-5.925128632E0,-1.445993042E-1,1.161321964E1
2.023604417E0,1.037597305E1,-5.993386688E0,-4.444258118E-1,1.199078876E1
2.033612417E0,1.111064529E1,-6.545887756E0,-6.749464417E-1,1.291319628E1
2.043620417E0,1.219199661E1,-7.405101013E0,-8.836125183E-1,1.429199334E1
2.053628417E0,1.353680008E1,-8.228688354E0,-1.068328400E0,1.587758149E1
2.063636417E0,1.471799377E1,-8.833430786E0,-1.251397705E0,1.721089296E1
2.073643417E0,1.471574844E1,-8.986562347E0,-1.248852997E0,1.728789140E1
2.083651417E0,1.276186157E1,-8.662935333E0,-1.342857513E0,1.548272669E1
2.093659417E0,1.012344818E1,-7.625293121E0,-1.838027802E0,1.280654694E1
2.103667417E0,8.056995392E0,-6.285130005E0,-2.395318909E0,1.049550316E1
2.113675417E0,6.659052429E0,-5.404211884E0,-2.348616028E0,8.891821106E0
2.123683417E0,5.951473846E0,-4.998256073E0,-1.794917450E0,7.976486280E0
2.133690417E0,5.833369446E0,-5.139113159E0,-1.194216614E0,7.865420299E0
2.143698417E0,6.147566071E0,-5.869893494E0,-5.405259705E-1,8.517064432E0
2.153706417E0,6.718927917E0,-6.760990448E0,2.200424194E-1,9.534327604E0
2.163714417E0,7.169191589E0,-7.532186737E0,9.309141541E-1,1.044019857E1
2.173722417E0,7.291187897E0,-8.288863220E0,1.376088409E0,1.112476039E1
2.183730417E0,7.101981354E0,-9.058263245E0,1.683399353E0,1.163288896E1
2.193737667E0,6.899901581E0,-9.836345215E0,1.947749634E0,1.217193730E1
2.203744667E0,6.581214294E0,-1.035561539E1,2.082768860E0,1.244544406E1
2.213752667E0,6.095624084E0,-1.080108902E1,2.081122284E0,1.257581914E1
2.223760667E0,5.497168579E0,-1.119641693E1,2.124532013E0,1.265275665E1
2.233768667E0,4.847669220E0,-1.131167725E1,2.269730072E0,1.251421646E1
2.243776667E0,4.364174652E0,-1.115689911E1,2.340383148E0,1.220654789E1
2.253784667E0,3.994742889E0,-1.067579956E1,2.162702637E0,1.160206661E1
2.263791667E0,3.704047394E0,-1.002151016E1,1.811233521E0,1.083656772E1
2.273799667E0,3.678001556E0,-9.493558044E0,1.278790741E0,1.026112302E1
2.283807667E0,3.576213226E0,-8.997339935E0,7.372169495E-1,9.710042007E0
2.293815667E0,3.490441589E0,-8.513995056E0,3.614982605E-1,9.208798798E0
2.303823667E0,3.560046844E0,-8.076305237E0,1.498384094E-1,8.827405698E0
2.313831667E0,3.744313660E0,-7.725883942E0,-8.382568359E-3,8.585408419E0
2.323839667E0,3.924389191E0,-7.508236542E0,-1.582209778E-1,8.473457403E0
2.333846667E0,4.069587250E0,-7.482939148E0,-2.418969727E-1,8.521410260E0
2.343854667E0,4.146976318E0,-7.540120239E0,-5.044509888E-2,8.605426806E0
2.353862667E0,4.255350952E0,-7.718848572E0,4.879852295E-2,8.814250751E0
2.363870667E0,4.298161926E0,-7.998317413E0,6.840774536E-2,9.080305998E0
2.373878667E0,4.245471497E0,-8.269403687E0,1.083746338E-1,9.296171826E0
2.383886667E0,4.104913788E0,-8.710236969E0,1.493893433E-1,9.630205732E0
2.393894667E0,3.860472107E0,-8.878187714E0,1.481918335E-1,9.682325278E0
2.403901667E0,3.712429962E0,-8.854237518E0,2.999761963E-1,9.605708926E0
2.413909667E0,3.694167938E0,-8.820407867E0,6.194119263E-1,9.582804539E0
2.423917667E0,3.783083038E0,-8.621770935E0,7.914042664E-1,9.448437545E0
2.433925667E0,3.836372223E0,-8.390801239E0,7.448510742E-1,9.256246560E0
2.443933667E0,4.038751373E0,-8.184081116E0,4.834945679E-1,9.139171919E0
2.453941667E0,4.436174927E0,-8.096363525E0,1.413061523E-1,9.233131524E0
2.463948667E0,4.808750153E0,-8.069269867E0,-1.935475159E-1,9.395459268E0
2.473956667E0,5.170847168E0,-8.053702240E0,-5.078938293E-1,9.584244172E0
2.483964667E0,5.562732239E0,-7.988288269E0,-6.750961304E-1,9.757688979E0
2.493972667E0,5.884113922E0,-7.905959473E0,-5.360353088E-1,9.869869588E0
2.503980667E0,6.174959106E0,-7.842042389E0,7.858657837E-2,9.981679450E0
2.513988667E0,6.428082733E0,-7.957602081E0,6.996450806E-1,1.025344731E1
2.523996667E0,6.576124878E0,-8.302784271E0,1.456620941E0,1.069127633E1
2.534003667E0,6.470594330E0,-8.634494476E0,1.996248779E0,1.097306224E1
2.544011667E0,6.279142456E0,-8.881480865E0,2.293081512E0,1.111604944E1
2.554019667E0,5.909710693E0,-8.712781677E0,2.313289490E0,1.077907943E1
2.564027667E0,5.445525970E0,-8.338709564E0,2.078727264E0,1.017393421E1
2.574035667E0,5.023403778E0,-8.261470184E0,1.956581268E0,9.864820596E0
2.584043667E0,4.766687622E0,-8.264613647E0,2.005379791E0,9.749189594E0
2.594051667E0,4.462370453E0,-8.257129211E0,2.030976563E0,9.603009876E0
2.604058667E0,4.195325775E0,-8.300389252E0,2.092947693E0,9.532976982E0
2.614066667E0,3.985761566E0,-8.321645050E0,2.198178864E0,9.485149546E0
2.624074667E0,3.882476349E0,-8.437953186E0,2.286345520E0,9.565565974E0
2.634082667E0,3.934418335E0,-8.645870819E0,2.468816071E0,9.814569916E0
2.644090667E0,4.136797485E0,-8.739426270E0,2.764600983E0,1.005652443E1
2.654098667E0,4.325854340E0,-8.868907013E0,3.019071808E0,1.031917254E1
2.664106667E0,4.500990143E0,-9.078022156E0,3.169209595E0,1.061665145E1
2.674113667E0,4.867577820E0,-9.350006561E0,3.379522247E0,1.106964801E1
2.684121667E0,5.240751801E0,-9.604776764E0,3.591930542E0,1.151604017E1
2.694129667E0,5.562881927E0,-9.887838135E0,3.754642181E0,1.195041155E1
2.704137667E0,5.943540344E0,-1.020802231E1,3.906127167E0,1.244135124E1
2.714145667E0,6.348747711E0,-1.046608566E1,4.057462463E0,1.289606716E1
2.724153667E0,6.664291534E0,-1.063418610E1,4.135001221E0,1.321351318E1
2.734161667E0,6.755002899E0,-1.065169968E1,4.004921722E0,1.323359997E1
2.744168667E0,6.665189667E0,-1.061173279E1,3.833677826E0,1.310460651E1
2.754176667E0,6.543492737E0,-1.034378998E1,3.900588684E0,1.284623993E1
2.764184667E0,6.289321289E0,-9.810598755E0,3.872746582E0,1.228012933E1
2.774192667E0,6.005062408E0,-9.179511108E0,3.641178131E0,1.155778426E1
2.784200667E0,5.822292480E0,-8.737929382E0,3.333867188E0,1.101658613E1
2.794208667E0,5.870492249E0,-8.345295868E0,3.060535583E0,1.065239506E1
2.804216667E0,5.957461395E0,-8.033643951E0,2.743045807E0,1.037087661E1
2.814223667E0,6.170318756E0,-7.921676788E0,2.559976501E0,1.036239723E1
2.824231667E0,6.399342499E0,-7.717201996E0,2.407443695E0,1.031031407E1
2.834239667E0,6.772217102E0,-7.436086578E0,2.255659332E0,1.030758493E1
2.844247667E0,6.969955902E0,-7.248227234E0,1.995650024E0,1.025181459E1
2.854255667E0,7.100185089E0,-7.018155670E0,1.606758728E0,1.011181541E1
2.864263667E0,7.095993805E0,-6.694079590E0,1.236728210E0,9.833276478E0
2.874271667E0,7.091952209E0,-6.438261566E0,8.707392883E-1,9.617961585E0
2.884278667E0,7.180418243E0,-6.344257050E0,5.063969421E-1,9.595021705E0
2.894286667E0,7.320077820E0,-6.265071716E0,1.193019104E-1,9.635813191E0
2.904294667E0,7.512427826E0,-6.129004669E0,-9.325607300E-2,9.695873698E0
2.914302667E0,7.867040405E0,-5.937253418E0,-4.158352661E-1,9.864797102E0
2.924310667E0,8.367898865E0,-5.687872009E0,-1.013242950E0,1.016859286E1
2.934318667E0,8.686735840E0,-5.406457214E0,-1.652413788E0,1.036434419E1
2.944326667E0,8.859925690E0,-5.056035919E0,-2.247276764E0,1.044567065E1
2.954333667E0,8.856632538E0,-4.727169800E0,-2.961441650E0,1.046691028E1
2.964341667E0,8.632698212E0,-4.463418274E0,-3.614832916E0,1.036882819E1
2.974349667E0,8.145611115E0,-4.461472321E0,-3.849993896E0,1.005376391E1
2.984357667E0,7.663314056E0,-4.754263458E0,-3.486699371E0,9.668840461E0
2.994365667E0,7.367828522E0,-5.237758026E0,-2.779420166E0,9.457493469E0
3.004373667E0,7.179220734E0,-5.733826447E0,-1.935475159E0,9.389570818E0
3.014381667E0,7.110663300E0,-6.096372528E0,-1.309327240E0,9.457358425E0
3.024388667E0,7.012467499E0,-6.348747711E0,-9.107061768E-1,9.503193340E0
3.034396667E0,6.848558350E0,-6.465654602E0,-6.370751953E-1,9.439984412E0
3.044404667E0,6.703210602E0,-6.447242889E0,-3.980223083E-1,9.309049092E0
3.054412667E0,6.519841919E0,-6.432124329E0,-2.628533936E-1,9.162404375E0
3.064420667E0,6.414910126E0,-6.516997833E0,-4.116439819E-1,9.153785198E0
3.074428667E0,6.411467285E0,-6.579118652E0,-8.379574585E-1,9.224634827E0
3.084436667E0,6.412814484E0,-6.614445190E0,-1.235231323E0,9.295206894E0
3.094443667E0,6.399192810E0,-6.618786163E0,-1.475032654E0,9.323825407E0
3.104451667E0,6.359674988E0,-6.566245422E0,-1.663939819E0,9.291379909E0
3.114459667E0,6.351292419E0,-6.536457367E0,-1.892664185E0,9.308403087E0
3.124467667E0,6.430328064E0,-6.585255890E0,-2.211650848E0,9.466050582E0
3.134475667E0,6.484216003E0,-6.678661652E0,-2.571203156E0,9.657156119E0
3.144483667E0,6.489904175E0,-6.760541382E0,-2.949167175E0,9.824528640E0
3.154491667E0,6.449637909E0,-6.787485352E0,-3.347339172E0,9.943463486E0
3.164499667E0,6.357729034E0,-6.863227844E0,-3.723207550E0,1.006910569E1
3.174506667E0,6.243965607E0,-6.942413177E0,-3.961961060E0,1.014304405E1
3.184514667E0,6.225553894E0,-6.979086914E0,-4.062252502E0,1.019642441E1
3.194523583E0,6.240971832E0,-7.005731506E0,-4.064198456E0,1.022485758E1
3.204531583E0,6.267766113E0,-6.950646057E0,-3.968547363E0,1.016591072E1
3.214539583E0,6.284082184E0,-6.882238312E0,-3.807781677E0,1.006747706E1
3.224547583E0,6.289620667E0,-6.778204651E0,-3.617227936E0,9.929135126E0
3.234555583E0,6.383026428E0,-6.786287842E0,-3.523971863E0,9.960678026E0
3.244562583E0,6.556964722E0,-6.772666168E0,-3.542682953E0,1.007042183E1
3.254570583E0,6.702013092E0,-6.708749084E0,-3.564836884E0,1.013076284E1
3.264578583E0,6.784042511E0,-6.604266357E0,-3.669469299E0,1.015404214E1
3.274586583E0,6.881938934E0,-6.626270599E0,-3.765719147E0,1.026884542E1
3.284594583E0,6.882537689E0,-6.594237213E0,-3.849544830E0,1.027970257E1
3.294602583E0,6.809788971E0,-6.599476318E0,-3.964056702E0,1.027813500E1
3.304610583E0,6.906188507E0,-6.735094299E0,-4.123774567E0,1.049106532E1
3.314618583E0,7.048991547E0,-6.956932983E0,-4.222269745E0,1.076637173E1
3.324625583E0,7.123686218E0,-7.252717896E0,-4.123026123E0,1.097033120E1
3.334633583E0,7.165599060E0,-7.587272186E0,-3.707041168E0,1.107495658E1
3.344641583E0,7.234006805E0,-8.018226013E0,-3.243904266E0,1.127589100E1
3.354649583E0,7.388635254E0,-8.501421204E0,-2.773731995E0,1.159998632E1
3.364657583E0,7.474406891E0,-8.853040009E0,-2.252964935E0,1.180334388E1
3.374665583E0,7.402107239E0,-9.048533478E0,-1.811682587E0,1.183001874E1
3.384673583E0,7.194488983E0,-9.089997253E0,-1.451980591E0,1.168319175E1
3.394680583E0,6.955885162E0,-9.079519043E0,-1.158141632E0,1.149622966E1
3.404688583E0,6.847809906E0,-9.083860016E0,-9.738748169E-1,1.141741851E1
3.414696583E0,6.913373566E0,-8.957373047E0,-1.019829254E0,1.136086782E1
3.424704583E0,7.048093414E0,-8.554411011E0,-1.515598297E0,1.118707320E1
3.434712583E0,7.292834473E0,-7.971373444E0,-2.116299133E0,1.100940286E1
3.444720583E0,7.372468872E0,-7.446115723E0,-2.404749298E0,1.075084907E1
3.454728583E0,7.197931824E0,-6.938521271E0,-2.147135010E0,1.022562901E1
3.464736583E0,6.958280182E0,-6.624025269E0,-1.578617249E0,9.735882408E0
3.474743583E0,6.804400177E0,-6.293362885E0,-1.015637970E0,9.324044115E0
3.484751583E0,6.603817291E0,-5.997128906E0,-4.207749939E-1,8.930454049E0
3.494759583E0,6.522087250E0,-5.955814819E0,8.367599487E-2,8.832686677E0
3.504767583E0,6.555018768E0,-6.057154083E0,5.378315735E-1,8.941289026E0
3.514775583E0,6.627917175E0,-6.145320740E0,8.422984314E-1,9.077649460E0
3.524783583E0,6.577921143E0,-6.221362610E0,8.936416626E-1,9.097966515E0
3.534791583E0,6.584507446E0,-6.321803741E0,7.688012695E-1,9.160349134E0
3.544798583E0,6.646478577E0,-6.473588104E0,4.730163574E-1,9.290143427E0
3.554806583E0,6.580765228E0,-6.574777679E0,1.579216003E-1,9.303714944E0
3.564814583E0,6.482120361E0,-6.640341339E0,3.667373657E-2,9.279728576E0
3.574822583E0,6.455326080E0,-6.693630524E0,1.408570862E-1,9.300309947E0
3.584830583E0,6.386768646E0,-6.686894531E0,2.912942505E-1,9.251498503E0
3.594838583E0,6.313121796E0,-6.654861145E0,5.013075256E-1,9.186620320E0
3.604846583E0,6.292614441E0,-6.679260406E0,7.185058594E-1,9.204660056E0
3.614854583E0,6.225553894E0,-6.581363983E0,8.770262146E-1,9.101705782E0
3.624861583E0,6.157744904E0,-6.536906433E0,9.660910034E-1,9.032292059E0
3.634869583E0,6.039640503E0,-6.469845886E0,9.708810425E-1,8.903862824E0
3.644877583E0,5.945336609E0,-6.369404755E0,9.394464111E-1,8.763498381E0
3.654885583E0,5.874533844E0,-6.201154633E0,8.584648132E-1,8.584953611E0
3.664893583E0,5.817801819E0,-6.146667938E0,7.602690125E-1,8.497432184E0
3.674901583E0,5.750741272E0,-6.116730194E0,6.701564026E-1,8.422263535E0
3.684909583E0,5.682034149E0,-6.048023071E0,6.444099426E-1,8.323422332E0
3.694916583E0,5.700296173E0,-6.071374512E0,6.563850403E-1,8.353789933E0
3.704924583E0,5.800288239E0,-6.217620392E0,6.656657410E-1,8.529083061E0
3.714932583E0,5.935307465E0,-6.379733276E0,6.828799438E-1,8.740434566E0
3.724940583E0,6.122568054E0,-6.541696472E0,7.048841858E-1,8.987574424E0
3.734948583E0,6.270161133E0,-6.727160797E0,7.415579224E-1,9.226024126E0
3.744956583E0,6.375392303E0,-6.894662476E0,7.476951599E-1,9.420246585E0
3.754964583E0,6.539002075E0,-7.007228394E0,7.577243042E-1,9.614257331E0
3.764972583E0,6.716682587E0,-7.140750732E0,7.878117371E-1,9.834876376E0
3.774979583E0,6.871311035E0,-7.215445404E0,7.961943054E-1,9.995573675E0
3.784987583E0,6.934329987E0,-7.253166962E0,6.997947693E-1,1.005897987E1
3.794995583E0,7.011120300E0,-7.278464355E0,5.423222351E-1,1.012057136E1
3.805003583E0,7.125931549E0,-7.318281555E0,4.550537109E-1,1.022463785E1
3.815011583E0,7.222780151E0,-7.371720428E0,3.306623840E-1,1.032570350E1
3.825019583E0,7.308701477E0,-7.417674866E0,2.248324585E-1,1.041583253E1
3.835027583E0,7.416627045E0,-7.474855957E0,1.426533508E-1,1.053091536E1
3.845035583E0,7.525600433E0,-7.588918762E0,6.481521606E-2,1.068786933E1
3.855042583E0,7.578889618E0,-7.684569855E0,-1.960922241E-2,1.079317220E1
3.865050583E0,7.648195496E0,-7.764054565E0,-5.418731689E-2,1.089854916E1
3.875058583E0,7.723039856E0,-7.861651611E0,-8.622070312E-2,1.102081416E1
3.885066583E0,7.782765656E0,-7.932154999E0,-1.034349060E-1,1.111311041E1
3.895074583E0,7.796387329E0,-7.969726868E0,-1.390608215E-1,1.114986725E1
3.905082583E0,7.845335541E0,-8.004454651E0,-2.011816406E-1,1.120986432E1
3.915090583E0,7.934849396E0,-8.165519714E0,-2.844085693E-1,1.138940013E1
3.925098583E0,8.090825043E0,-8.322842560E0,-3.257226562E-1,1.161194443E1
3.935105583E0,8.478967896E0,-8.644673309E0,-3.323089600E-1,1.211336875E1
3.945113583E0,8.922645264E0,-9.144184570E0,-3.101550293E-1,1.277990243E1
3.955121583E0,9.405990143E0,-9.630972290E0,-3.939807129E-1,1.346786912E1
3.965129583E0,9.869127045E0,-1.015548157E1,-4.689747620E-1,1.416874772E1
3.975137583E0,1.005923172E1,-1.048704208E1,-5.013075256E-1,1.454020301E1
3.985145583E0,9.926757202E0,-1.057356216E1,-4.905299377E-1,1.451142119E1
3.995153583E0,9.558073883E0,-1.043075912E1,-4.411326599E-1,1.415457913E1
4.005161583E0,8.966354370E0,-9.952353973E0,-4.249662781E-1,1.340244219E1
4.015168583E0,8.209677887E0,-9.266031189E0,-4.412823486E-1,1.238760974E1
4.025176583E0,7.411687317E0,-8.602012024E0,-4.902305603E-1,1.136521209E1
4.035184583E0,6.729705505E0,-8.105943604E0,-5.284011841E-1,1.054867128E1
4.045192583E0,6.139033813E0,-7.806566162E0,-5.427713013E-1,9.946095319E0
4.055200583E0,5.578150177E0,-7.520960083E0,-4.992118835E-1,9.377089766E0
4.065208583E0,5.141358490E0,-7.339687042E0,-4.670288086E-1,8.973443537E0
4.075216583E0,4.826862488E0,-7.275021515E0,-4.484674072E-1,8.742177219E0
4.085224583E0,4.606820068E0,-7.278164978E0,-3.463796997E-1,8.620583245E0
4.095231583E0,4.482279053E0,-7.532635803E0,-2.239343262E-1,8.768213856E0
4.105239583E0,4.342020721E0,-7.902366943E0,-1.312770081E-1,9.017637213E0
4.115247583E0,4.190685425E0,-8.481811981E0,4.176315308E-2,9.460693578E0
4.125255583E0,3.879183197E0,-8.843609619E0,2.185455322E-1,9.659464557E0
4.135263583E0,3.561094666E0,-8.991951141E0,1.893562317E-1,9.673284671E0
4.145271583E0,3.336112518E0,-9.066795502E0,1.065783691E-1,9.661665817E0
4.155279583E0,3.152145081E0,-9.058113556E0,5.209167480E-2,9.591045477E0
4.165287583E0,3.074756012E0,-9.045539703E0,-4.775070190E-2,9.553962172E0
4.175294583E0,3.068469086E0,-8.788524170E0,-1.246907043E-1,9.309629820E0
4.185302583E0,3.013982391E0,-8.364006958E0,1.302291870E-2,8.890493341E0
4.195310042E0,2.997217255E0,-7.898624725E0,6.122268677E-2,8.448392275E0
4.205318042E0,2.929258575E0,-7.564669189E0,-1.432521057E-1,8.113279048E0
4.215326042E0,2.863994293E0,-7.274123383E0,-6.556365967E-1,7.845074483E0
4.225334042E0,2.964585114E0,-6.647526398E0,-1.311422882E0,7.395823286E0
4.235342042E0,3.315305786E0,-5.926475830E0,-1.931433563E0,7.060085257E0
4.245350042E0,3.633693695E0,-5.791157227E0,-2.337688751E0,7.225373388E0
4.255358042E0,3.794758759E0,-5.854325867E0,-2.567011871E0,7.433900412E0
4.265365042E0,3.916156311E0,-5.927823029E0,-2.875520325E0,7.664462359E0
4.275373042E0,4.065545654E0,-5.998625793E0,-3.266956329E0,7.948910399E0
4.285381042E0,4.230652313E0,-6.024971008E0,-3.519181824E0,8.159861234E0
4.295389042E0,4.352349243E0,-6.056854706E0,-3.491489410E0,8.235225022E0
4.305397042E0,4.388873291E0,-6.062243500E0,-3.224444733E0,8.149236090E0
4.315405042E0,4.434827728E0,-6.024372253E0,-2.757116547E0,7.972606204E0
4.325413042E0,4.414320374E0,-5.894143066E0,-2.124981079E0,7.664378085E0
4.335421042E0,4.438719635E0,-5.884562988E0,-1.792821808E0,7.585810675E0
4.345428042E0,4.616100769E0,-5.958060150E0,-1.668280792E0,7.719457744E0
4.355436042E0,4.709057465E0,-5.878874817E0,-1.514700165E0,7.683144402E0
4.365444042E0,4.879253540E0,-5.872587891E0,-1.572330322E0,7.795295138E0
4.375452042E0,5.137167206E0,-5.865552521E0,-1.805695038E0,8.003482232E0
4.385460042E0,5.538033600E0,-5.880072327E0,-2.083367615E0,8.341791614E0
4.395468042E0,5.871989136E0,-5.915398865E0,-2.258054352E0,8.635450746E0
4.405476042E0,6.258934479E0,-6.113736420E0,-2.413730621E0,9.076239823E0
4.415484042E0,6.748416595E0,-6.297105103E0,-2.543959808E0,9.574256667E0
4.425491042E0,7.325915680E0,-6.528523865E0,-2.729424133E0,1.018530414E1
4.435499042E0,7.922275543E0,-6.751709747E0,-2.970422974E0,1.082457606E1
4.445507042E0,8.577463074E0,-6.889123993E0,-3.190016327E0,1.145465435E1
4.455515042E0,9.452543335E0,-7.081773376E0,-3.355721741E0,1.227855684E1
4.465523042E0,1.026924500E1,-7.111561432E0,-3.464545441E0,1.296282276E1
4.475531042E0,1.077459412E1,-6.968758392E0,-3.621119843E0,1.333296594E1
4.485539042E0,1.092757599E1,-6.409820709E0,-3.838767242E0,1.323759240E1
4.495547042E0,1.099583405E1,-5.666316833E0,-3.689826965E0,1.290853732E1
4.505555042E0,1.074151291E1,-5.332510986E0,-3.201991425E0,1.241243417E1
4.515562042E0,1.057311310E1,-5.882617035E0,-2.565514984E0,1.236841829E1
4.525570042E0,1.095886093E1,-6.237079926E0,-2.149829407E0,1.279138637E1
4.535578042E0,1.154219788E1,-6.725663910E0,-2.133962402E0,1.352814408E1
4.545586042E0,1.248568588E1,-7.807913361E0,-1.913919983E0,1.484988056E1
4.555594042E0,1.296693512E1,-9.154363403E0,-1.519190826E0,1.594527254E1
4.565602042E0,1.266216888E1,-1.024110352E1,-1.218615875E0,1.633082199E1
4.575610042E0,1.197300201E1,-1.043809387E1,-1.174906769E0,1.592755433E1
4.585618042E0,1.102472397E1,-9.949958954E0,-1.172811127E0,1.489703688E1
4.595626042E0,9.967173157E0,-9.070238342E0,-1.187779999E0,1.352865794E1
4.605633042E0,9.004075928E0,-8.000712433E0,-1.157542877E0,1.210060694E1
4.615641042E0,8.030650177E0,-7.127727814E0,-9.505233765E-1,1.077957980E1
4.625649042E0,7.060517578E0,-6.596482544E0,-5.664221191E-1,9.679117958E0
4.635657042E0,6.294111328E0,-6.244115295E0,-3.384461975E-1,8.872393085E0
4.645665042E0,5.666915588E0,-6.170318756E0,-2.154020691E-1,8.380522889E0
4.655673042E0,5.139861603E0,-6.326593781E0,-2.739303589E-2,8.151362864E0
4.665681042E0,4.685706024E0,-6.518794098E0,1.540296936E-1,8.029585455E0
4.675689042E0,4.230053558E0,-6.909182281E0,4.418811035E-1,8.113286129E0
4.685696042E0,3.831582184E0,-7.242688751E0,9.822573853E-1,8.252417340E0
4.695704042E0,3.544928284E0,-7.579638062E0,1.588945770E0,8.517169620E0
4.705712042E0,3.321592712E0,-7.847281494E0,2.056423645E0,8.765938809E0
4.715720042E0,3.236569519E0,-7.957602081E0,2.456092529E0,8.934830924E0
4.725728042E0,3.291205902E0,-8.168064423E0,2.487676849E0,9.150838694E0
4.735736042E0,3.338806915E0,-8.245752869E0,2.236948242E0,9.173004384E0
4.745744042E0,3.464844818E0,-8.173303528E0,1.711840210E0,9.040931206E0
4.755752042E0,3.761976929E0,-7.806117096E0,1.220412140E0,8.750847977E0
4.765760042E0,4.110003204E0,-7.559130707E0,1.088536377E0,8.672802017E0
4.775767042E0,4.497696991E0,-7.400760040E0,1.032852173E0,8.721657584E0
4.785775042E0,4.803211670E0,-7.290589142E0,8.887019348E-1,8.775723532E0
4.795783042E0,5.184618530E0,-7.247628479E0,6.098318481E-1,8.931980898E0
4.805791042E0,5.516478424E0,-7.200775909E0,3.829037476E-1,9.079059598E0
4.815799042E0,5.913752289E0,-7.159761200E0,2.659968567E-1,9.290070016E0
4.825807042E0,6.225553894E0,-7.034771118E0,2.935395813E-1,9.398494106E0
4.835815042E0,6.488407288E0,-6.902745667E0,3.221301270E-1,9.478981732E0
4.845823042E0,6.723418579E0,-6.818919983E0,3.065625000E-1,9.581023311E0
4.855831042E0,6.904541931E0,-6.925198975E0,2.203417969E-1,9.781596527E0
4.865838042E0,6.888974304E0,-7.158264313E0,1.823208618E-1,9.936395515E0
4.875846042E0,6.878795471E0,-7.361391907E0,1.525328064E-1,1.007626837E1
4.885854042E0,7.152875519E0,-7.298971710E0,3.517684937E-2,1.021958187E1
4.895862042E0,7.308701477E0,-7.408394165E0,-1.287322998E-1,1.040759306E1
4.905870042E0,7.418722687E0,-7.284900970E0,-2.236349487E-1,1.039986736E1
4.915878042E0,7.383396149E0,-7.298073578E0,-3.131488037E-1,1.038626395E1
4.925886042E0,7.323670349E0,-7.179071045E0,-3.817062378E-1,1.026259753E1
4.935894042E0,7.162904663E0,-6.996600494E0,-4.556524658E-1,1.002333482E1
4.945902042E0,6.862479401E0,-6.722370758E0,-3.817062378E-1,9.614030985E0
4.955909042E0,6.541097717E0,-6.478677521E0,-3.363505554E-1,9.212619251E0
4.965917042E0,6.302793274E0,-6.194867706E0,-3.899391174E-1,8.846108832E0
4.975925042E0,6.122717743E0,-6.010900269E0,-4.671784973E-1,8.592837153E0
4.985933042E0,6.018684082E0,-5.936055908E0,-5.644761658E-1,8.472304950E0
4.995941042E0,5.974825287E0,-5.939349060E0,-6.258485413E-1,8.447845338E0
5.005949042E0,6.076613617E0,-6.049819336E0,-6.782395935E-1,8.601485685E0
5.015957042E0,6.273154907E0,-6.281986542E0,-7.174580383E-1,8.906771213E0
5.025965042E0,6.541397095E0,-6.548582153E0,-7.214996338E-1,9.284092088E0
5.035973042E0,6.892267456E0,-6.880741425E0,-6.966513062E-1,9.763876089E0
5.045980042E0,7.290140076E0,-7.264393616E0,-6.183641052E-1,1.031018579E1
5.055988042E0,7.622449036E0,-7.550897827E0,-5.060975647E-1,1.074122535E1
5.065996042E0,7.899822235E0,-7.664810944E0,-4.562512207E-1,1.101656404E1
5.076004042E0,8.148155823E0,-7.737110596E0,-4.709207153E-1,1.124620336E1
5.086012042E0,8.322393494E0,-7.780969391E0,-4.965174866E-1,1.140404524E1
5.096020042E0,8.418194275E0,-7.814948730E0,-4.900808716E-1,1.149693863E1
5.106028042E0,8.536148987E0,-7.849227448E0,-4.960684204E-1,1.160699336E1
5.116036042E0,8.736731873E0,-7.893684998E0,-5.665718079E-1,1.178820386E1
5.126044042E0,9.108109589E0,-8.143515472E0,-6.408174133E-1,1.223458833E1
5.136051042E0,9.722282410E0,-8.583001556E0,-7.152127075E-1,1.298854188E1
5.146059042E0,1.042447220E1,-9.059460754E0,-7.598199463E-1,1.383187537E1
5.156067042E0,1.104223755E1,-9.473499756E0,-7.056326294E-1,1.456626668E1
5.166075042E0,1.136077515E1,-9.678273926E0,-5.117857361E-1,1.493312167E1
5.176083042E0,1.109268265E1,-9.494456177E0,-3.010240173E-1,1.460420905E1
5.186091042E0,1.010443771E1,-8.775650940E0,-3.031196594E-1,1.338669461E1
5.196098542E0,8.996741180E0,-8.191864929E0,-3.894900513E-1,1.217373013E1
5.206106542E0,8.117918701E0,-7.603588257E0,-4.245172119E-1,1.113082986E1
5.216114542E0,7.550149384E0,-7.154671783E0,-5.222639465E-1,1.041474165E1
5.226122542E0,7.110812988E0,-7.023245087E0,-5.411247253E-1,1.000911829E1
5.236129542E0,6.812483368E0,-7.159761200E0,-5.180726624E-1,9.896489750E0
5.246137542E0,6.601422272E0,-7.455845490E0,-4.608915710E-1,9.968993380E0
5.256145542E0,6.475384369E0,-7.795938263E0,-3.751199341E-1,1.014139887E1
5.266153542E0,6.306535492E0,-8.184829559E0,-1.853146362E-1,1.033431983E1
5.276161542E0,6.042484589E0,-8.521329803E0,2.978805542E-2,1.044631844E1
5.286169542E0,5.746549988E0,-8.807384949E0,2.962339783E-1,1.052048578E1
5.296177542E0,5.331313477E0,-8.846304016E0,5.801934814E-1,1.034488389E1
5.306185542E0,5.055886230E0,-9.039402466E0,5.878276062E-1,1.037392519E1
5.316193542E0,4.690046997E0,-9.379794617E0,1.886077881E-1,1.048869204E1
5.326200542E0,4.127965851E0,-9.712852020E0,5.981561279E-1,1.057059067E1
5.336208542E0,3.522025909E0,-9.667795715E0,1.012644196E0,1.033907098E1
5.346216542E0,3.179238739E0,-9.573791199E0,1.469045105E0,1.019426949E1
5.356224542E0,2.938539276E0,-9.242829437E0,1.605710907E0,9.830728183E0
5.366232542E0,2.554288330E0,-8.688382416E0,1.562151489E0,9.189814751E0
5.376240542E0,2.167792053E0,-8.034991150E0,1.290616150E0,8.421763189E0
5.386248542E0,1.904190216E0,-7.356152802E0,1.064735870E0,7.672847378E0
5.396256542E0,1.801952820E0,-6.913223877E0,8.858578491E-1,7.198919535E0
5.406264542E0,1.795965271E0,-6.588848419E0,7.149133301E-1,6.866550503E0
5.416272542E0,1.862876129E0,-6.345005493E0,6.915618896E-1,6.648884119E0
5.426279542E0,2.056723022E0,-6.387666779E0,5.854325867E-1,6.736106277E0
5.436287542E0,2.207908630E0,-6.403084717E0,3.104544067E-1,6.780172295E0
5.446295542E0,2.229763184E0,-6.247857513E0,1.945953369E-2,6.633848509E0
5.456303542E0,2.225871277E0,-5.864504700E0,-2.595602417E-1,6.278080107E0
5.466311542E0,2.569406891E0,-5.471721497E0,-6.755451965E-1,6.082593955E0
5.476319542E0,2.916385345E0,-5.441184998E0,-1.080752563E0,6.267361787E0
5.486327542E0,3.254681854E0,-5.711073761E0,-1.479074249E0,6.737727964E0
5.496335542E0,3.486849060E0,-6.069278870E0,-1.868564301E0,7.244708062E0
5.506343542E0,3.731889496E0,-6.374494171E0,-1.878443756E0,7.621661636E0
5.516350542E0,4.069587250E0,-6.665938110E0,-1.629511414E0,7.978193951E0
5.526358542E0,4.480782166E0,-6.935527496E0,-1.268013153E0,8.353849880E0
5.536366542E0,4.883295135E0,-7.127578125E0,-7.226971436E-1,8.670134513E0
5.546374542E0,5.393284607E0,-7.411687317E0,1.508862305E-1,9.167518442E0
5.556382542E0,6.387517090E0,-7.492070160E0,1.019679565E0,9.898042042E0
5.566390542E0,7.921676788E0,-6.433920593E0,1.434017944E0,1.030556669E1
5.576398542E0,9.303303680E0,-5.069208527E0,1.597777405E0,1.071453345E1
5.586406542E0,9.569300537E0,-5.212610321E0,2.095043335E0,1.109648709E1
5.596414542E0,9.056766357E0,-6.675368500E0,2.804867249E0,1.159538019E1
5.606422542E0,9.151070251E0,-7.063960419E0,2.173180847E0,1.176283718E1
5.616429542E0,9.711355133E0,-7.047344971E0,6.834786987E-1,1.201842888E1
5.626437542E0,1.035606445E1,-6.876250763E0,-2.899470520E-1,1.243442660E1
5.636445542E0,1.095826218E1,-6.222709808E0,-7.601193237E-1,1.262471420E1
5.646453542E0,1.165925446E1,-5.582640839E0,-1.159039764E0,1.297873131E1
5.656461542E0,1.238749008E1,-4.978646851E0,-2.057022400E0,1.350807818E1
5.666469542E0,1.276710068E1,-4.301604767E0,-3.850293274E0,1.401168875E1
5.676477542E0,1.263402740E1,-3.498524780E0,-5.844296722E0,1.435319227E1
5.686485542E0,1.243913269E1,-2.794239349E0,-7.150181122E0,1.461728038E1
5.696493542E0,1.245260468E1,-2.906206512E0,-7.522756348E0,1.483594495E1
5.706501542E0,1.260169464E1,-3.786825256E0,-7.018305359E0,1.491306016E1
5.716509542E0,1.257355316E1,-4.890180817E0,-5.411846008E0,1.453603057E1
5.726516542E0,1.236952744E1,-6.215824127E0,-3.176244965E0,1.420317608E1
5.736524542E0,1.211969696E1,-7.513026581E0,-1.783840485E0,1.437061967E1
5.746532542E0,1.192435318E1,-8.747060394E0,-1.295555878E0,1.484519213E1
5.756540542E0,1.174757080E1,-9.452693024E0,-1.219813385E0,1.512768224E1
5.766548542E0,1.129326553E1,-9.483678589E0,-1.207239532E0,1.479646692E1
5.776556542E0,1.047536636E1,-9.217831421E0,-9.723779297E-1,1.398739559E1
5.786564542E0,9.280700684E0,-8.664581909E0,-8.159532166E-1,1.272289922E1
5.796572542E0,7.867938538E0,-8.105344849E0,-7.840695190E-1,1.132324322E1
5.806580542E0,6.539900208E0,-7.670648804E0,-6.333329773E-1,1.010001279E1
5.816588542E0,5.518274689E0,-7.262297974E0,-2.037263489E-1,9.123257742E0
5.826595542E0,4.882546692E0,-6.984775085E0,2.183958435E-1,8.524907151E0
5.836603542E0,4.424798584E0,-6.858437805E0,6.024971008E-1,8.184131866E0
5.846611542E0,4.103865967E0,-6.829398193E0,1.083297272E0,8.040891029E0
5.856619542E0,3.909120941E0,-7.034022675E0,1.485959930E0,8.183323190E0
5.866627542E0,3.806284790E0,-7.526648254E0,1.714384918E0,8.606820173E0
5.876635542E0,3.862268372E0,-7.979756012E0,1.918859711E0,9.070592350E0
5.886643542E0,4.086202698E0,-8.343948669E0,2.083517303E0,9.521532242E0
5.896651542E0,4.377796326E0,-8.435258789E0,2.132764893E0,9.739988583E0
5.906659542E0,4.760849762E0,-8.267008667E0,1.882635040E0,9.723859185E0
5.916667542E0,5.046755219E0,-8.013735352E0,1.575623474E0,9.600639659E0
5.926674542E0,5.176385651E0,-7.992928619E0,1.267264709E0,9.606655826E0
5.936682542E0,5.208718414E0,-7.869734802E0,1.204395447E0,9.513886786E0
5.946690542E0,5.231770477E0,-7.690707092E0,1.189576263E0,9.377285833E0
5.956698542E0,5.377118225E0,-7.218139801E0,1.274000702E0,9.090545659E0
5.966706542E0,5.518125000E0,-6.900799713E0,1.510359192E0,8.963923532E0
5.976714542E0,5.529351654E0,-6.648723907E0,1.335672455E0,8.750044584E0
5.986722542E0,5.470374298E0,-6.550827484E0,1.028960266E0,8.596341950E0
5.996730542E0,5.420827332E0,-6.592890015E0,7.923023987E-1,8.572007396E0
6.006738542E0,5.403912506E0,-6.535858612E0,8.634045410E-1,8.524387695E0
6.016746542E0,5.481451263E0,-6.378984833E0,1.075513458E0,8.479061543E0
6.026753542E0,5.624104614E0,-6.573280792E0,9.276210022E-1,8.700520318E0
6.036761542E0,5.732179871E0,-6.676416321E0,6.033952332E-1,8.820232807E0
6.046769542E0,5.749094696E0,-6.914122009E0,4.248165894E-1,9.002090986E0
6.056777542E0,5.632936249E0,-7.004234619E0,5.239105225E-1,9.003541282E0
6.066785542E0,5.507347412E0,-7.299570465E0,4.381388855E-1,9.154592846E0
6.076793542E0,5.314248962E0,-7.580386505E0,3.918850708E-1,9.265909319E0
6.086801542E0,5.259762268E0,-7.554190979E0,4.409829712E-1,9.215495996E0
6.096809542E0,5.216053162E0,-7.409292297E0,5.891748047E-1,9.080305605E0
6.106817542E0,5.136867828E0,-7.426656189E0,6.038442993E-1,9.050263044E0
6.116825542E0,5.081033936E0,-7.419022064E0,5.854325867E-1,9.011188909E0
6.126833542E0,5.115312653E0,-7.492818604E0,4.580474854E-1,9.083972790E0
6.136840542E0,5.157225494E0,-7.475754089E0,2.779719543E-1,9.086316218E0
6.146848542E0,5.075046387E0,-7.431296539E0,1.101708984E-1,8.999577863E0
6.156856542E0,5.153483276E0,-7.319479065E0,-8.816665649E-2,8.952147062E0
6.166864542E0,5.357808380E0,-7.229516144E0,-2.613565063E-1,9.002239807E0
6.176872542E0,5.514682159E0,-7.222331085E0,-3.929328918E-1,9.095503388E0
6.186880542E0,5.774242401E0,-7.351362762E0,-4.321513367E-1,9.357946599E0
6.196889208E0,6.302942963E0,-7.558831329E0,-4.267625427E-1,9.851149543E0
6.206897208E0,7.026837616E0,-7.838599548E0,-3.969744873E-1,1.053459437E1
6.216905208E0,7.728129272E0,-8.144712982E0,-3.366499329E-1,1.123270514E1
6.226913208E0,8.343499603E0,-8.402177582E0,-3.170407104E-1,1.184529816E1
6.236921208E0,8.752149811E0,-8.515042877E0,-3.559597778E-1,1.221608730E1
6.246928208E0,8.926088104E0,-8.490044861E0,-3.939807129E-1,1.232522338E1
6.256936208E0,8.987161102E0,-8.358019409E0,-5.409750366E-1,1.228487717E1
6.266944208E0,9.107211456E0,-8.204738159E0,-7.692503357E-1,1.228213234E1
6.276952208E0,9.487869873E0,-8.156388702E0,-9.734257507E-1,1.254965773E1
6.286960208E0,1.018332367E1,-8.276738434E0,-1.098715210E0,1.316858592E1
6.296968208E0,1.112815887E1,-8.647667084E0,-1.221909027E0,1.414606403E1
6.306976208E0,1.214439560E1,-9.150770874E0,-1.350641327E0,1.526588301E1
6.316984208E0,1.283296371E1,-9.466763763E0,-1.374591522E0,1.600606372E1
6.326992208E0,1.289149200E1,-9.292376404E0,-1.374441833E0,1.595079671E1
6.337000208E0,1.181088913E1,-8.548124084E0,-1.354233856E0,1.464245460E1
6.347008208E0,1.020547760E1,-7.712711334E0,-1.228046265E0,1.285090607E1
6.357015208E0,9.069639587E0,-7.239096222E0,-1.024469604E0,1.164956713E1
6.367023208E0,8.258177032E0,-7.207811279E0,-7.626640320E-1,1.098779722E1
6.377031208E0,7.373965759E0,-6.997798004E0,-6.340814209E-1,1.018560785E1
6.387039208E0,6.488706665E0,-6.678661652E0,-5.186714172E-1,9.326138305E0
6.397047208E0,5.791456604E0,-6.523584137E0,-3.969744873E-1,8.732451450E0
6.407055208E0,5.428012390E0,-6.496939545E0,-3.183879089E-1,8.472007602E0
6.417063208E0,5.261408844E0,-6.812333679E0,-2.236349487E-1,8.610477674E0
6.427071208E0,5.137167206E0,-7.234455872E0,-1.317260742E-2,8.872880715E0
6.437079208E0,5.044958954E0,-7.746990051E0,2.194436646E-1,9.247465665E0
6.447087208E0,4.880600739E0,-8.305927734E0,4.508624268E-1,9.644271669E0
6.457094208E0,4.664300537E0,-8.828041992E0,7.701484680E-1,1.001414767E1
6.467102208E0,4.401147766E0,-9.331445160E0,1.129551086E0,1.037891401E1
6.477110208E0,4.283043365E0,-9.899663544E0,1.411564636E0,1.087843341E1
6.487118208E0,4.081113281E0,-1.047925827E1,1.530118103E0,1.134951985E1
6.497126208E0,3.625311127E0,-1.051907547E1,1.536704407E0,1.123188719E1
6.507134208E0,3.193908234E0,-1.024963577E1,1.455872498E0,1.083400425E1
6.517142208E0,3.091371460E0,-9.826316071E0,1.361867981E0,1.039075307E1
6.527150208E0,3.022514648E0,-9.297765198E0,1.148262177E0,9.843908700E0
6.537158208E0,2.881507874E0,-8.702602844E0,8.128097534E-1,9.203208331E0
6.547166208E0,2.704426117E0,-8.060288544E0,4.948709106E-1,8.516282596E0
6.557174208E0,2.458637238E0,-7.425159302E0,2.064207458E-1,7.824352832E0
6.567182208E0,2.372566223E0,-7.047045593E0,7.214996338E-2,7.436069371E0
6.577189208E0,2.347867584E0,-6.730154572E0,-3.996688843E-2,7.128047426E0
6.587197208E0,2.218237152E0,-6.301745453E0,-2.571652222E-1,6.685709070E0
6.597205208E0,1.963466949E0,-5.843847656E0,-3.147953796E-1,6.172912928E0
6.607213208E0,2.088606720E0,-5.696853333E0,-4.809498596E-1,6.086684540E0
6.617221208E0,2.376158752E0,-5.687722321E0,-6.414161682E-1,6.197397060E0
6.627229208E0,2.668500824E0,-5.772296448E0,-7.999365234E-1,6.409383853E0
6.637237208E0,2.952610016E0,-6.043831787E0,-1.184786224E0,6.830045898E0
6.647245208E0,3.146606598E0,-6.318809967E0,-1.546134796E0,7.226273264E0
6.657253208E0,3.403771820E0,-6.465804291E0,-1.688488770E0,7.499552124E0
6.667261208E0,3.701053619E0,-6.596482544E0,-1.574725342E0,7.726004126E0
6.677269208E0,4.097728729E0,-6.824458466E0,-1.219663696E0,8.053085969E0
6.687276208E0,4.575834503E0,-7.110214233E0,-7.993377686E-1,8.493076516E0
6.697284208E0,5.061275024E0,-7.275919647E0,-3.417393494E-1,8.869740547E0
6.707292208E0,5.595514069E0,-7.338938599E0,3.562591553E-1,9.235622233E0
6.717300208E0,6.452032928E0,-6.960076447E0,8.164022827E-1,9.525644636E0
6.727308208E0,7.633975067E0,-5.854924622E0,9.178912354E-1,9.664380061E0
6.737316208E0,8.584049377E0,-4.930896149E0,7.836204529E-1,9.930443170E0
6.747324208E0,8.754844208E0,-5.308261414E0,1.003363495E0,1.028745229E1
6.757332208E0,8.574768677E0,-6.665189667E0,1.375639343E0,1.094731907E1
6.767340208E0,8.834179230E0,-7.080725555E0,6.706054688E-1,1.134147736E1
6.777348208E0,9.338929596E0,-6.911277924E0,-2.869532776E-1,1.162169139E1
6.787356208E0,9.994865570E0,-6.510561218E0,-7.566764832E-1,1.195229285E1
6.797363208E0,1.066382446E1,-6.160738678E0,-9.626481628E-1,1.235307835E1
6.807371208E0,1.129057114E1,-5.720953217E0,-1.156045990E0,1.270994668E1
6.817379208E0,1.219439163E1,-4.879852295E0,-1.954485626E0,1.327916262E1
6.827387208E0,1.288101379E1,-3.959566040E0,-3.331322479E0,1.388151249E1
6.837395208E0,1.254810608E1,-3.526366882E0,-4.243824921E0,1.370767229E1
6.847403208E0,1.223600510E1,-3.431763611E0,-4.652774506E0,1.353311246E1
6.857411208E0,1.261651382E1,-4.022435303E0,-4.822970581E0,1.409317041E1
6.867419208E0,1.325688217E1,-5.234015808E0,-4.396357727E0,1.491535476E1
6.877427208E0,1.374681335E1,-6.654861145E0,-3.359014893E0,1.563793578E1
6.887435208E0,1.369397324E1,-8.136180725E0,-2.448009338E0,1.611567838E1
6.897443208E0,1.322784256E1,-9.115444336E0,-1.740281067E0,1.615845668E1
6.907451208E0,1.247565674E1,-9.427844696E0,-1.091530151E0,1.567538531E1
6.917459208E0,1.156719589E1,-9.249864807E0,-6.373745728E-1,1.482451571E1
6.927466208E0,1.065454376E1,-9.051527252E0,-7.303312683E-1,1.399938685E1
6.937474208E0,9.843230896E0,-8.832682343E0,-8.481362915E-1,1.325235100E1
6.947482208E0,8.960666199E0,-8.470884705E0,-6.749464417E-1,1.234929063E1
6.957490208E0,7.827073517E0,-8.098159790E0,-5.498066711E-1,1.127588397E1
6.967498208E0,6.862928467E0,-7.425159302E0,-5.170248413E-1,1.012423293E1
6.977506208E0,6.217919769E0,-6.775809631E0,-2.389031982E-1,9.199521572E0
6.987514208E0,5.911656647E0,-6.447242889E0,3.863465881E-1,8.755791733E0
6.997522208E0,5.649252319E0,-6.380631409E0,1.128652954E0,8.596532233E0
7.007530208E0,5.361400909E0,-6.481820984E0,1.724264374E0,8.586717103E0
7.017538208E0,5.072351990E0,-6.797664185E0,1.845063171E0,8.679933824E0
7.027546208E0,4.844974823E0,-7.242688751E0,1.773511963E0,8.892449947E0
7.037554208E0,4.626728668E0,-7.623047791E0,1.781595154E0,9.093489818E0
7.047561208E0,4.606221313E0,-7.865094452E0,1.787283325E0,9.288238111E0
7.057569208E0,4.779560852E0,-7.735314331E0,1.708097992E0,9.251858650E0
7.067577208E0,5.113217010E0,-7.292684784E0,1.606908417E0,9.050436134E0
7.077585208E0,5.380561066E0,-7.039112091E0,1.267863464E0,8.950252185E0
7.087593208E0,5.371130676E0,-6.911277924E0,7.313790894E-1,8.783491484E0
7.097601208E0,5.320386200E0,-6.946754150E0,6.017486572E-1,8.770747060E0
7.107609208E0,5.166206818E0,-7.054679718E0,7.646099854E-1,8.777404356E0
7.117617208E0,4.921765137E0,-7.015910339E0,1.012793884E0,8.629746312E0
7.127625208E0,4.754413147E0,-6.990912323E0,1.146914978E0,8.531864594E0
7.137633208E0,4.641996918E0,-6.997648315E0,1.062640228E0,8.464302782E0
7.147641208E0,4.581372986E0,-7.012916565E0,9.848020935E-1,8.434442029E0
7.157649208E0,4.640649719E0,-7.192992096E0,8.150550842E-1,8.598783629E0
7.167656208E0,4.735103302E0,-7.306605835E0,6.798861694E-1,8.733266131E0
7.177664208E0,4.866679688E0,-7.417974243E0,6.195616150E-1,8.893524029E0
7.187672208E0,5.032983856E0,-7.516619110E0,6.134243774E-1,9.066795399E0
7.197680042E0,5.204976196E0,-7.419920197E0,6.415658569E-1,9.086176296E0
7.207688042E0,5.259612579E0,-7.341932373E0,7.312294006E-1,9.061025984E0
7.217696042E0,5.316943359E0,-7.365134125E0,7.418572998E-1,9.114024337E0
7.227704042E0,5.315446472E0,-7.320526886E0,7.499404907E-1,9.077802368E0
7.237712042E0,5.254373474E0,-7.276219025E0,6.866221619E-1,9.001291790E0
7.247720042E0,5.124743042E0,-7.339687042E0,5.201683044E-1,8.966859662E0
7.257728042E0,4.907844086E0,-7.379504242E0,4.393363953E-1,8.873389031E0
7.267736042E0,4.849166107E0,-7.331005096E0,3.674858093E-1,8.797334453E0
7.277744042E0,4.852758636E0,-7.323969727E0,3.427871704E-1,8.792457107E0
7.287751042E0,4.922812958E0,-7.338788910E0,3.103047180E-1,8.842409123E0
7.297759042E0,4.932692413E0,-7.249724121E0,3.239263916E-1,8.774672791E0
7.307767042E0,5.023852844E0,-7.208410034E0,3.501219177E-1,8.793341684E0
7.317775042E0,5.233716431E0,-7.281907196E0,3.263214111E-1,8.973541428E0
7.327783042E0,5.506598969E0,-7.376061401E0,2.511776733E-1,9.208257393E0
7.337791042E0,5.810467072E0,-7.514074402E0,1.573228455E-1,9.499873272E0
7.347799042E0,6.161187744E0,-7.596702576E0,1.029858398E-1,9.781652750E0
7.357807042E0,6.577322388E0,-7.650889893E0,9.430389404E-2,1.008990481E1
7.367815042E0,6.999893646E0,-7.720046082E0,1.245410156E-1,1.042176247E1
7.377823042E0,7.410340118E0,-7.785909119E0,9.849517822E-2,1.074910335E1
7.387831042E0,7.821385345E0,-7.858807526E0,4.071533203E-2,1.108767704E1
7.397839042E0,8.187673645E0,-7.954907684E0,-1.332229614E-2,1.141572308E1
7.407847042E0,8.422235870E0,-7.986342316E0,-8.307723999E-2,1.160700747E1
7.417854042E0,8.547974396E0,-7.934699707E0,-1.213975525E-1,1.166370709E1
7.427862042E0,8.652008057E0,-7.917186127E0,-1.884580994E-1,1.172921975E1
7.437870042E0,8.775201874E0,-7.950716400E0,-2.580633545E-1,1.184418237E1
7.447878042E0,9.095086670E0,-8.149503021E0,-2.495310974E-1,1.221463331E1
7.457886042E0,9.651629333E0,-8.615034943E0,-2.357597351E-1,1.293941106E1
7.467894042E0,1.034393967E1,-9.162147217E0,-2.513273621E-1,1.382046290E1
7.477902042E0,1.102053268E1,-9.649982758E0,-1.987866211E-1,1.464970389E1
7.487910042E0,1.151884644E1,-9.943971405E0,-1.713935852E-1,1.521827080E1
7.497918042E0,1.131482071E1,-9.648934937E0,-2.622546387E-1,1.487265580E1
7.507926042E0,1.042716660E1,-8.631201324E0,-5.511538696E-1,1.354722149E1
7.517934042E0,9.398056641E0,-7.504194946E0,-8.665480042E-1,1.205766627E1
7.527942042E0,8.541238403E0,-6.752158813E0,-1.053509216E0,1.093866005E1
7.537949042E0,7.773934021E0,-6.329737244E0,-9.792636108E-1,1.007266504E1
7.547957042E0,7.240443420E0,-6.308331757E0,-6.475534058E-1,9.624884201E0
7.557965042E0,6.845714264E0,-6.497538300E0,-3.600013733E-1,9.445179126E0
7.567973042E0,6.392307129E0,-6.510411530E0,-2.532733154E-1,9.127496704E0
7.577981042E0,6.031257935E0,-6.585405579E0,-3.062631226E-1,8.935179685E0
7.587989042E0,5.755381622E0,-6.637497253E0,-4.077520752E-1,8.794717117E0
7.597997042E0,5.437143402E0,-6.601571960E0,-4.580474854E-1,8.564641745E0
7.608005042E0,5.246140594E0,-6.740183716E0,-4.397854614E-1,8.552513017E0
7.618013042E0,4.959187317E0,-6.777456207E0,-3.119512939E-1,8.403854181E0
7.628021042E0,5.004992065E0,-7.339986420E0,4.116439819E-2,8.884089189E0
7.638029042E0,4.956343231E0,-7.799381104E0,4.746629333E-1,9.253161013E0
7.648037042E0,5.143005066E0,-8.240813141E0,7.243437195E-1,9.740953555E0
7.658045042E0,5.134023743E0,-8.688831482E0,8.619076538E-1,1.012901166E1
7.668053042E0,5.054688721E0,-8.977131958E0,9.526190186E-1,1.034631622E1
7.678060042E0,5.013524323E0,-9.220076752E0,1.109043732E0,1.055344586E1
7.688068042E0,4.901108093E0,-9.378746796E0,1.232536926E0,1.065368008E1
7.698076042E0,4.716841278E0,-9.400002594E0,1.163530426E0,1.058123072E1
7.708084042E0,4.518354034E0,-9.473649445E0,1.003363495E0,1.054382735E1
7.718092042E0,4.271517334E0,-9.407636719E0,8.328680420E-1,1.036547916E1
7.728100042E0,4.043242035E0,-9.045240326E0,5.788462830E-1,9.924678419E0
7.738108042E0,4.041445770E0,-8.474926300E0,3.622467041E-1,9.396216386E0
7.748116042E0,4.045786743E0,-7.860603790E0,2.583627319E-1,8.844446485E0
7.758124042E0,4.060007172E0,-7.215894470E0,-5.074447632E-2,8.279816800E0
7.768132042E0,4.199666748E0,-6.616989899E0,-3.965254211E-1,7.847228079E0
7.778140042E0,4.322860565E0,-6.224805450E0,-4.861889648E-1,7.594188967E0
7.788148042E0,4.101620636E0,-6.178851013E0,-3.653901672E-1,7.425294719E0
7.798156042E0,3.511697388E0,-6.281986542E0,-2.197430420E-1,7.200254194E0
7.808163042E0,3.078947296E0,-6.200406189E0,-1.895059204E-1,6.925378391E0
7.818171042E0,3.016976166E0,-6.244115295E0,-4.219725037E-1,6.947602594E0
7.828179042E0,3.160677338E0,-6.324498138E0,-7.987390137E-1,7.115275255E0
7.838187042E0,3.394940186E0,-6.206992493E0,-1.123413849E0,7.163409338E0
7.848195042E0,3.648063812E0,-6.240822144E0,-1.447190552E0,7.372285338E0
7.858203042E0,3.930526428E0,-6.183940430E0,-1.758992157E0,7.535529885E0
7.868211042E0,4.308191071E0,-6.039790192E0,-1.825903015E0,7.640255080E0
7.878219042E0,4.640799408E0,-5.957012329E0,-1.664688263E0,7.732671081E0
7.888227042E0,5.050347748E0,-6.105653229E0,-1.476379852E0,8.060068932E0
7.898235042E0,5.688171387E0,-6.449188843E0,-1.102756805E0,8.669682983E0
7.908243042E0,6.363417206E0,-6.690337372E0,-3.294648743E-1,9.239168782E0
7.918251042E0,6.899901581E0,-6.712491302E0,5.480104065E-1,9.641913540E0
7.928259042E0,7.372319183E0,-6.636449432E0,1.168170776E0,9.987901390E0
7.938267042E0,7.784112854E0,-6.527625732E0,1.501228180E0,1.026917702E1
7.948274042E0,8.115224304E0,-6.475534058E0,1.540296936E0,1.049580495E1
7.958282042E0,8.416248322E0,-6.401138763E0,1.273851013E0,1.065037603E1
7.968290042E0,8.630602570E0,-6.279441833E0,7.857160950E-1,1.070215120E1
7.978298042E0,8.900042267E0,-6.256689148E0,1.754351807E-1,1.088061069E1
7.988306042E0,9.305848389E0,-6.091432800E0,-4.174818420E-1,1.113007902E1
7.998314042E0,9.814191284E0,-5.731431427E0,-7.860154724E-1,1.139234291E1
8.008322042E0,1.039169037E1,-5.420827332E0,-1.070873108E0,1.176942509E1
8.018330042E0,1.076486435E1,-5.085674286E0,-1.534159698E0,1.200416733E1
8.028338042E0,1.091066116E1,-4.806205444E0,-2.172282715E0,1.211861997E1
8.038346042E0,1.105496109E1,-4.525239716E0,-2.969375153E0,1.230882399E1
8.048354042E0,1.120464981E1,-4.255051575E0,-3.907624054E0,1.260631457E1
8.058362042E0,1.142319534E1,-4.246669006E0,-4.630171509E0,1.303695048E1
8.068370042E0,1.182570831E1,-4.542603607E0,-4.749024353E0,1.352907450E1
8.078378042E0,1.243673767E1,-5.212011566E0,-4.339026947E0,1.416561553E1
8.088385042E0,1.321901093E1,-6.319408722E0,-3.452420654E0,1.505311877E1
8.098393042E0,1.373154510E1,-7.637717285E0,-2.093396759E0,1.585157299E1
8.108401042E0,1.364277969E1,-8.744365997E0,-5.734574890E-1,1.621475340E1
8.118409042E0,1.280751663E1,-9.267977142E0,2.089654541E-1,1.581048858E1
8.128417042E0,1.175221115E1,-9.059610443E0,1.303788757E-1,1.483940723E1
8.138425042E0,1.062161224E1,-8.383017426E0,-5.686674500E-1,1.354315364E1
8.148433042E0,9.470206604E0,-7.669451294E0,-1.137933655E0,1.223928876E1
8.158441042E0,8.315058746E0,-7.187752991E0,-1.134041748E0,1.104943644E1
8.168449042E0,7.280260620E0,-6.815776520E0,-7.833210754E-1,1.000352919E1
8.178457042E0,6.535708923E0,-6.450386353E0,-4.574487305E-1,9.194141318E0
8.188465042E0,6.016139374E0,-6.139333191E0,7.334747314E-3,8.595661626E0
8.198472667E0,5.688919830E0,-5.921835480E0,5.670208740E-1,8.231248809E0
8.208480667E0,5.513185272E0,-5.939798126E0,1.045875092E0,8.171307627E0
8.218488667E0,5.552553406E0,-6.113736420E0,1.336720276E0,8.366327954E0
8.228496667E0,5.460195465E0,-6.362668762E0,1.564546509E0,8.529073459E0
8.238503667E0,5.367987213E0,-6.865473175E0,1.680854645E0,8.875543982E0
8.248511667E0,5.268743591E0,-7.348818054E0,1.538051605E0,9.172261911E0
8.258519667E0,5.013075256E0,-7.905360718E0,1.296004944E0,9.450147111E0
8.268527667E0,4.719984741E0,-8.456813965E0,1.319955139E0,9.774366474E0
8.278535667E0,4.652175751E0,-8.667875061E0,1.559756470E0,9.960303084E0
8.288543667E0,4.613406372E0,-8.570577393E0,1.804796906E0,9.899273057E0
8.298551667E0,4.731061707E0,-8.113128662E0,1.906884613E0,9.583423735E0
8.308559667E0,5.068909149E0,-7.542365570E0,1.795965271E0,9.263185716E0
8.318567667E0,5.370980988E0,-7.270231476E0,1.499731293E0,9.162581319E0
8.328575667E0,5.514831848E0,-7.226672058E0,1.317410431E0,9.185517383E0
8.338583667E0,5.566025391E0,-7.252418518E0,1.177900543E0,9.217682068E0
8.348591667E0,5.668412476E0,-7.261998596E0,1.055604858E0,9.272638525E0
8.358599667E0,5.807323608E0,-7.253166962E0,9.868977356E-1,9.343843193E0
8.368607667E0,5.971681824E0,-7.251819763E0,8.675958252E-1,9.434118729E0
8.378614667E0,6.099665680E0,-7.121889954E0,7.951464844E-1,9.410605499E0
8.388622667E0,6.095025330E0,-7.082372131E0,7.304809570E-1,9.372455986E0
8.398630667E0,6.119574280E0,-7.129224701E0,7.403604126E-1,9.424604381E0
8.408638667E0,6.165678406E0,-7.125781860E0,7.128176880E-1,9.449892400E0
8.418646667E0,6.140231323E0,-7.141199799E0,6.608757019E-1,9.441182763E0
8.428654667E0,6.153553619E0,-7.179071045E0,5.791456604E-1,9.473156439E0
8.438662667E0,6.185587006E0,-7.176226959E0,5.131329346E-1,9.488046447E0
8.448670667E0,6.155050507E0,-7.153773651E0,5.041516113E-1,9.450676856E0
8.458678667E0,6.078409882E0,-7.133865051E0,4.667294312E-1,9.383865601E0
8.468686667E0,5.947881317E0,-7.080875244E0,4.107458496E-1,9.256608371E0
8.478694667E0,5.843398590E0,-6.981182556E0,3.394940186E-1,9.110294899E0
8.488702667E0,5.734425201E0,-6.827751617E0,2.856060791E-1,8.920952605E0
8.498710667E0,5.565576324E0,-6.709946594E0,2.330653381E-1,8.720856757E0
8.508718667E0,5.392236786E0,-6.583759003E0,1.887574768E-1,8.512210614E0
8.518726667E0,5.266498260E0,-6.481671295E0,1.631607056E-1,8.353124453E0
8.528733667E0,5.173990631E0,-6.452631683E0,1.736389160E-1,8.272652849E0
8.538741667E0,5.199138336E0,-6.457122345E0,2.061213684E-1,8.292644598E0
8.548749667E0,5.319937134E0,-6.535708923E0,2.427951050E-1,8.430668520E0
8.558757667E0,5.500761108E0,-6.678212585E0,2.598596191E-1,8.655889505E0
8.568765667E0,5.790259094E0,-6.958130493E0,2.436932373E-1,9.055499254E0
8.578773667E0,6.093229065E0,-7.237898712E0,2.353106689E-1,9.464142292E0
8.588781667E0,6.333180084E0,-7.354955292E0,2.414479065E-1,9.708904903E0
8.598789667E0,6.596781921E0,-7.478298798E0,2.456391907E-1,9.975110187E0
8.608797667E0,6.962621155E0,-7.650590515E0,2.134561157E-1,1.034674790E1
8.618805667E0,7.222480774E0,-7.800279236E0,1.100212097E-1,1.063111891E1
8.628813667E0,7.405849457E0,-7.821535034E0,-5.074447632E-2,1.077151760E1
8.638821667E0,7.576943665E0,-7.732470245E0,-2.374063110E-1,1.082855176E1
8.648829667E0,7.730374603E0,-7.753576355E0,-3.845503235E-1,1.095557012E1
8.658837667E0,7.914491730E0,-7.803422699E0,-4.317022705E-1,1.112290214E1
8.668845667E0,8.166118469E0,-7.976313171E0,-4.182302856E-1,1.142287088E1
8.678852667E0,8.565338287E0,-8.255931702E0,-3.589535522E-1,1.190186019E1
8.688860667E0,9.157357178E0,-8.670419769E0,-2.746788025E-1,1.261383439E1
8.698868667E0,9.780810699E0,-9.112450562E0,-1.655557251E-1,1.336893496E1
8.708876667E0,1.022658371E1,-9.464518433E0,1.347198486E-2,1.393414170E1
8.718884667E0,1.052521271E1,-9.647138672E0,1.811233521E-1,1.427866215E1
8.728892667E0,1.050889664E1,-9.528585205E0,2.023791504E-1,1.418702935E1
8.738900667E0,1.006102798E1,-9.016799469E0,-1.975891113E-2,1.351026821E1
8.748908667E0,9.310039673E0,-8.161927185E0,-4.781057739E-1,1.239041885E1
8.758916667E0,8.285869446E0,-7.258256378E0,-7.717950439E-1,1.104235417E1
8.768924667E0,7.450157318E0,-6.672674103E0,-7.619155884E-1,1.003045059E1
8.778932667E0,6.794071655E0,-6.185587006E0,-5.480104065E-1,9.204412619E0
8.788940667E0,6.023324432E0,-5.855373688E0,-1.437011719E-1,8.401576535E0
8.798948667E0,5.331463165E0,-5.586832123E0,2.716850281E-1,7.727289655E0
8.808956667E0,4.864883423E0,-5.501060486E0,4.483177185E-1,7.357292027E0
8.818964667E0,4.626878357E0,-5.697452087E0,5.412744141E-1,7.359479711E0
8.828972667E0,4.534370728E0,-6.108347626E0,5.328918457E-1,7.626034509E0
8.838979667E0,4.806953888E0,-6.702462158E0,4.176315308E-1,8.258584670E0
8.848987667E0,5.496869202E0,-7.558232574E0,4.173321533E-1,9.355031630E0
8.858995667E0,5.879623260E0,-8.039481812E0,3.908372498E-1,9.967747551E0
8.869003667E0,6.228996735E0,-8.212521973E0,3.008743286E-1,1.031195630E1
8.879011667E0,6.845115509E0,-8.978628845E0,1.736389160E-1,1.129165766E1
8.889019667E0,7.016359406E0,-9.003028107E0,2.966830444E-1,1.141804866E1
8.899027667E0,7.022346954E0,-8.756640472E0,6.101312256E-1,1.124119074E1
8.909035667E0,6.722969513E0,-8.191116486E0,9.342073059E-1,1.063792516E1
8.919043667E0,6.543941803E0,-7.701035614E0,1.202898560E0,1.017723385E1
8.929051667E0,6.604266357E0,-7.348518677E0,1.137035522E0,9.945346180E0
8.939059667E0,6.600823517E0,-7.110064545E0,6.894662476E-1,9.726214713E0
8.949067667E0,6.511309662E0,-6.812932434E0,1.315763855E-1,9.424994123E0
8.959075667E0,6.487658844E0,-6.554120636E0,-2.297721863E-1,9.224912457E0
8.969083667E0,6.420598297E0,-6.308331757E0,-2.836601257E-1,9.005531362E0
8.979091667E0,6.261329498E0,-6.058800659E0,-1.332229614E-1,8.713843060E0
8.989099667E0,6.211034088E0,-5.832321625E0,4.146377563E-2,8.520248777E0
8.999106667E0,6.172115021E0,-5.666915588E0,1.246907043E-1,8.380005005E0
9.009114667E0,6.189329224E0,-5.595065002E0,1.851649475E-1,8.345467912E0
9.019122667E0,6.265969849E0,-5.722899170E0,2.627037048E-1,8.490168802E0
9.029130667E0,6.212231598E0,-5.970783691E0,3.775149536E-1,8.624650535E0
9.039138667E0,6.202950897E0,-6.223607941E0,4.863386536E-1,8.800364817E0
9.049146667E0,6.223158875E0,-6.418352966E0,5.102888489E-1,8.954515949E0
9.059154667E0,6.280339966E0,-6.602021027E0,5.086422729E-1,9.126229708E0
9.069162667E0,6.359525299E0,-6.762038269E0,5.743556213E-1,9.300462782E0
9.079170667E0,6.461313629E0,-6.893015900E0,7.405101013E-1,9.476845320E0
9.089178667E0,6.619534607E0,-6.895710297E0,9.904902649E-1,9.609897495E0
9.099186667E0,6.750961304E0,-6.714586945E0,1.208586731E0,9.598012203E0
9.109194667E0,6.802454224E0,-6.391259308E0,1.260977783E0,9.418685894E0
9.119202667E0,6.796616364E0,-6.073769531E0,1.208287354E0,9.194815313E0
9.129210667E0,6.818171539E0,-5.804030457E0,1.115031281E0,9.023166154E0
9.139218667E0,6.892716522E0,-5.622308350E0,1.004561005E0,8.951482282E0
9.149226667E0,6.909631348E0,-5.489384766E0,8.999285889E-1,8.870525460E0
9.159234667E0,6.976542206E0,-5.459596710E0,7.725434875E-1,8.892477766E0
9.169241667E0,7.118147736E0,-5.495671692E0,6.768923950E-1,9.018238068E0
9.179249667E0,7.265890503E0,-5.557942200E0,6.117778015E-1,9.168323640E0
9.189257667E0,7.387587433E0,-5.638175354E0,5.478607178E-1,9.309437189E0
9.199269792E0,7.477700043E0,-5.655838623E0,5.194198608E-1,9.390117435E0
9.209277792E0,7.585176544E0,-5.618416443E0,5.426216125E-1,9.454942874E0
9.219285792E0,7.678133240E0,-5.587580566E0,5.369334412E-1,9.511208344E0
9.229293792E0,7.754025421E0,-5.495821381E0,4.596940613E-1,9.515265709E0
9.239301792E0,7.862400055E0,-5.497168579E0,3.064128113E-1,9.598441843E0
9.249309792E0,8.030350800E0,-5.646707611E0,1.441502380E-1,9.817974338E0
9.259317792E0,8.304430847E0,-5.902525635E0,-4.340972900E-3,1.018839533E1
9.269325792E0,8.587941284E0,-6.174360352E0,-6.825805664E-2,1.057733995E1
9.279333792E0,8.939859467E0,-6.506669312E0,-5.313949585E-2,1.105715409E1
9.289341792E0,9.383237457E0,-7.052284698E0,-2.844085693E-3,1.173796715E1
9.299349792E0,9.726623383E0,-7.731572113E0,-4.355941772E-2,1.242522866E1
9.309357792E0,9.762099609E0,-8.272996216E0,-1.678010559E-1,1.279723456E1
9.319365792E0,9.474397888E0,-8.424930267E0,-2.082170105E-1,1.268018216E1
9.329373792E0,9.051826630E0,-8.007298737E0,-5.269042969E-2,1.208532890E1
9.339381792E0,8.606502686E0,-7.290439453E0,2.116598511E-1,1.128127634E1
9.349388792E0,8.288563843E0,-6.817722473E0,5.599855042E-1,1.074686997E1
9.359396792E0,7.970026245E0,-6.624923401E0,8.213420105E-1,1.039641915E1
9.369404792E0,7.592660980E0,-6.556515656E0,9.472302246E-1,1.007639040E1
9.379412792E0,7.223977661E0,-6.494843903E0,9.186396790E-1,9.757702057E0
9.389420792E0,6.982230377E0,-6.375242615E0,8.422984314E-1,9.492350925E0
9.399428792E0,6.837032318E0,-6.304439850E0,8.086184692E-1,9.335139879E0
9.409436792E0,6.844067688E0,-6.393804016E0,7.830216980E-1,9.398676252E0
9.419444792E0,7.028184814E0,-6.614295502E0,7.116201782E-1,9.677328663E0
9.429452792E0,7.457791443E0,-6.877897339E0,5.502557373E-1,1.016006429E1
9.439460792E0,7.844437408E0,-7.188202057E0,4.465214539E-1,1.064917032E1
9.449468792E0,8.031248932E0,-7.683821411E0,6.167175293E-1,1.113204435E1
9.459476792E0,7.917335815E0,-8.427774353E0,1.604363708E0,1.167414108E1
9.469484792E0,7.626640320E0,-9.116492157E0,3.172652435E0,1.230210532E1
9.479492792E0,7.373367004E0,-9.315428467E0,4.530179443E0,1.271480532E1
9.489500792E0,6.994355164E0,-9.338031464E0,4.813989258E0,1.262118569E1
9.499508792E0,6.618187408E0,-9.163644104E0,4.333937531E0,1.210602298E1
9.509516792E0,6.250851288E0,-8.845106506E0,3.745511169E0,1.146027508E1
9.519524792E0,6.016887817E0,-8.483907623E0,3.498375092E0,1.097352522E1
9.529531792E0,5.853427734E0,-8.061336365E0,3.570824432E0,1.058293661E1
9.539539792E0,5.532644806E0,-7.607779541E0,3.677253113E0,1.010003260E1
9.549547792E0,5.246889038E0,-7.194189606E0,3.675307159E0,9.632968980E0
9.559555792E0,5.126090240E0,-7.039411469E0,3.681294708E0,9.454207831E0
9.569563792E0,5.052293701E0,-7.065457306E0,3.627855835E0,9.413166127E0
9.579571792E0,4.974904633E0,-7.178621979E0,3.554957428E0,9.429740820E0
9.589579792E0,4.987628174E0,-7.300169220E0,3.512595520E0,9.513528931E0
9.599587792E0,5.090763702E0,-7.376809845E0,3.473975830E0,9.612580644E0
9.609595792E0,5.156926117E0,-7.411837006E0,3.406166840E0,9.650450109E0
9.619603792E0,5.230273590E0,-7.475754089E0,3.513343964E0,9.776821919E0
9.629611792E0,5.224884796E0,-7.606432343E0,3.630101166E0,9.916393931E0
9.639619792E0,5.181026001E0,-7.806416473E0,3.466341705E0,9.989929599E0
9.649627792E0,5.262606354E0,-8.010591888E0,3.236569519E0,1.011632296E1
9.659635792E0,5.402565308E0,-8.164172516E0,3.022664337E0,1.024587353E1
9.669643792E0,5.599256287E0,-8.208330688E0,2.798131256E0,1.032268871E1
9.679651792E0,5.827381897E0,-8.146958313E0,2.611469421E0,1.035138068E1
9.689659792E0,6.061345367E0,-8.013585663E0,2.420616302E0,1.033522356E1
9.699667792E0,6.277944946E0,-7.871980133E0,2.242486725E0,1.031549372E1
9.709675792E0,6.480174408E0,-7.752378845E0,2.058369598E0,1.031159171E1
9.719682792E0,6.625372467E0,-7.634274445E0,1.855092316E0,1.027711410E1
9.729690792E0,6.721772003E0,-7.523953857E0,1.636696472E0,1.022109954E1
9.739698792E0,6.773564301E0,-7.392227783E0,1.444645844E0,1.012981770E1
9.749706792E0,6.769223328E0,-7.249125366E0,1.324894867E0,1.000637544E1
9.759714792E0,6.699318695E0,-7.091802521E0,1.246158600E0,9.835011196E0
9.769722792E0,6.562203827E0,-6.935826874E0,1.191522217E0,9.622262659E0
9.779730792E0,6.434369659E0,-6.750362549E0,1.170266418E0,9.398831361E0
9.789738792E0,6.371350708E0,-6.618786163E0,1.221010895E0,9.267864248E0
9.799746792E0,6.377787323E0,-6.553521881E0,1.263073425E0,9.231477382E0
9.809754792E0,6.429579620E0,-6.506519623E0,1.306034088E0,9.240130775E0
9.819762792E0,6.494544525E0,-6.502777405E0,1.351689148E0,9.289364140E0
9.829770792E0,6.543792114E0,-6.479725342E0,1.298699341E0,9.300251379E0
9.839778792E0,6.581663361E0,-6.479725342E0,1.179397430E0,9.311074664E0
9.849786792E0,6.630162506E0,-6.556515656E0,1.082848206E0,9.387199403E0
9.859794792E0,6.690187683E0,-6.689139862E0,1.094523926E0,9.523717024E0
9.869802792E0,6.796915741E0,-6.872059479E0,1.282832336E0,9.750329424E0
9.879810792E0,6.932084656E0,-7.141499176E0,1.574425964E0,1.007638950E1
9.889818792E0,6.995702362E0,-7.353907471E0,1.783391418E0,1.030535257E1
9.899826792E0,6.985224152E0,-7.386090546E0,1.823807373E0,1.032830883E1
9.909834792E0,6.982380066E0,-7.341183929E0,1.839075623E0,1.029702928E1
9.919841792E0,6.978338470E0,-7.249724121E0,1.760189667E0,1.021537935E1
9.929849792E0,7.004833374E0,-7.127578125E0,1.635798340E0,1.012649479E1
9.939857792E0,7.019951935E0,-7.047045593E0,1.562600555E0,1.006887766E1
9.949865792E0,6.992409210E0,-6.951993256E0,1.498533783E0,9.973444755E0
9.959873792E0,6.941964111E0,-6.830296326E0,1.439257050E0,9.844555575E0
9.969881792E0,6.834786987E0,-6.710096283E0,1.382824402E0,9.677391622E0
9.979889792E0,6.693480835E0,-6.596931610E0,1.328038330E0,9.491358078E0
9.989897792E0,6.607559509E0,-6.531966705E0,1.312171326E0,9.383401585E0
9.999905792E0,6.600374451E0,-6.513405304E0,1.362317047E0,9.372582317E0
1.000991379E1,6.688391418E0,-6.651418304E0,1.418001251E0,9.538693452E0
1.001992179E1,6.913822632E0,-6.871760101E0,1.472637634E0,9.858533962E0
1.002992979E1,7.199578400E0,-7.124734039E0,1.570084991E0,1.024992347E1
1.003993779E1,7.524552612E0,-7.388335876E0,1.676513672E0,1.067787887E1
1.004994579E1,7.798632660E0,-7.644303589E0,1.769470367E0,1.106277877E1
1.005995379E1,8.006999359E0,-7.828869781E0,1.796564026E0,1.134155559E1
1.006996179E1,8.109835510E0,-7.922425232E0,1.797611847E0,1.147892251E1
1.007996979E1,8.070167999E0,-7.828420715E0,1.743125153E0,1.137762136E1
1.008997779E1,7.986342316E0,-7.567662964E0,1.621428223E0,1.112116072E1
1.009998579E1,7.877967682E0,-7.462731171E0,1.477128296E0,1.095155876E1
1.010999379E1,7.675289154E0,-7.361990662E0,1.334624634E0,1.071868429E1
1.012000079E1,7.548353119E0,-7.137457581E0,1.310375061E0,1.047081746E1
1.013000879E1,7.539820862E0,-6.975943451E0,1.317560120E0,1.035609243E1
1.014001679E1,7.500153351E0,-7.096143494E0,1.256786499E0,1.040130112E1
1.015002479E1,7.422315216E0,-7.166347504E0,1.125509491E0,1.037853898E1
1.016003279E1,7.469018097E0,-7.133565674E0,1.128952332E0,1.038982791E1
1.017004079E1,7.545509033E0,-7.095544739E0,1.189426575E0,1.042574685E1
1.018004879E1,7.556436310E0,-7.195536804E0,1.190175018E0,1.050199963E1
1.019005679E1,7.480095062E0,-7.335196381E0,1.006956024E0,1.052477499E1
1.020006442E1,7.358697510E0,-7.437284088E0,8.503816223E-1,1.049698874E1
1.021007242E1,7.124584351E0,-7.459288330E0,7.538323975E-1,1.034257936E1
1.022008042E1,6.810238037E0,-7.428452454E0,6.722520447E-1,1.010015697E1
1.023008842E1,6.511459351E0,-7.436236267E0,5.812413025E-1,9.901240031E0
1.024009642E1,6.277495880E0,-7.680977325E0,4.652325439E-1,9.930801001E0
1.025010442E1,5.907315674E0,-7.943681030E0,3.897894287E-1,9.907087492E0
1.026011242E1,5.477259979E0,-8.072712708E0,3.935316467E-1,9.763397692E0
1.027012042E1,5.193749542E0,-8.418194275E0,4.323010254E-1,9.900904673E0
1.028012842E1,4.947062531E0,-8.793613586E0,5.195695496E-1,1.010302035E1
1.029013642E1,4.698279877E0,-9.264085236E0,6.569837952E-1,1.040810918E1
1.030014442E1,4.418511658E0,-9.603429565E0,8.396040344E-1,1.060443490E1
1.031015242E1,4.182452545E0,-9.803413696E0,1.042731628E0,1.070920719E1
1.032016042E1,3.943699036E0,-9.993368683E0,1.147513733E0,1.080448830E1
1.033016742E1,3.796704712E0,-1.004426285E1,1.148411865E0,1.079912185E1
1.034017542E1,3.704795837E0,-1.014350647E1,1.021625519E0,1.084711733E1
1.035018342E1,3.595672760E0,-9.997859344E0,8.105644226E-1,1.065565900E1
1.036019142E1,3.508104858E0,-9.755213928E0,5.059478760E-1,1.037916094E1
1.037019942E1,3.464844818E0,-9.466314697E0,1.463955688E-1,1.008155222E1
1.038020742E1,3.563639374E0,-9.180708618E0,-2.200424194E-1,9.850550999E0
1.039021542E1,3.716022491E0,-8.768166504E0,-5.776487732E-1,9.540610311E0
1.040022342E1,3.885320435E0,-8.315657501E0,-9.128018188E-1,9.223832268E0
1.041023142E1,4.064048767E0,-8.070018311E0,-1.176553345E0,9.111858520E0
1.042023942E1,4.133803711E0,-7.861202545E0,-1.307830353E0,8.977597608E0
1.043024742E1,4.124523010E0,-7.599546661E0,-1.340612183E0,8.749973745E0
1.044025542E1,4.199517059E0,-7.343878326E0,-1.318757629E0,8.561986574E0
1.045026342E1,4.405189362E0,-7.016509094E0,-1.370100861E0,8.397277508E0
1.046027142E1,4.740043030E0,-6.738237762E0,-1.539099426E0,8.380971490E0
1.047027942E1,5.059628448E0,-6.424789581E0,-1.760489044E0,8.365230593E0
1.048028742E1,5.676495667E0,-5.895789642E0,-2.059567108E0,8.439476005E0
1.049029542E1,6.128705292E0,-5.779780884E0,-2.283351746E0,8.728149335E0
1.050030342E1,6.169270935E0,-6.128256226E0,-2.453248444E0,9.035145608E0
1.051031142E1,6.406976624E0,-6.217470703E0,-2.659669189E0,9.315585413E0
1.052031942E1,6.715185699E0,-6.081403656E0,-2.917882233E0,9.517942326E0
1.053032742E1,6.743327179E0,-6.034700775E0,-3.307971039E0,9.634975209E0
1.054033542E1,6.803202667E0,-6.106401672E0,-3.617976379E0,9.831656066E0
1.055034342E1,6.936725006E0,-6.180796967E0,-3.670816498E0,9.989759692E0
1.056035042E1,6.981032867E0,-6.256838837E0,-3.265010376E0,9.926889990E0
1.057035842E1,7.129823456E0,-6.596482544E0,-3.142115936E0,1.020886169E1
1.058036642E1,6.978637848E0,-6.786437531E0,-2.669398956E0,1.009370157E1
1.059037442E1,6.931186523E0,-6.818770294E0,-2.153272247E0,9.958592085E0
1.060038242E1,6.954837341E0,-6.825506287E0,-1.800605621E0,9.909565032E0
1.061039042E1,7.098239136E0,-6.807843018E0,-1.488804016E0,9.947274138E0
1.062039842E1,7.116650848E0,-6.749314728E0,-1.156045990E0,9.876052396E0
1.063040642E1,7.057074738E0,-6.735842743E0,-8.247848511E-1,9.790513335E0
1.064041442E1,7.118896179E0,-6.735842743E0,-3.905378723E-1,9.808301591E0
1.065042242E1,7.301366730E0,-6.787185974E0,8.143066406E-2,9.969076212E0
1.066043042E1,7.498656464E0,-6.731052704E0,5.803431702E-1,1.009325108E1
1.067043842E1,7.669151917E0,-6.644532623E0,9.963281250E-1,1.019599797E1
1.068044642E1,7.947123871E0,-6.636599121E0,1.288969574E0,1.043372744E1
1.069045442E1,8.236921234E0,-6.586902466E0,1.492097168E0,1.065178433E1
1.070046242E1,8.509654083E0,-6.458918610E0,1.576521606E0,1.079894729E1
1.071047042E1,8.728498993E0,-6.258485413E0,1.672771454E0,1.086984354E1
1.072047842E1,9.011710052E0,-6.221063232E0,1.750908966E0,1.108955491E1
1.073048642E1,9.374854889E0,-6.280489655E0,1.684596863E0,1.140922088E1
1.074049442E1,9.808353424E0,-6.276597748E0,1.376836853E0,1.172583284E1
1.075050242E1,1.034977753E1,-6.392007751E0,1.045725403E0,1.220938981E1
1.076051042E1,1.102322708E1,-6.669830017E0,6.071374512E-1,1.289832484E1
1.077051842E1,1.170954987E1,-7.059170380E0,1.716929626E-1,1.367387739E1
1.078052642E1,1.220921082E1,-7.431446228E0,-7.334747314E-2,1.429323622E1
1.079053442E1,1.226444595E1,-7.553143158E0,-2.541714478E-1,1.440594354E1
1.080054142E1,1.163500488E1,-7.341782684E0,-5.510041809E-1,1.376875874E1
1.081054942E1,1.079225739E1,-6.906188507E0,-9.674382019E-1,1.284928776E1
1.082055742E1,9.944570160E0,-6.438411255E0,-1.369502106E0,1.192573483E1
1.083056542E1,9.103618927E0,-5.986501007E0,-1.569785614E0,1.100810151E1
1.084057342E1,8.440048828E0,-5.681884460E0,-1.628912659E0,1.030396000E1
1.085058142E1,7.887547760E0,-5.516628113E0,-1.642983398E0,9.764527119E0
1.086058942E1,7.470365295E0,-5.572012939E0,-1.616638184E0,9.458710528E0
1.087059742E1,7.035070496E0,-5.753285980E0,-1.488953705E0,9.209207327E0
1.088060542E1,6.698570251E0,-5.892346802E0,-1.174757080E0,8.998369210E0
1.089061342E1,6.434070282E0,-6.143225098E0,-8.640032959E-1,8.937727714E0
1.090062142E1,6.154302063E0,-6.604266357E0,-5.860313416E-1,9.046281044E0
1.091062942E1,5.774841156E0,-7.101232910E0,-2.375559998E-1,9.156021629E0
1.092063742E1,5.339995422E0,-7.557633820E0,3.173400879E-1,9.259270208E0
1.093064542E1,4.971312103E0,-7.976313171E0,8.421487427E-1,9.436351538E0
1.094065342E1,4.632566528E0,-8.458610229E0,1.195264435E0,9.717891578E0
1.095066142E1,4.313729553E0,-8.835825806E0,1.313219147E0,9.919910526E0
1.096066942E1,4.048780518E0,-8.988059235E0,1.348395996E0,9.949673575E0
1.097067742E1,3.913611603E0,-9.068591766E0,1.369801483E0,9.971562992E0
1.098068542E1,3.912713470E0,-9.142687683E0,1.281485138E0,1.002697706E1
1.099069342E1,3.962859192E0,-9.101373596E0,1.164877625E0,9.994808362E0
1.100070142E1,4.046984253E0,-8.863368530E0,1.128054199E0,9.808664003E0
1.101070942E1,4.243974609E0,-8.516839142E0,1.172661438E0,9.587648528E0
1.102071742E1,4.567751312E0,-8.249195709E0,1.275647278E0,9.515295995E0
1.103072542E1,4.834346924E0,-8.032147064E0,1.293011169E0,9.463518084E0
1.104073342E1,5.126389618E0,-7.795938263E0,1.171912994E0,9.403717562E0
1.105074042E1,5.584886169E0,-7.627688141E0,9.063652039E-1,9.497056269E0
1.106074842E1,5.902974701E0,-7.381899261E0,6.216572571E-1,9.472275586E0
1.107075642E1,6.203549652E0,-7.203170929E0,3.158432007E-1,9.511543337E0
1.108076442E1,6.560557251E0,-7.207362213E0,-1.392105103E-2,9.746136430E0
1.109077242E1,6.793772278E0,-6.959328003E0,-1.264869690E-1,9.726437527E0
1.110078042E1,6.941215668E0,-6.841672668E0,-1.866618347E-1,9.748015310E0
1.111078842E1,6.908134460E0,-6.745422821E0,-1.887574768E-1,9.657053388E0
1.112079642E1,6.797813873E0,-6.615942078E0,-2.154020691E-1,9.488274927E0
1.113080442E1,6.710096283E0,-6.325545959E0,-1.170565796E-1,9.222343848E0
1.114081242E1,6.650520172E0,-6.006409607E0,-8.981323242E-3,8.961386923E0
1.115082042E1,6.600973206E0,-5.813760223E0,-1.666035461E-1,8.797750391E0
1.116082842E1,6.542744293E0,-5.787265320E0,-4.138893127E-1,8.744783996E0
1.117083642E1,6.592141571E0,-5.907165985E0,-6.066883850E-1,8.872373485E0
1.118084442E1,6.723568268E0,-5.976771240E0,-7.384144592E-1,9.026262827E0
1.119085242E1,6.843169556E0,-5.904621277E0,-7.795788574E-1,9.072004475E0
1.120085658E1,6.897057495E0,-5.895939331E0,-7.090754700E-1,9.101334556E0
1.121086458E1,6.865922241E0,-5.905968475E0,-5.653742981E-1,9.074194176E0
1.122087258E1,6.885232086E0,-5.913901978E0,-4.611909485E-1,9.088088609E0
1.123088058E1,6.950945435E0,-5.978866882E0,-3.707789612E-1,9.176054090E0
1.124088858E1,7.045249329E0,-6.083050232E0,-3.267704773E-1,9.313743456E0
1.125089658E1,7.201674042E0,-6.188580780E0,-3.679348755E-1,9.502526882E0
1.126090458E1,7.463928680E0,-6.400090942E0,-3.974235535E-1,9.840190084E0
1.127091258E1,7.739954681E0,-6.676715698E0,-4.061054993E-1,1.022987550E1
1.128092058E1,8.004304962E0,-6.942113800E0,-4.028123474E-1,1.060302314E1
1.129092858E1,8.185428314E0,-7.061565399E0,-4.454736328E-1,1.081967603E1
1.130093658E1,8.307125244E0,-7.088060303E0,-4.885839844E-1,1.093104034E1
1.131094458E1,8.450976105E0,-7.104376373E0,-4.555027771E-1,1.104982550E1
1.132095158E1,8.644673309E0,-7.133715363E0,-4.168830872E-1,1.121579525E1
1.133095958E1,8.921597443E0,-7.313192139E0,-2.944377136E-1,1.153968690E1
1.134096758E1,9.329648895E0,-7.696694641E0,-1.899549866E-1,1.209617873E1
1.135097558E1,9.900561676E0,-8.152347107E0,-9.011260986E-2,1.282536569E1
1.136098358E1,1.061712158E1,-8.694819031E0,-4.191284180E-3,1.372308880E1
1.137099158E1,1.137230118E1,-9.288634186E0,7.589218140E-2,1.468379102E1
1.138099958E1,1.189157135E1,-9.708810425E0,1.429527283E-1,1.535222800E1
1.139100758E1,1.186028641E1,-9.719138947E0,1.254391479E-1,1.533439893E1
1.140101558E1,1.103415436E1,-9.179062042E0,-1.267863464E-1,1.435352978E1
1.141102358E1,9.980345764E0,-8.436905365E0,-3.950285339E-1,1.307458302E1
1.142103158E1,9.032816162E0,-8.021219788E0,-4.728666687E-1,1.208947218E1
1.143103958E1,8.150850220E0,-7.465425568E0,-4.526586914E-1,1.106227093E1
1.144104758E1,7.288643188E0,-7.066804504E0,-4.263134766E-1,1.016099349E1
1.145105558E1,6.531966705E0,-6.745123444E0,-4.355941772E-1,9.399628801E0
1.146106358E1,6.054609375E0,-6.678212585E0,-4.324507141E-1,9.024623629E0
1.147107158E1,5.777984619E0,-6.873556366E0,-4.773573303E-1,8.992149543E0
1.148107958E1,5.519771576E0,-7.049290924E0,-4.614903259E-1,8.965118745E0
1.149108758E1,5.172942810E0,-7.333699493E0,-3.698808289E-1,8.982165519E0
1.150109558E1,4.751269684E0,-7.643704834E0,-2.188449097E-1,9.002704054E0
1.151110358E1,4.209995270E0,-8.038433990E0,-5.748046875E-2,9.074347646E0
1.152111158E1,3.542383575E0,-8.528664551E0,3.237767029E-1,9.240748442E0
1.153111958E1,3.015329590E0,-9.104067993E0,8.890013123E-1,9.631541408E0
1.154112758E1,2.595602417E0,-9.332942047E0,1.276695099E0,9.770921632E0
1.155113558E1,2.133363647E0,-9.829609222E0,1.405277710E0,1.015614412E1
1.156114358E1,1.969304810E0,-1.130419281E1,1.613195343E0,1.158729199E1
1.157115158E1,1.394200745E0,-1.165910477E1,1.768721924E0,1.187463250E1
1.158115958E1,1.267713776E0,-1.080602875E1,1.513203278E0,1.098485957E1
1.159116758E1,1.747466125E0,-1.011701157E1,7.830216980E-1,1.029663459E1
1.160117558E1,2.196083221E0,-9.429790649E0,-1.541793823E-1,9.683362251E0
1.161118358E1,2.624043274E0,-8.397836609E0,-1.298849030E0,8.893608470E0
1.162119058E1,3.113824768E0,-7.433541870E0,-2.306254120E0,8.382854972E0
1.163119858E1,3.386707306E0,-7.378606110E0,-2.632425842E0,8.534827492E0
1.164120658E1,3.764072571E0,-7.552394714E0,-2.771037598E0,8.881754197E0
1.165121458E1,4.039350128E0,-7.582482147E0,-2.709365845E0,9.008387661E0
1.166122258E1,4.285139008E0,-7.507338409E0,-2.558928680E0,9.015024254E0
1.167123058E1,4.602928162E0,-7.635921021E0,-2.274370422E0,9.201467182E0
1.168123858E1,4.931644592E0,-7.599247284E0,-1.969604187E0,9.270869340E0
1.169124658E1,6.086044006E0,-6.337970123E0,-1.758842468E0,8.961212181E0
1.170125458E1,8.434210968E0,-3.203188934E0,-1.542242889E0,9.152860052E0
1.171126258E1,8.221652985E0,-2.328408051E0,-1.542392578E0,8.683089123E0
1.172127058E1,6.880741425E0,-4.072880402E0,-1.233734436E0,8.090430024E0
1.173127858E1,7.399412842E0,-4.971012726E0,-1.332978058E0,9.013274013E0
1.174128658E1,7.722291412E0,-5.182073822E0,-2.060165863E0,9.525332390E0
1.175129458E1,7.466323700E0,-4.630321198E0,-2.795736237E0,9.219653198E0
1.176130258E1,7.151228943E0,-4.196373596E0,-3.034789124E0,8.829471772E0
1.177131058E1,6.810088348E0,-4.478536835E0,-2.761607208E0,8.605874149E0
1.178131858E1,6.764732666E0,-4.762945404E0,-2.268981628E0,8.578783981E0
1.179132658E1,6.840325470E0,-5.065017242E0,-1.744023285E0,8.688271947E0
1.180133458E1,6.921756134E0,-5.350323944E0,-1.144969025E0,8.823130304E0
1.181134258E1,7.063960419E0,-5.646707611E0,-5.536985779E-1,9.060431875E0
1.182135058E1,7.293283539E0,-5.970783691E0,3.128494263E-2,9.425668221E0
1.183135858E1,7.525750122E0,-6.003565521E0,5.837860107E-1,9.644714613E0
1.184136658E1,7.736960907E0,-5.863606567E0,9.163943481E-1,9.751011468E0
1.185137458E1,7.832013245E0,-5.752986603E0,1.016236725E0,9.770876286E0
1.186138258E1,7.872578888E0,-5.639522552E0,9.163943481E-1,9.727357892E0
1.187139058E1,7.973319397E0,-5.506299591E0,7.557783508E-1,9.719277664E0
1.188139858E1,8.159532166E0,-5.416336670E0,5.644761658E-1,9.809857360E0
1.189140658E1,8.299042053E0,-5.336702271E0,3.969744873E-1,9.874820447E0
1.190141458E1,8.622968445E0,-5.307812347E0,1.892065430E-1,1.012740124E1
1.191142258E1,9.030720520E0,-5.247338104E0,-8.981323242E-3,1.044454647E1
1.192143058E1,9.409882050E0,-5.241051178E0,-1.769320679E-1,1.077245574E1
1.193143858E1,9.865384827E0,-5.276826782E0,-3.969744873E-1,1.119501261E1
1.194144558E1,1.023631348E1,-5.291945343E0,-6.403683472E-1,1.154109487E1
1.195145358E1,1.037208115E1,-5.235961761E0,-8.399034119E-1,1.164906866E1
1.196146158E1,1.065334625E1,-5.219496002E0,-1.129251709E0,1.191688442E1
1.197146958E1,1.115630035E1,-5.404960327E0,-1.520837402E0,1.248957886E1
1.198147758E1,1.183409088E1,-5.877078552E0,-1.967059479E0,1.335870811E1
1.199148558E1,1.265124161E1,-6.453529816E0,-2.299218750E0,1.438709033E1
1.200149358E1,1.312530579E1,-7.382198639E0,-2.190245361E0,1.521734811E1
1.201150158E1,1.265992355E1,-8.515491943E0,-1.919009399E0,1.537757668E1
1.202150958E1,1.170206543E1,-9.147926788E0,-1.745520172E0,1.495559228E1
1.203151758E1,1.071022797E1,-9.264384613E0,-1.673968964E0,1.425973273E1
1.204152558E1,1.002510269E1,-9.109456787E0,-1.636696472E0,1.364418053E1
1.205153358E1,9.404044189E0,-9.097781067E0,-1.579066315E0,1.317949612E1
1.206154158E1,8.733588409E0,-9.257648621E0,-1.626667328E0,1.283065357E1
1.207154958E1,7.986342316E0,-9.399852905E0,-1.636247406E0,1.244251598E1
1.208155758E1,6.907386017E0,-9.429940338E0,-1.430275726E0,1.177630863E1
1.209156558E1,5.488786011E0,-9.429341583E0,-9.530680847E-1,1.095205886E1
1.210157358E1,4.188739471E0,-9.331145782E0,-1.029858398E-1,1.022870598E1
1.211158158E1,3.087329865E0,-9.207053833E0,7.752378845E-1,9.741788324E0
1.212158958E1,2.353555756E0,-9.008865967E0,1.436862030E0,9.421436366E0
1.213159758E1,2.102827148E0,-8.651109924E0,1.739532623E0,9.071359252E0
1.214160558E1,2.056423645E0,-8.257129211E0,1.783840485E0,8.694316989E0
1.215161358E1,2.183509369E0,-7.854616241E0,1.600471802E0,8.308081575E0
1.216162158E1,2.389630737E0,-7.598199463E0,1.256038055E0,8.063535312E0
1.217162958E1,2.598446503E0,-7.280859375E0,9.075627136E-1,7.783733522E0
1.218163758E1,3.203488312E0,-7.109765167E0,8.797206116E-1,7.847611513E0
1.219164558E1,3.855682068E0,-6.973847809E0,1.156794434E0,8.052267434E0
1.220165342E1,4.458029480E0,-7.046746216E0,1.287921753E0,8.437381200E0
1.221166142E1,5.002297668E0,-7.213499451E0,1.389261017E0,8.887496974E0
1.222166942E1,5.729036407E0,-6.848857727E0,1.423689423E0,9.041880440E0
1.223167742E1,7.021299133E0,-6.115981750E0,1.745370483E0,9.473657816E0
1.224168542E1,7.772586823E0,-6.162085876E0,1.919159088E0,1.010285009E1
1.225169342E1,7.077582092E0,-7.086563416E0,1.953437805E0,1.020428677E1
1.226170142E1,6.944808197E0,-7.501500549E0,1.561702423E0,1.034126616E1
1.227170942E1,6.988068237E0,-7.732619934E0,1.190175018E0,1.049013943E1
1.228171742E1,7.069798279E0,-7.460635529E0,9.196875000E-1,1.031934859E1
1.229172542E1,7.082072754E0,-7.167395325E0,3.748205566E-1,1.008304521E1
1.230173242E1,7.155120850E0,-7.003935242E0,-1.998344421E-1,1.001452930E1
1.231174042E1,7.261848907E0,-6.855294342E0,-5.120851135E-1,9.999587053E0
1.232174842E1,7.266938324E0,-6.651118927E0,-8.080197144E-1,9.884263829E0
1.233175642E1,7.343429260E0,-6.518644409E0,-1.117126923E0,9.882643917E0
1.234176442E1,7.265142059E0,-6.437812500E0,-1.307231598E0,9.794721710E0
1.235177242E1,7.105424194E0,-6.458918610E0,-1.264570312E0,9.685237254E0
1.236178042E1,6.961573334E0,-6.173162842E0,-1.155297546E0,9.375828239E0
1.237178842E1,6.848558350E0,-5.890999603E0,-1.090332642E0,9.099200683E0
1.238179642E1,6.814878387E0,-5.821693726E0,-1.147663422E0,9.036139474E0
1.239180442E1,6.676865387E0,-5.562881927E0,-1.130299530E0,8.763775657E0
1.240181242E1,6.744225311E0,-5.436544647E0,-1.128503265E0,8.735794891E0
1.241182042E1,6.626569977E0,-5.236710205E0,-1.049317932E0,8.510912498E0
1.242182842E1,6.574927368E0,-5.140460358E0,-8.071215820E-1,8.384834395E0
1.243183642E1,6.421496429E0,-5.139562225E0,-4.592449951E-1,8.237816593E0
1.244184442E1,6.327641602E0,-5.188211060E0,-2.395019531E-1,8.186204458E0
1.245185242E1,6.237528992E0,-5.245092773E0,-2.501298523E-1,8.153547146E0
1.246186042E1,6.180647278E0,-5.420228577E0,-3.314108276E-1,8.227339286E0
1.247186842E1,6.208339691E0,-5.633085938E0,-4.556524658E-1,8.395401007E0
1.248187642E1,6.253845062E0,-5.950725403E0,-5.034031677E-1,8.647261164E0
1.249188442E1,6.478527832E0,-6.277046814E0,-5.261558533E-1,9.036010157E0
1.250189242E1,6.474186859E0,-6.472689972E0,-4.793032837E-1,9.167362903E0
1.251190042E1,6.494245148E0,-6.693181458E0,-3.367996216E-1,9.332059368E0
1.252190842E1,6.694079590E0,-6.902595978E0,-2.505789185E-1,9.618696512E0
1.253191642E1,6.823111267E0,-6.970404968E0,-1.854643250E-1,9.755808003E0
1.254192442E1,6.943311310E0,-6.979835358E0,1.362167358E-2,9.845194722E0
1.255193242E1,7.302564240E0,-7.019353180E0,1.682501221E-1,1.013050204E1
1.256194042E1,7.695347443E0,-7.101232910E0,1.854643250E-1,1.047283525E1
1.257194842E1,8.070916443E0,-7.163503418E0,2.329156494E-1,1.079396698E1
1.258195642E1,8.501870270E0,-7.285499725E0,2.368075562E-1,1.119894558E1
1.259196442E1,9.035959625E0,-7.527696075E0,1.691482544E-1,1.176194651E1
1.260197242E1,9.691446533E0,-7.868088226E0,8.906478882E-2,1.248354440E1
1.261198042E1,1.058359131E1,-8.410560150E0,2.739303589E-2,1.351853089E1
1.262198842E1,1.160701309E1,-9.152417450E0,8.412506104E-2,1.478162965E1
1.263199642E1,1.253957382E1,-9.856852570E0,2.167492676E-1,1.595134585E1
1.264200442E1,1.331451233E1,-1.043944107E1,3.571572876E-1,1.692293502E1
1.265201242E1,1.348425934E1,-1.073417816E1,4.343966675E-1,1.724054904E1
1.266202042E1,1.256142838E1,-1.043420197E1,2.228865051E-1,1.633131139E1
1.267202842E1,1.110016708E1,-9.790091400E0,-9.131011963E-3,1.480066493E1
1.268203642E1,9.474397888E0,-9.249715118E0,5.583389282E-2,1.324101818E1
1.269204442E1,7.999963989E0,-8.781039734E0,1.776805115E-1,1.188013691E1
1.270205242E1,6.701564026E0,-8.495283966E0,2.080673218E-1,1.082238893E1
1.271205942E1,5.566025391E0,-8.298143921E0,1.428030396E-1,9.993008751E0
1.272206742E1,4.634213104E0,-8.368497620E0,5.358856201E-2,9.566114950E0
1.273207542E1,3.865711212E0,-8.636440430E0,1.366658020E-1,9.463112808E0
1.274208342E1,3.205434265E0,-8.887169037E0,1.727407837E-1,9.449149258E0
1.275209142E1,2.820734253E0,-9.229656830E0,5.763015747E-2,9.651239721E0
1.276209942E1,2.779569855E0,-1.021685394E1,-9.220825195E-2,1.058860781E1
1.277210742E1,2.286944275E0,-1.006521927E1,-1.547781372E-1,1.032292155E1
1.278211542E1,2.110161896E0,-1.023242157E1,-3.034190369E-1,1.045214320E1
1.279212342E1,2.295177155E0,-9.607770538E0,-4.761598206E-1,9.889581440E0
1.280213142E1,3.168311462E0,-9.632319489E0,-9.867480469E-1,1.018790695E1
1.281213942E1,3.577859802E0,-8.621770935E0,-1.416803741E0,9.441575486E0
1.282214742E1,3.877686310E0,-7.833360443E0,-1.788331146E0,8.921665497E0
1.283215542E1,3.837719421E0,-7.360793152E0,-1.739083557E0,8.481378296E0
1.284216342E1,3.864364014E0,-7.083270264E0,-1.497485962E0,8.206612643E0
1.285217142E1,3.975882111E0,-6.876699829E0,-1.221310272E0,8.036680775E0
1.286217942E1,4.033512268E0,-6.600524139E0,-9.467811584E-1,7.793108154E0
1.287218742E1,4.392316132E0,-6.174060974E0,-6.755451965E-1,7.607090852E0
1.288219542E1,5.396577759E0,-5.092859344E0,-4.403842163E-1,7.433317299E0
1.289220342E1,5.957162018E0,-4.042493591E0,-9.789642334E-2,7.199938712E0
1.290221142E1,5.128485260E0,-4.843477936E0,2.866539001E-1,7.059944053E0
1.291221942E1,4.824168091E0,-5.748645630E0,1.826202393E-1,7.506855167E0
1.292222742E1,4.903802490E0,-5.852828979E0,-2.359094238E-1,7.639276090E0
1.293223542E1,4.863985291E0,-5.619913330E0,-6.941065979E-1,7.464821680E0
1.294224342E1,4.960384827E0,-5.520819397E0,-6.620732117E-1,7.451389493E0
1.295225142E1,4.960085449E0,-5.670657806E0,-2.962339783E-1,7.539665920E0
1.296225942E1,5.049299927E0,-5.791157227E0,7.274871826E-2,7.683633525E0
1.297226742E1,5.201832733E0,-5.753435669E0,3.607498169E-1,7.764742508E0
1.298227542E1,5.255121918E0,-5.736221466E0,5.125341797E-1,7.796360328E0
1.299228342E1,5.342390442E0,-5.642067261E0,6.162684631E-1,7.794475314E0
1.300229142E1,5.419031067E0,-5.583089905E0,6.381230164E-1,7.806663280E0
1.301229942E1,5.487887878E0,-5.677393799E0,5.598358154E-1,7.916004665E0
1.302230742E1,5.715115356E0,-5.823789368E0,4.607418823E-1,8.172597458E0
1.303231542E1,6.054309998E0,-6.062991943E0,4.306544495E-1,8.579044475E0
1.304232342E1,6.361471252E0,-6.253994751E0,5.075944519E-1,8.935234690E0
1.305233142E1,6.669081573E0,-6.380781097E0,6.867718506E-1,9.255413120E0
1.306233942E1,6.979386292E0,-6.476581879E0,8.984317017E-1,9.563740134E0
1.307234742E1,7.289990387E0,-6.436315613E0,1.084943848E0,9.785050928E0
1.308235542E1,7.578290863E0,-6.340664520E0,1.207239532E0,9.954493772E0
1.309236342E1,7.834707642E0,-6.155798950E0,1.159189453E0,1.003096330E1
1.310237142E1,8.044271851E0,-5.905669098E0,1.017134857E0,1.003104184E1
1.311237942E1,8.206534424E0,-5.618117065E0,8.273295593E-1,9.979725488E0
1.312238742E1,8.350684662E0,-5.332660675E0,5.691165161E-1,9.924469649E0
1.313239542E1,8.421038361E0,-5.018014984E0,3.474275208E-1,9.808927940E0
1.314240342E1,8.539891205E0,-4.765490112E0,1.058299255E-1,9.780124630E0
1.315241142E1,8.801846466E0,-4.614304504E0,3.442840576E-2,9.938082943E0
1.316241942E1,9.190288696E0,-4.537963257E0,-1.137634277E-2,1.024961688E1
1.317242742E1,9.716743927E0,-4.682861938E0,2.859054565E-2,1.078633978E1
1.318243542E1,1.029529083E1,-4.909191284E0,2.624043274E-1,1.140885745E1
1.319244242E1,1.090841583E1,-5.187163239E0,4.442761230E-1,1.208708318E1
1.320245479E1,1.181268539E1,-5.608536987E0,4.071533203E-2,1.307657758E1
1.321246279E1,1.283625687E1,-6.185137939E0,-5.861810303E-1,1.426075138E1
1.322247079E1,1.392329636E1,-7.003186798E0,-1.235680389E0,1.563424807E1
1.323247879E1,1.483984039E1,-8.381819916E0,-1.738335114E0,1.713177098E1
1.324248679E1,1.461725327E1,-1.001806732E1,-1.486858063E0,1.778304003E1
1.325249479E1,1.343710739E1,-1.053584061E1,-1.427281952E0,1.713467029E1
1.326250279E1,1.184591629E1,-9.974058838E0,-1.951342163E0,1.560818115E1
1.327251079E1,1.015982254E1,-9.017996979E0,-2.309397583E0,1.377967999E1
1.328251879E1,9.212292938E0,-8.596623230E0,-2.026635590E0,1.276226955E1
1.329252679E1,8.659642181E0,-8.868907013E0,-1.545386353E0,1.249140237E1
1.330253479E1,7.851023712E0,-9.033414917E0,-1.311422882E0,1.203997460E1
1.331254279E1,6.820267181E0,-8.995543671E0,-1.069974976E0,1.133934287E1
1.332255079E1,5.818849640E0,-8.651409302E0,-7.153623962E-1,1.045072425E1
1.333255879E1,4.714146881E0,-8.750652924E0,7.738906860E-2,9.939974672E0
1.334256679E1,3.695814514E0,-9.148974609E0,5.480104065E-1,9.882464102E0
1.335257479E1,2.521805878E0,-9.713151398E0,1.345402222E0,1.012496529E1
1.336258279E1,1.817520447E0,-1.021026764E1,2.540367279E0,1.067737851E1
1.337259079E1,1.543590088E0,-9.867031403E0,2.884351959E0,1.039521358E1
1.338259879E1,1.403780823E0,-9.307494965E0,2.780767365E0,9.814923853E0
1.339260679E1,1.601819000E0,-9.134903870E0,2.265838165E0,9.547057945E0
1.340261479E1,1.972448273E0,-9.180558929E0,1.648821259E0,9.533720469E0
1.341262279E1,2.337239685E0,-9.240584106E0,8.755293274E-1,9.571710170E0
1.342263079E1,2.963237915E0,-9.008117523E0,7.783813477E-2,9.483302116E0
1.343263879E1,3.599564667E0,-8.654403076E0,-1.303788757E-1,9.374036326E0
1.344264679E1,4.057312775E0,-8.477920074E0,3.098556519E-2,9.398823110E0
1.345265479E1,4.296964417E0,-8.263116760E0,3.899391174E-1,9.321751676E0
1.346266279E1,4.389172668E0,-7.910450134E0,7.589218140E-1,9.078326958E0
1.347267079E1,4.357139282E0,-7.612419891E0,9.250762939E-1,8.819827973E0
1.348267879E1,4.368815002E0,-7.436835022E0,6.614744568E-1,8.650468665E0
1.349268679E1,4.501588898E0,-7.363038483E0,1.393601990E-1,8.631225844E0
1.350269479E1,4.859344940E0,-7.155120850E0,-3.391946411E-1,8.655867410E0
1.351270279E1,5.672304382E0,-6.654112701E0,-7.045848083E-1,8.772040390E0
1.352271079E1,6.770271149E0,-5.494174805E0,-9.147477722E-1,8.766943122E0
1.353271879E1,7.285350037E0,-5.163811798E0,-8.240364075E-1,8.967737365E0
1.354272679E1,6.647975464E0,-6.388864288E0,-6.700067139E-1,9.244569955E0
1.355273479E1,6.685846710E0,-6.564748535E0,-6.777905273E-1,9.394459514E0
1.356274279E1,6.633305969E0,-6.583609314E0,-6.282435608E-1,9.366928507E0
1.357275079E1,6.613097992E0,-6.447542267E0,-6.021977234E-1,9.255620370E0
1.358275879E1,6.559210052E0,-6.236481171E0,-5.719606018E-1,9.068851793E0
1.359276679E1,6.489904175E0,-6.150260468E0,-5.090913391E-1,8.955653745E0
1.360277479E1,6.427483978E0,-5.973627777E0,-3.855981445E-1,8.783249116E0
1.361278279E1,6.382277985E0,-5.895939331E0,-1.023870850E-1,8.689422074E0
1.362279079E1,6.339017944E0,-5.820945282E0,2.746788025E-1,8.610574947E0
1.363279879E1,6.416107635E0,-5.871390381E0,4.790039062E-1,8.710287420E0
1.364280679E1,6.622229004E0,-5.987099762E0,5.213658142E-1,8.942656364E0
1.365281479E1,6.876699829E0,-6.173162842E0,3.821553040E-1,9.248944950E0
1.366282279E1,7.078779602E0,-6.338269501E0,1.344204712E-1,9.502675927E0
1.367283079E1,7.253017273E0,-6.427783356E0,-1.821711731E-1,9.693082315E0
1.368283879E1,7.383845215E0,-6.543492737E0,-4.628375244E-1,9.876876324E0
1.369284679E1,7.614515533E0,-6.713988190E0,-6.017486572E-1,1.016959122E1
1.370285479E1,7.769293671E0,-6.910978546E0,-5.607339478E-1,1.041335542E1
1.371286279E1,7.793992310E0,-7.020251312E0,-3.472778320E-1,1.049527734E1
1.372287079E1,7.828570404E0,-7.125033417E0,-7.469467163E-2,1.058575435E1
1.373287879E1,7.947572937E0,-7.272177429E0,1.212478638E-1,1.077326233E1
1.374288679E1,8.100554810E0,-7.365283813E0,2.180964661E-1,1.095052327E1
1.375289479E1,8.396788788E0,-7.561525726E0,3.150947571E-1,1.130407086E1
1.376290279E1,8.925339661E0,-7.942333832E0,4.384382629E-1,1.195552520E1
1.377291079E1,9.518705750E0,-8.420888672E0,5.273533630E-1,1.271987526E1
1.378291879E1,1.011611343E1,-8.783734131E0,5.822891235E-1,1.341002598E1
1.379292679E1,1.087024521E1,-9.365873566E0,6.164181519E-1,1.436181708E1
1.380293479E1,1.135643417E1,-9.821226654E0,5.538482666E-1,1.502437480E1
1.381294279E1,1.136960678E1,-9.745633850E0,3.902384949E-1,1.497990733E1
1.382295079E1,1.058344162E1,-9.038354645E0,-1.203497314E-1,1.391817428E1
1.383295879E1,9.326954498E0,-8.055498505E0,-5.801934814E-1,1.233773727E1
1.384296579E1,8.141868896E0,-7.237299957E0,-7.429051208E-1,1.091881165E1
1.385297379E1,7.284601593E0,-6.921905823E0,-7.951464844E-1,1.008020131E1
1.386298179E1,6.756350098E0,-6.912325745E0,-6.836283875E-1,9.689987699E0
1.387298979E1,6.420149231E0,-7.066954193E0,-3.393443298E-1,9.553811401E0
1.388299779E1,6.268065491E0,-7.251520386E0,3.442840576E-3,9.585051109E0
1.389300579E1,6.189029846E0,-7.478448486E0,2.453398132E-1,9.710379695E0
1.390301379E1,6.154451752E0,-7.813900909E0,3.147953796E-1,9.951553643E0
1.391302179E1,6.071374512E0,-8.258326721E0,2.826123047E-1,1.025384896E1
1.392302979E1,5.864953766E0,-8.749605103E0,2.420466614E-1,1.053621653E1
1.393303779E1,5.447621613E0,-9.198820953E0,3.330574036E-1,1.069606542E1
1.394304579E1,4.978197784E0,-9.545949097E0,5.634283447E-1,1.078077218E1
1.395305379E1,4.649930420E0,-9.743089142E0,8.309220886E-1,1.082774540E1
1.396306179E1,4.283043365E0,-9.952803040E0,1.224453735E0,1.090422101E1
1.397306979E1,3.960464172E0,-1.010952713E1,1.499431915E0,1.096066199E1
1.398307779E1,3.568130035E0,-1.001612137E1,1.520388336E0,1.074084819E1
1.399308579E1,3.172353058E0,-9.716294861E0,1.343456268E0,1.030898077E1
1.400309379E1,2.903661804E0,-9.158105621E0,1.218915253E0,9.684415565E0
1.401310179E1,2.778222656E0,-8.343349915E0,1.282233582E0,8.886739103E0
1.402310979E1,2.922672272E0,-7.471712494E0,1.115330658E0,8.100152053E0
1.403311779E1,3.097359009E0,-6.680308228E0,5.544470215E-1,7.384278052E0
1.404312579E1,3.266357574E0,-6.075865173E0,-1.733395386E-1,6.900382309E0
1.405313379E1,3.371738434E0,-5.587131500E0,-8.514294434E-1,6.581002246E0
1.406314179E1,3.168910217E0,-5.508395233E0,-1.365161133E0,6.499851916E0
1.407314979E1,3.040327606E0,-5.873336334E0,-2.170037384E0,6.960512474E0
1.408315779E1,3.097209320E0,-6.122268677E0,-2.764002228E0,7.396930961E0
1.409316579E1,3.279230804E0,-6.277346191E0,-3.107837219E0,7.734150377E0
1.410317379E1,3.523073730E0,-6.386918335E0,-3.002755737E0,7.888048957E0
1.411318179E1,3.754342804E0,-6.439010010E0,-2.618055725E0,7.900009847E0
1.412318979E1,4.157005463E0,-6.376440125E0,-2.060614929E0,7.885798435E0
1.413319779E1,4.836891632E0,-6.020630035E0,-1.726659393E0,7.913587009E0
1.414320579E1,5.649851074E0,-5.439089355E0,-1.505569153E0,7.985690243E0
1.415321379E1,6.405330048E0,-4.951852570E0,-1.224453735E0,8.188307752E0
1.416322179E1,6.649921417E0,-5.304219818E0,-9.403445435E-1,8.558063484E0
1.417322979E1,6.842421112E0,-6.169420624E0,-5.384303284E-1,9.228780240E0
1.418323779E1,7.318580933E0,-6.478976898E0,-2.835104370E-1,9.778504317E0
1.419324579E1,7.827073517E0,-6.357130280E0,-1.978884888E-1,1.008540257E1
1.420325342E1,8.176896057E0,-6.216273193E0,-2.700384521E-1,1.027504756E1
1.421326142E1,8.440497894E0,-6.158643036E0,-1.428030396E-1,1.044946321E1
1.422326942E1,8.741970978E0,-6.188730469E0,2.553689575E-1,1.071390007E1
1.423327742E1,9.033265228E0,-6.090384979E0,6.330335999E-1,1.091299232E1
1.424328542E1,9.358688507E0,-5.893095245E0,8.216413879E-1,1.109002780E1
1.425329342E1,9.637857971E0,-5.816753998E0,7.012916565E-1,1.127895134E1
1.426330142E1,9.806108093E0,-5.752986603E0,4.694238281E-1,1.137879473E1
1.427330942E1,9.917177124E0,-5.695655823E0,9.744735718E-2,1.143679996E1
1.428331742E1,1.007973907E1,-5.573958893E0,-4.162843323E-1,1.152577330E1
1.429332542E1,1.007210495E1,-5.460195465E0,-8.360115051E-1,1.148738212E1
1.430333342E1,9.797126770E0,-4.801415405E0,-9.108558655E-1,1.094837619E1
1.431334142E1,9.832902374E0,-4.458777924E0,-9.026229858E-1,1.083426961E1
1.432334942E1,9.738299103E0,-4.309538269E0,-9.532177734E-1,1.069182929E1
1.433335742E1,9.676477661E0,-4.046086121E0,-1.291514282E0,1.056754664E1
1.434336542E1,9.965077515E0,-4.025279388E0,-1.698966980E0,1.088081490E1
1.435337342E1,1.056068893E1,-4.477788391E0,-2.026785278E0,1.164845905E1
1.436338142E1,1.152273834E1,-5.012626190E0,-2.507884827E0,1.281364142E1
1.437338942E1,1.287293060E1,-5.843847656E0,-2.687960358E0,1.439055345E1
1.438339742E1,1.399574570E1,-7.174281006E0,-2.363884277E0,1.590406094E1
1.439340542E1,1.416938461E1,-8.467741241E0,-1.790875854E0,1.660365437E1
1.440341342E1,1.325209213E1,-8.972341919E0,-1.098116455E0,1.604140658E1
1.441342142E1,1.186971680E1,-8.453820190E0,-7.629634094E-1,1.459244208E1
1.442342942E1,1.085617447E1,-7.792645111E0,-9.708810425E-1,1.339867351E1
1.443343742E1,1.021460861E1,-7.505691833E0,-1.315464478E0,1.274378616E1
1.444344542E1,9.660610657E0,-7.439679108E0,-1.515448608E0,1.228709925E1
1.445345342E1,9.056466980E0,-7.303612061E0,-1.450783081E0,1.172463709E1
1.446346142E1,8.350984039E0,-7.061715088E0,-1.295256500E0,1.101292167E1
1.447346942E1,7.685617676E0,-6.760541382E0,-9.310638428E-1,1.027815736E1
1.448347742E1,7.044500885E0,-6.616840210E0,-4.848417664E-1,9.676912660E0
1.449348542E1,6.319708099E0,-6.779402161E0,-1.652563477E-1,9.269644749E0
1.450349342E1,5.433999939E0,-7.365583191E0,1.089733887E-1,9.153799554E0
1.451350142E1,4.450395355E0,-8.111781464E0,6.072871399E-1,9.272314436E0
1.452350942E1,3.507057037E0,-8.776249695E0,1.320404205E0,9.542823221E0
1.453351742E1,2.711760864E0,-9.338929596E0,1.958976288E0,9.920022232E0
1.454352542E1,2.016456757E0,-9.629475403E0,2.404000854E0,1.012778922E1
1.455353342E1,1.391506348E0,-9.885293427E0,2.599943390E0,1.031576569E1
1.456354142E1,7.948471069E-1,-1.001836670E1,2.874622192E0,1.045288984E1
1.457354942E1,6.101312256E-1,-9.694140930E0,2.802172852E0,1.010944119E1
1.458355742E1,6.732998657E-1,-9.602830811E0,2.308798828E0,9.899406261E0
1.459356542E1,7.801776123E-1,-9.753118286E0,1.746418304E0,9.938911928E0
1.460357342E1,1.026116180E0,-9.949060822E0,1.261426849E0,1.008106757E1
1.461358142E1,1.471290436E0,-1.015862503E1,8.746311951E-1,1.030181235E1
1.462358942E1,2.398911438E0,-9.809700623E0,6.721023560E-1,1.012110290E1
1.463359742E1,3.474275208E0,-9.262139282E0,6.953041077E-1,9.916716196E0
1.464360542E1,4.403243408E0,-8.740923157E0,8.234376526E-1,9.821931567E0
1.465361342E1,5.182822266E0,-8.408015442E0,8.235873413E-1,9.911340294E0
1.466362142E1,5.717959442E0,-8.228688354E0,6.632707214E-1,1.004222586E1
1.467362942E1,6.192622375E0,-8.283474426E0,3.058140564E-1,1.034688565E1
1.468363742E1,7.058571625E0,-7.903564453E0,-5.463638306E-2,1.059682734E1
1.469364542E1,1.015548157E1,-4.366270294E0,-3.391946411E-1,1.105952870E1
1.470365342E1,1.076157120E1,-3.030448151E0,1.654060364E-1,1.118134114E1
1.471366142E1,8.117619324E0,-5.746849365E0,1.324745178E-1,9.946837216E0
1.472366942E1,7.535928955E0,-5.716163177E0,-7.080276489E-1,9.485043481E0
1.473367742E1,7.122039642E0,-5.822891235E0,-1.299896851E0,9.290814971E0
1.474368542E1,6.928791504E0,-5.778134308E0,-1.740730133E0,9.188314817E0
1.475369342E1,6.907086639E0,-5.205724640E0,-1.994452515E0,8.876105886E0
1.476370142E1,6.861880646E0,-4.885390778E0,-1.930535431E0,8.641725296E0
1.477370942E1,6.814279633E0,-4.768334198E0,-1.599274292E0,8.469303171E0
1.478371742E1,6.658902740E0,-4.790637817E0,-1.197509766E0,8.290067915E0
1.479372542E1,6.445746002E0,-4.958588562E0,-7.970924377E-1,8.171327824E0
1.480373342E1,6.230643311E0,-5.159171448E0,-6.144721985E-1,8.112677867E0
1.481374142E1,6.123765564E0,-5.326523438E0,-7.063810730E-1,8.146860182E0
1.482374942E1,6.280789032E0,-5.526058502E0,-1.010398865E0,8.426537800E0
1.483375742E1,6.597081299E0,-5.858068085E0,-1.422042847E0,8.936478569E0
1.484376542E1,6.949897614E0,-6.200855255E0,-1.712738342E0,9.470224673E0
1.485377342E1,7.243736572E0,-6.525380402E0,-1.770069122E0,9.908857331E0
1.486378142E1,7.568710785E0,-6.746770020E0,-1.484612732E0,1.024735886E1
1.487378942E1,7.777676239E0,-6.818620605E0,-1.050665131E0,1.039662118E1
1.488379742E1,7.978109436E0,-6.904092865E0,-5.831872559E-1,1.056677982E1
1.489380542E1,8.208480377E0,-7.022346954E0,-1.939965820E-1,1.080417241E1
1.490381342E1,8.317603455E0,-7.198380890E0,8.726852417E-2,1.100031047E1
1.491382142E1,8.395890656E0,-7.434589691E0,1.523831177E-1,1.121549483E1
1.492382942E1,8.550369415E0,-7.658374329E0,2.903961182E-2,1.147869147E1
1.493383742E1,8.804540863E0,-7.928412781E0,-6.242019653E-2,1.184835707E1
1.494384542E1,9.258546753E0,-8.292455750E0,-9.235794067E-2,1.242956316E1
1.495385342E1,9.948013000E0,-8.719367981E0,-7.529342651E-2,1.322860574E1
1.496386142E1,1.069735474E1,-9.312434692E0,-1.062789917E-2,1.418291053E1
1.497386942E1,1.133742371E1,-9.871372375E0,1.007405090E-1,1.503300760E1
1.498387742E1,1.170431076E1,-1.008662476E1,2.183958435E-1,1.545246214E1
1.499388542E1,1.147962799E1,-9.968071289E0,1.071771240E-1,1.520380844E1
1.500389342E1,1.043614792E1,-9.205407257E0,-2.829116821E-1,1.391879108E1
1.501390142E1,9.167985077E0,-8.169710999E0,-5.938151550E-1,1.229425657E1
1.502390942E1,8.034841461E0,-7.442074127E0,-6.936575317E-1,1.097380086E1
1.503391742E1,7.115153961E0,-6.889273682E0,-6.426136780E-1,9.924739800E0
1.504392542E1,6.390061798E0,-6.686295776E0,-5.346881104E-1,9.264196261E0
1.505393342E1,5.777834930E0,-6.514004059E0,-3.849993896E-1,8.715724290E0
1.506394142E1,5.389991455E0,-6.651867371E0,-6.346801758E-2,8.561739052E0
1.507394942E1,5.283113708E0,-7.005581818E0,1.432521057E-1,8.775533501E0
1.508395742E1,5.173092499E0,-6.967860260E0,2.071691895E-1,8.680718961E0
1.509396542E1,5.270240479E0,-6.801256714E0,1.718426514E-1,8.605931529E0
1.510397342E1,5.464087372E0,-6.940467224E0,7.484436035E-4,8.833251760E0
1.511398142E1,5.681435394E0,-7.408693542E0,-2.555186462E-1,9.339846783E0
1.512398942E1,5.807922363E0,-8.125103760E0,-3.565585327E-1,9.993818453E0
1.513399742E1,5.751340027E0,-8.977730713E0,-1.495390320E-1,1.066301659E1
1.514400542E1,5.498665466E0,-9.945168915E0,3.595523071E-1,1.136973986E1
1.515401342E1,5.022056580E0,-1.060978683E1,9.131011963E-1,1.177380069E1
1.516402142E1,4.364923096E0,-1.093146790E1,1.247206421E0,1.183659866E1
1.517402942E1,3.678450623E0,-1.100017502E1,1.411414948E0,1.168447438E1
1.518403742E1,3.020568695E0,-1.066547104E1,1.322350159E0,1.116354414E1
1.519404542E1,2.516267395E0,-9.952054596E0,1.442101135E0,1.036603338E1
1.520405342E1,2.638263702E0,-9.242380371E0,1.426084442E0,9.716776581E0
1.521406142E1,3.155587921E0,-8.837173004E0,5.986051941E-1,9.402749067E0
1.522406942E1,3.485501862E0,-7.845485229E0,-2.936892700E-1,8.589913568E0
1.523407742E1,3.963457947E0,-6.541995850E0,-1.170565796E0,7.738018666E0
1.524408542E1,4.108356628E0,-6.267017670E0,-1.478774872E0,7.638120173E0
1.525409342E1,4.053420868E0,-6.572532349E0,-1.557361450E0,7.877421970E0
1.526410142E1,3.998185730E0,-6.691385193E0,-1.805844727E0,8.001324897E0
1.527410942E1,3.963607635E0,-6.653513947E0,-2.055375824E0,8.012740050E0
1.528411742E1,3.916006622E0,-6.428831177E0,-2.164349213E0,7.832584866E0
1.529412542E1,4.128265228E0,-5.957611084E0,-2.078427887E0,7.540263000E0
1.530413342E1,4.754712524E0,-5.045857086E0,-1.970951385E0,7.207816194E0
1.531414142E1,5.468727722E0,-3.940705261E0,-1.790875854E0,6.974480424E0
1.532414942E1,5.546865234E0,-3.997137909E0,-1.744771729E0,7.056135896E0
1.533415742E1,5.513035583E0,-5.271138611E0,-1.596130829E0,7.792695119E0
1.534416542E1,5.962850189E0,-5.994284821E0,-1.490450592E0,8.585364049E0
1.535417342E1,6.210435333E0,-5.700445862E0,-1.502126312E0,8.562766697E0
1.536418142E1,6.228248291E0,-5.429060211E0,-1.395997009E0,8.379414013E0
1.537418942E1,6.514752502E0,-5.493875427E0,-1.106648712E0,8.593563798E0
1.538419742E1,6.701414337E0,-5.652395782E0,-8.563691711E-1,8.808626474E0
1.539420542E1,6.791077881E0,-5.698050842E0,-3.116519165E-1,8.870380437E0
1.540421342E1,7.143145752E0,-5.694907379E0,3.281176758E-1,9.141343583E0
1.541422142E1,7.604785767E0,-5.800886993E0,6.997947693E-1,9.590243437E0
1.542422942E1,8.057594147E0,-5.899831238E0,8.391549683E-1,1.002182684E1
1.543423742E1,8.471184082E0,-5.960904236E0,9.731263733E-1,1.040386053E1
1.544424542E1,8.843908997E0,-5.994733887E0,1.182241516E0,1.074938397E1
1.545425342E1,9.216334534E0,-5.934109955E0,1.166224823E0,1.102336444E1
1.546426142E1,9.482930145E0,-5.690117340E0,9.593550110E-1,1.110061987E1
1.547426942E1,9.638456726E0,-5.390141144E0,6.315367126E-1,1.106129776E1
1.548427742E1,9.811496887E0,-5.147495728E0,2.468367004E-1,1.108255890E1
1.549428542E1,9.968520355E0,-4.990921326E0,-1.496887207E-1,1.114913003E1
1.550429342E1,1.019604721E1,-5.023553467E0,-5.981561279E-1,1.138214650E1
1.551430142E1,1.040127045E1,-4.997208252E0,-1.086889801E0,1.159050675E1
1.552430942E1,1.058419006E1,-5.006638641E0,-1.453028412E0,1.179842368E1
1.553431742E1,1.087668182E1,-5.087470551E0,-1.757794647E0,1.213566669E1
1.554432542E1,1.133308273E1,-5.307213593E0,-2.111808472E0,1.269113925E1
1.555433342E1,1.201042419E1,-5.737868042E0,-2.731669464E0,1.358806230E1
1.556434142E1,1.281515076E1,-6.294410706E0,-3.196752319E0,1.463102595E1
1.557434942E1,1.395248566E1,-7.329208832E0,-3.637585602E0,1.617470825E1
1.558435742E1,1.445843353E1,-8.458161163E0,-3.951482849E0,1.721049120E1
1.559436542E1,1.389485550E1,-9.265133057E0,-3.605552216E0,1.708536528E1
1.560437342E1,1.239033417E1,-9.054970093E0,-2.671943665E0,1.557729589E1
1.561438142E1,1.052865555E1,-8.064330139E0,-1.401685181E0,1.333606875E1
1.562438942E1,9.184151459E0,-7.284302216E0,-7.813751221E-1,1.174820173E1
1.563439742E1,8.420439606E0,-7.143445129E0,-9.635462952E-1,1.108426962E1
1.564440542E1,8.070018311E0,-7.241491241E0,-1.401685181E0,1.093293704E1
1.565441342E1,7.804620209E0,-7.426805878E0,-1.614243164E0,1.089382041E1
1.566442142E1,7.417974243E0,-7.524851990E0,-1.464853821E0,1.066749905E1
1.567442942E1,6.863527222E0,-7.544610901E0,-1.090632019E0,1.025761365E1
1.568443742E1,6.182443542E0,-7.372019806E0,-6.400689697E-1,9.642560472E0
1.569444542E1,5.378914490E0,-7.078180847E0,-2.826123047E-1,8.894562098E0
1.570445342E1,4.581372986E0,-6.914720764E0,-8.846603394E-2,8.295189445E0
1.571446142E1,3.881428528E0,-7.006330261E0,7.903564453E-2,8.010018588E0
1.572446942E1,3.250490570E0,-7.300169220E0,2.230361938E-1,7.994241973E0
1.573447742E1,2.687211914E0,-7.943381653E0,4.553530884E-1,8.397962038E0
1.574448542E1,2.210004272E0,-8.700806580E0,8.132588196E-1,9.013852890E0
1.575449342E1,1.888921967E0,-9.098679199E0,1.146316223E0,9.363120754E0
1.576450142E1,1.803300018E0,-9.402098236E0,1.523831177E0,9.693988016E0
1.577450942E1,2.057172089E0,-9.711055756E0,1.773062897E0,1.008366565E1
1.578451742E1,2.517015839E0,-1.002809647E1,1.774110718E0,1.049026007E1
1.579452542E1,2.950514374E0,-1.027418472E1,1.579216003E0,1.080547685E1
1.580453342E1,3.384611664E0,-1.022478745E1,1.196461945E0,1.083666903E1
1.581454142E1,4.137096863E0,-9.910740509E0,1.070124664E0,1.079275288E1
1.582454942E1,5.076393585E0,-9.835447083E0,1.090781708E0,1.112185218E1
1.583455742E1,5.879323883E0,-9.849218445E0,1.001417542E0,1.151418214E1
1.584456542E1,6.410569153E0,-9.693392487E0,1.001567230E0,1.166449277E1
1.585457342E1,7.440726929E0,-8.902886353E0,9.023236084E-1,1.163786881E1
1.586458142E1,8.668473816E0,-7.316934357E0,6.746470642E-1,1.136376326E1
1.587458942E1,8.948840790E0,-6.632258148E0,1.007405090E0,1.118407192E1
1.588459742E1,7.976013794E0,-7.360942841E0,1.164877625E0,1.091591569E1
1.589460542E1,7.742050323E0,-7.059769135E0,6.508465576E-1,1.049777523E1
1.590461342E1,7.750732269E0,-6.658453674E0,2.372566223E-1,1.022081928E1
1.591462142E1,7.738008728E0,-6.268215179E0,7.185058594E-2,9.958537198E0
1.592462942E1,7.695048065E0,-5.930966492E0,-5.373825073E-2,9.715606829E0
1.593463742E1,7.565717010E0,-5.677693176E0,-1.972897339E-1,9.461247113E0
1.594464542E1,7.373666382E0,-5.657784576E0,-3.487747192E-1,9.300705674E0
1.595465342E1,7.137307892E0,-5.689817963E0,-4.477189636E-1,9.138689439E0
1.596466142E1,6.874454498E0,-5.775739288E0,-4.619393921E-1,8.990588244E0
1.597466942E1,6.653663635E0,-5.894292755E0,-4.713697815E-1,8.901467088E0
1.598467742E1,6.367608490E0,-6.021378479E0,-4.213737488E-1,8.773881268E0
1.599468542E1,6.018833771E0,-6.229296112E0,-2.305206299E-1,8.665081060E0
1.600469342E1,5.662724304E0,-6.420448608E0,4.340972900E-3,8.560877626E0
1.601470142E1,5.298831024E0,-6.557563477E0,1.541793823E-1,8.432260685E0
1.602470942E1,4.947212219E0,-6.774312744E0,3.125500488E-1,8.394278375E0
1.603471742E1,4.642895050E0,-7.108417969E0,5.234614563E-1,8.506473556E0
1.604472542E1,4.335135040E0,-7.598648529E0,7.042854309E-1,8.776609440E0
1.605473342E1,4.137845306E0,-8.110583954E0,8.089178467E-1,9.140989221E0
1.606474142E1,4.044589233E0,-8.586294708E0,8.988807678E-1,9.533684782E0
1.607474942E1,4.001927948E0,-9.045240326E0,1.001267853E0,9.941546015E0
1.608475742E1,3.924389191E0,-9.221723328E0,1.121916962E0,1.008462738E1
1.609476542E1,3.934717712E0,-9.196425934E0,1.179397430E0,1.007210165E1
1.610477342E1,4.257596283E0,-9.240883484E0,1.183289337E0,1.024310633E1
1.611478142E1,4.980742493E0,-9.137747955E0,1.171463928E0,1.047275328E1
1.612478942E1,5.661077728E0,-8.779093781E0,1.157991943E0,1.051005395E1
1.613479742E1,6.096821594E0,-8.327033844E0,1.284927979E0,1.040008491E1
1.614480542E1,6.348448334E0,-8.027656403E0,1.481469269E0,1.034121921E1
1.615481342E1,6.539301453E0,-7.826474762E0,1.705403595E0,1.034043385E1
1.616482142E1,6.679260406E0,-7.671397247E0,1.911375275E0,1.034969617E1
1.617482942E1,6.746919708E0,-7.639064484E0,2.077230377E0,1.040149594E1
1.618483742E1,6.777306519E0,-7.652087402E0,2.271077271E0,1.047110869E1
1.619484542E1,6.676416321E0,-7.617658997E0,2.418071594E0,1.041394900E1
1.620485392E1,6.488407288E0,-7.547904053E0,2.483635254E0,1.025859292E1
1.621486192E1,6.300697632E0,-7.551646271E0,2.499352570E0,1.014755711E1
1.622486992E1,6.222709808E0,-7.711064758E0,2.537672882E0,1.022851019E1
1.623487792E1,6.218967590E0,-7.965535583E0,2.685415649E0,1.045642254E1
1.624488592E1,6.086493073E0,-8.105344849E0,2.817141724E0,1.052037549E1
1.625489392E1,5.866450653E0,-8.164771271E0,3.024759979E0,1.049894786E1
1.626490192E1,5.767805786E0,-8.200247498E0,3.378923492E0,1.057963925E1
1.627490992E1,5.724695435E0,-8.246800690E0,3.759282532E0,1.071979779E1
1.628491792E1,5.737718353E0,-8.343798981E0,4.086651764E0,1.091975805E1
1.629492592E1,5.777086487E0,-8.486003265E0,4.270469513E0,1.111862804E1
1.630493392E1,5.828130341E0,-8.440647583E0,4.399950256E0,1.116114677E1
1.631494192E1,5.952222290E0,-8.336314545E0,4.351151733E0,1.112904362E1
1.632494992E1,6.209387512E0,-8.240064697E0,4.199966125E0,1.113978792E1
1.633495792E1,6.807244263E0,-8.297395477E0,4.033362579E0,1.146531115E1
1.634496592E1,7.710016937E0,-8.650511169E0,3.726949768E0,1.217233992E1
1.635497392E1,8.631650391E0,-9.093440094E0,3.250340881E0,1.295224911E1
1.636498192E1,9.456435242E0,-9.438173218E0,2.586022339E0,1.360848238E1
1.637498992E1,1.001372635E1,-9.580078125E0,1.865271149E0,1.398327032E1
1.638499792E1,1.020113663E1,-9.639055481E0,1.207987976E0,1.408665375E1
1.639500592E1,1.008348129E1,-9.501042480E0,6.768923950E-1,1.387099804E1
1.640501392E1,9.704319763E0,-9.051826630E0,3.132984924E-1,1.327431894E1
1.641502192E1,9.216334534E0,-8.543184357E0,1.841171265E-2,1.256690734E1
1.642502992E1,8.747958527E0,-8.125852203E0,-2.781216431E-1,1.194293113E1
1.643503792E1,8.362659760E0,-7.738757172E0,-5.637277222E-1,1.140790208E1
1.644504592E1,8.057893524E0,-7.270830231E0,-8.553213501E-1,1.088697363E1
1.645505392E1,7.824678497E0,-6.663243713E0,-1.399439850E0,1.037221492E1
1.646506192E1,7.688461761E0,-5.794001312E0,-2.529739380E0,9.954018123E0
1.647506992E1,7.128326569E0,-4.476291504E0,-5.098248138E0,9.840851558E0
1.648507792E1,5.193300476E0,-3.123853912E0,-1.009605515E1,1.177536253E1
1.649508592E1,3.594325562E0,-3.214565277E0,-1.398766251E1,1.479551650E1
1.650509392E1,2.837649078E0,-3.875291290E0,-1.509386215E1,1.583965939E1
1.651510192E1,1.990859985E0,-4.968318329E0,-1.372331223E1,1.473013947E1
1.652510992E1,2.122136993E0,-5.665867767E0,-1.050784882E1,1.212519731E1
1.653511792E1,2.976709900E0,-5.830824738E0,-6.501430206E0,9.226478942E0
1.654512592E1,3.630999298E0,-6.117778015E0,-3.837569733E0,8.083211317E0
1.655513392E1,4.134252777E0,-6.565646667E0,-2.049388275E0,8.024945762E0
1.656514192E1,4.457580414E0,-6.951544189E0,-9.392967224E-1,8.311213395E0
1.657514992E1,4.715943146E0,-7.372618561E0,-3.161425781E-1,8.757600717E0
1.658515792E1,4.980443115E0,-7.789351959E0,-2.874023438E-2,9.245520189E0
1.659516592E1,5.172344055E0,-8.310268707E0,-6.661148071E-2,9.788674379E0
1.660517392E1,5.413193207E0,-8.568032684E0,-3.685336304E-1,1.014148223E1
1.661518192E1,5.688470764E0,-8.754095764E0,-7.902067566E-1,1.046982899E1
1.662518992E1,5.846092987E0,-8.982969818E0,-1.257534943E0,1.079129020E1
