"Time (s)","Acceleration x (m/s^2)","Acceleration y (m/s^2)","Acceleration z (m/s^2)","Absolute acceleration (m/s^2)"
-7.237916670E-4,1.173858948E0,1.742182114E1,7.415579224E-1,1.747706224E1
9.284208332E-3,5.634283447E-1,2.005409729E1,2.433339844E0,2.020904284E1
1.929220833E-2,-9.767189026E-1,2.116463791E1,4.653073883E0,2.169209474E1
2.930120833E-2,-2.737956390E0,2.062126785E1,7.980205078E0,2.228041216E1
3.930920833E-2,-4.161795502E0,1.979753082E1,8.217611389E0,2.183556515E1
4.931720833E-2,-5.031187592E0,1.936148758E1,8.222551117E0,2.162846265E1
5.932520833E-2,-4.293521576E0,1.841844864E1,6.455475769E0,1.998366196E1
6.933420833E-2,-3.001408539E0,1.679238007E1,4.530478821E0,1.764986458E1
7.934220833E-2,-1.710193634E0,1.504506363E1,3.386856995E0,1.551610461E1
8.935020833E-2,-1.318757629E0,1.417522247E1,2.496957550E0,1.445374868E1
9.935920833E-2,-9.677375793E-1,1.331615891E1,2.057920532E0,1.350894670E1
1.093672083E-1,-6.099815369E-1,1.260199402E1,1.710193634E0,1.273212838E1
1.193752083E-1,-4.212240601E-1,1.214080307E1,1.454674988E0,1.223489306E1
1.293842083E-1,8.936416626E-2,1.181163757E1,-2.674188995E0,1.211090644E1
1.393922083E-1,1.857637024E0,1.187525528E1,-2.335847580E1,2.626958117E1
1.494002083E-1,8.583151245E-1,1.294717621E1,-1.847652786E1,2.257760303E1
1.594092083E-1,-1.098116455E0,1.351105362E1,-6.136489105E0,1.487988334E1
1.694172083E-1,-2.161954193E0,1.317006271E1,-1.574875031E0,1.343892961E1
1.794252083E-1,-2.425556030E0,1.241907440E1,6.583309937E-1,1.267083781E1
1.894332083E-1,-2.480491791E0,1.161764099E1,1.418150940E0,1.196384444E1
1.994422083E-1,-2.783761139E0,1.134176468E1,1.877545624E0,1.182836124E1
2.094502083E-1,-2.989583130E0,1.110031677E1,1.779948578E0,1.163283528E1
2.194582083E-1,-2.946772156E0,1.082578766E1,1.809287567E0,1.136462345E1
2.294672083E-1,-2.760260010E0,1.057161621E1,1.955683136E0,1.109967572E1
2.394752083E-1,-2.389630737E0,1.053823563E1,1.982627106E0,1.098615289E1
2.494832083E-1,-1.593885498E0,1.085228256E1,1.985471191E0,1.114695490E1
2.594922083E-1,-6.716532898E-1,1.110944778E1,1.632205811E0,1.124877967E1
2.695002083E-1,1.052910461E0,1.158650574E1,-2.265538788E0,1.185278033E1
2.795082083E-1,3.470982056E0,1.220636673E1,-8.182434540E0,1.509951457E1
2.895172083E-1,4.108057251E0,1.123563538E1,-6.952891388E0,1.383684702E1
2.995252083E-1,3.842808838E0,9.571246490E0,-2.084864502E0,1.052248066E1
3.095332083E-1,4.171225891E0,8.093519440E0,2.033670959E0,9.329523028E0
3.195412083E-1,4.541406097E0,6.817572784E0,4.899162140E0,9.544917898E0
3.295502083E-1,4.626279602E0,5.788163452E0,7.308551788E0,1.040770044E1
3.395582083E-1,4.643942871E0,4.904101868E0,8.919052734E0,1.118775769E1
3.495662083E-1,4.625381470E0,4.023632812E0,9.475745087E0,1.128598776E1
3.595752083E-1,4.314328308E0,3.600462799E0,8.857830048E0,1.048989582E1
3.695832083E-1,3.341950378E0,4.032913513E0,6.497837677E0,8.345952205E0
3.795912083E-1,2.042951660E0,5.051395569E0,3.831133118E0,6.660918078E0
3.896002083E-1,8.165519714E-1,6.076912994E0,2.202968903E0,6.515266737E0
3.996082083E-1,-4.646337891E-1,6.888375549E0,1.582808533E0,7.083140908E0
4.096162083E-1,-1.585203552E0,7.361990662E0,1.747017059E0,7.730707950E0
4.196252083E-1,-2.427801361E0,7.961643677E0,2.198478241E0,8.609024106E0
4.296332083E-1,-2.802472229E0,8.471184082E0,2.603535919E0,9.294794760E0
4.396412083E-1,-2.904559937E0,8.656349030E0,2.860401764E0,9.568215361E0
4.496502083E-1,-2.406994629E0,8.276888123E0,2.999163208E0,9.126635748E0
4.596582083E-1,-1.722168732E0,7.549850006E0,2.968327332E0,8.293194041E0
4.696662083E-1,-1.174906769E0,6.885980530E0,3.117716675E0,7.649659537E0
4.796742083E-1,-5.758525085E-1,6.539151764E0,3.630999298E0,7.501750983E0
4.896832083E-1,2.653981018E-1,6.683302002E0,4.318070526E0,7.961324944E0
4.996912083E-1,1.235530701E0,7.278464355E0,4.866230621E0,8.842102688E0
5.096992083E-1,2.349963226E0,8.491541748E0,5.421126709E0,1.034491291E1
5.197082083E-1,3.504512329E0,1.005399261E1,5.772146759E0,1.211123662E1
5.297162083E-1,4.470453644E0,1.162752045E1,5.970484314E0,1.381415471E1
5.397242083E-1,5.052892456E0,1.259256363E1,6.048771515E0,1.485570657E1
5.497332083E-1,5.327271881E0,1.254406448E1,6.327192535E0,1.502553642E1
5.597412083E-1,5.355862427E0,1.160042679E1,6.460265808E0,1.431747877E1
5.697492083E-1,5.414540405E0,1.040186920E1,6.704857178E0,1.350819161E1
5.797582083E-1,5.268593903E0,9.282047882E0,6.558162231E0,1.252693045E1
5.897662083E-1,4.688250732E0,8.347241821E0,5.654940491E0,1.111910486E1
5.997742083E-1,3.750450897E0,8.118667145E0,4.439468079E0,9.984363523E0
6.097822083E-1,2.860401764E0,8.826096039E0,3.679348755E0,9.980955706E0
6.197912083E-1,2.244582367E0,1.036654266E1,3.384162598E0,1.113354900E1
6.297992083E-1,1.746567993E0,1.236324051E1,3.098406830E0,1.286469357E1
6.398072083E-1,1.187929688E0,1.431607956E1,2.647394714E0,1.460719034E1
6.498162083E-1,4.189787292E-1,1.612372055E1,2.500849457E0,1.632189191E1
6.598242083E-1,-4.739144897E-1,1.736449036E1,2.663710785E0,1.757399998E1
6.698322083E-1,-1.445244598E0,1.734233643E1,2.662213898E0,1.760490692E1
6.798412083E-1,-2.150278473E0,1.550775146E1,2.211800537E0,1.581158166E1
6.898492083E-1,-2.558030548E0,1.266650986E1,1.265019379E0,1.298400040E1
6.998572083E-1,-3.195105743E0,9.901010742E0,-1.131796417E0,1.046516496E1
7.098662083E-1,-4.106410675E0,7.555388489E0,-2.849923553E0,9.059170387E0
7.198742083E-1,-4.078867950E0,6.252647552E0,-1.693278809E0,7.655060960E0
7.298822083E-1,-3.172053680E0,6.034102020E0,1.465452576E-1,6.818635293E0
7.398902083E-1,-2.339634705E0,6.598877563E0,1.492695923E0,7.158716140E0
7.498992083E-1,-2.032473450E0,7.765252075E0,2.016756134E0,8.276315208E0
7.599072083E-1,-2.060914307E0,8.912765808E0,2.100282440E0,9.385944196E0
7.699152083E-1,-2.214644623E0,9.968370667E0,2.364333344E0,1.048156175E1
7.799235833E-1,-2.451003113E0,1.087398743E1,2.439177704E0,1.141054804E1
7.899315833E-1,-2.636766815E0,1.132919083E1,2.402803345E0,1.187756574E1
7.999395833E-1,-2.671045532E0,1.113264954E1,2.086511078E0,1.163717742E1
8.099485833E-1,-2.587219849E0,1.052641022E1,1.711091766E0,1.097391697E1
8.199565833E-1,-2.415077820E0,9.809850311E0,1.474882965E0,1.020985033E1
8.299645833E-1,-2.231409760E0,9.040150909E0,1.456321564E0,9.424669250E0
8.399735833E-1,-2.066901855E0,8.404722290E0,1.512604523E0,8.786319622E0
8.499815833E-1,-1.947001190E0,7.875422974E0,1.532213745E0,8.255954191E0
8.599895833E-1,-1.802551575E0,7.388036499E0,1.636397095E0,7.778821951E0
8.699975833E-1,-1.782792664E0,7.229665833E0,1.783840485E0,7.656925271E0
8.800065833E-1,-1.767674103E0,7.108867035E0,1.956431580E0,7.582103058E0
8.900145833E-1,-1.653910675E0,6.895859985E0,1.958676910E0,7.356950503E0
9.000225833E-1,-1.562450867E0,6.870263214E0,1.999092865E0,7.323806498E0
9.100315833E-1,-1.431772614E0,7.031627655E0,2.181114349E0,7.500068006E0
9.200395833E-1,-1.274449768E0,7.324718170E0,2.406395874E0,7.814503157E0
9.300475833E-1,-1.073717194E0,7.647896118E0,2.655328217E0,8.166636491E0
9.400565833E-1,-8.891510010E-1,7.965834961E0,2.885848846E0,8.518992880E0
9.500645833E-1,-7.155120850E-1,8.268655243E0,3.075803833E0,8.851168640E0
9.600725833E-1,-5.075944519E-1,8.477471008E0,3.093018036E0,9.038358667E0
9.700815833E-1,-2.692900085E-1,8.565338287E0,2.926863556E0,9.055609718E0
9.800895833E-1,9.580078125E-3,8.630153503E0,2.772833862E0,9.064670369E0
9.900975833E-1,3.306623840E-1,8.745563507E0,2.751428375E0,9.174125396E0
1.000105583E0,6.818321228E-1,8.929530945E0,2.481240234E0,9.292898958E0
1.010114583E0,1.071920929E0,9.068442078E0,2.289339294E0,9.414177107E0
1.020122583E0,1.488654327E0,9.248218231E0,2.138752441E0,9.608324212E0
1.030130583E0,1.882036285E0,9.513766022E0,2.010918274E0,9.904423093E0
1.040139583E0,2.277663574E0,9.826166382E0,1.776954803E0,1.024201472E1
1.050147583E0,2.720293121E0,1.028166916E1,1.733844452E0,1.077584948E1
1.060155583E0,3.043620758E0,1.060888870E1,1.891466675E0,1.119775839E1
1.070164583E0,3.290307770E0,1.079629898E1,1.973945160E0,1.145786439E1
1.080172583E0,3.425626373E0,1.074465637E1,2.027982788E0,1.145841485E1
1.090180583E0,3.386707306E0,1.036863831E1,2.040706329E0,1.109697837E1
1.100189583E0,3.295846252E0,9.736502838E0,2.132016449E0,1.049798000E1
1.110197583E0,2.991229706E0,9.177864532E0,2.229314117E0,9.907093114E0
1.120205583E0,2.549647980E0,9.034163361E0,2.480192413E0,9.709179515E0
1.130213583E0,2.177671509E0,9.204359436E0,2.882106628E0,9.887822027E0
1.140222583E0,1.851499786E0,9.632469177E0,3.461401978E0,1.040162572E1
1.150230583E0,1.555864563E0,1.020218445E1,4.187242584E0,1.113724753E1
1.160238583E0,1.304088135E0,1.080049026E1,5.030289459E0,1.198561838E1
1.170247583E0,1.060095520E0,1.122635468E1,5.720354462E0,1.264425945E1
1.180255583E0,9.225315857E-1,1.131541946E1,5.920338593E0,1.280391312E1
1.190263583E0,1.003513184E0,1.118234619E1,5.623954926E0,1.255710054E1
1.200272583E0,1.142124939E0,1.085482727E1,5.067711639E0,1.203384501E1
1.210280583E0,1.230590973E0,1.049871780E1,4.273912354E0,1.140191898E1
1.220288583E0,1.231638794E0,1.023556503E1,3.305426331E0,1.082633682E1
1.230297583E0,1.190624084E0,9.921817474E0,2.374811554E0,1.027130847E1
1.240305583E0,1.016685791E0,9.678124237E0,1.433568878E0,9.836404753E0
1.250313583E0,7.780819702E-1,9.524543610E0,7.625143433E-1,9.586645432E0
1.260321583E0,4.073030090E-1,9.774224396E0,2.418969727E-1,9.785697340E0
1.270330583E0,-8.906478882E-2,1.033450928E1,-8.075706482E-1,1.036639691E1
1.280338583E0,-7.014413452E-1,1.132305359E1,-1.909279633E0,1.150429969E1
1.290346583E0,-1.827549591E0,1.282413208E1,-3.352278900E0,1.338043628E1
1.300355583E0,-2.543061676E0,1.344953156E1,-6.267616425E0,1.505456998E1
1.310363583E0,-2.662962341E0,1.391162064E1,-2.107467499E1,2.539225242E1
1.320371583E0,-4.304299164E0,1.621922195E1,-1.228390549E1,2.079626135E1
1.330380583E0,-4.658762054E0,1.824855194E1,1.523980865E0,1.889540234E1
1.340388583E0,-3.470233612E0,1.921793610E1,5.401068420E0,2.026186391E1
1.350396583E0,-1.829794922E0,1.887993896E1,6.807393951E0,2.015293669E1
1.360405583E0,-5.321434021E-1,1.665646271E1,4.638105011E0,1.729835092E1
1.370413583E0,1.518442383E0,1.395248566E1,-1.898052979E0,1.416263141E1
1.380421583E0,3.540886688E0,1.221594681E1,-6.697672119E0,1.437449292E1
1.390429583E0,4.284390564E0,1.070873108E1,-5.888454895E0,1.295016698E1
1.400438583E0,4.404440918E0,9.260492706E0,-4.394711151E0,1.115658151E1
1.410446583E0,4.503983917E0,7.736212463E0,-2.196232910E0,9.217282322E0
1.420454583E0,4.590354309E0,6.471642151E0,1.802252197E-1,7.936371081E0
1.430463583E0,4.502936096E0,5.357658691E0,4.252806244E0,8.189462808E0
1.440471583E0,4.280199280E0,4.178560638E0,8.178542633E0,1.013257294E1
1.450479583E0,3.941902771E0,3.137924652E0,1.026295807E1,1.143299947E1
1.460488583E0,3.158282318E0,2.578537903E0,1.092982132E1,1.166553038E1
1.470496583E0,1.639540558E0,3.019820251E0,1.004815475E1,1.061945486E1
1.480504583E0,1.215472412E-1,4.093836823E0,8.124954071E0,9.098854451E0
1.490513583E0,-1.269659729E0,4.988825684E0,6.466103668E0,8.265041692E0
1.500521583E0,-2.671644287E0,5.857020264E0,5.427563324E0,8.420262063E0
1.510529583E0,-3.843557281E0,6.445895691E0,5.201683044E0,9.131265538E0
1.520538583E0,-4.969665527E0,6.423292694E0,5.968987427E0,1.007894218E1
1.530546583E0,-5.298381958E0,6.756499786E0,5.406307526E0,1.014649209E1
1.540554583E0,-4.615502014E0,7.529192963E0,3.315754852E0,9.433230399E0
1.550562583E0,-3.642675018E0,8.339308319E0,1.270557861E0,9.188441751E0
1.560571583E0,-2.743045807E0,8.801397400E0,-3.308120728E-1,9.224875778E0
1.570579583E0,-2.097438354E0,8.976383514E0,-1.180894318E0,9.293504185E0
1.580587583E0,-1.548230438E0,8.657696228E0,-8.228388977E-1,8.833446967E0
1.590596583E0,-8.593629456E-1,7.696844330E0,2.706372070E-1,7.749397513E0
1.600604583E0,-2.140548706E-2,6.755901031E0,1.733545074E0,6.974800031E0
1.610612583E0,8.282276917E-1,6.577472076E0,2.999911652E0,7.276576801E0
1.620621583E0,1.749711456E0,6.845714264E0,3.910168762E0,8.075562749E0
1.630629583E0,2.810405731E0,7.655530243E0,4.823120270E0,9.474598293E0
1.640637583E0,3.757635956E0,9.105265503E0,5.556445312E0,1.130927815E1
1.650646583E0,4.589007111E0,1.071771240E1,6.228996735E0,1.321850013E1
1.660654583E0,5.249134369E0,1.192525131E1,6.814878387E0,1.470399939E1
1.670662583E0,5.826932831E0,1.236818024E1,7.326514435E0,1.551137784E1
1.680670583E0,6.240971832E0,1.211445786E1,7.736062775E0,1.567024205E1
1.690679583E0,6.547085266E0,1.154519165E1,8.067772980E0,1.553205513E1
1.700687583E0,6.744075623E0,1.099463654E1,7.954009552E0,1.515357570E1
1.710695583E0,6.577472076E0,1.033675461E1,7.068002014E0,1.414454974E1
1.720704583E0,6.046077118E0,9.866432648E0,5.935756531E0,1.300518156E1
1.730712583E0,5.279670868E0,1.025891647E1,4.817731476E0,1.250323271E1
1.740720583E0,4.291126556E0,1.182960022E1,3.844754791E0,1.315809059E1
1.750729583E0,3.640729065E0,1.370070923E1,3.644920349E0,1.463727385E1
1.760737583E0,3.087180176E0,1.522349258E1,3.401376801E0,1.590140786E1
1.770745583E0,2.321372681E0,1.593107117E1,2.709365845E0,1.632569946E1
1.780757750E0,1.400637360E0,1.505509277E1,1.724114685E0,1.521808710E1
1.790765750E0,4.788542175E-1,1.317874466E1,4.337979126E-1,1.319457437E1
1.800773750E0,-2.680924988E-1,1.115061218E1,-3.823049927E-1,1.116038452E1
1.810782750E0,-1.018482056E0,9.388027496E0,-1.699416046E0,9.594810101E0
1.820790750E0,-2.211052094E0,8.146958313E0,-3.497327271E0,9.137449269E0
1.830798750E0,-2.973716125E0,8.095166016E0,-2.176324310E0,8.894441406E0
1.840806750E0,-2.911146240E0,8.658744049E0,3.748205566E-1,9.142708099E0
1.850815750E0,-2.498753815E0,9.434730377E0,2.344275055E0,1.003760596E1
1.860823750E0,-2.196532288E0,1.011222153E1,3.498973846E0,1.092357983E1
1.870831750E0,-2.032473450E0,1.025113266E1,3.629801788E0,1.106309767E1
1.880840750E0,-1.843117218E0,1.011940659E1,3.001558228E0,1.071488789E1
1.890848750E0,-1.619033203E0,1.003498215E1,2.342478790E0,1.043117165E1
1.900856750E0,-1.469045105E0,1.010114456E1,1.920356598E0,1.038648085E1
1.910865750E0,-1.427281952E0,1.006836273E1,1.512454834E0,1.028088428E1
1.920873750E0,-1.357676697E0,9.689799957E0,1.216669922E0,9.859807043E0
1.930881750E0,-1.346899109E0,9.113947449E0,9.800120544E-1,9.264912246E0
1.940890750E0,-1.371148682E0,8.465196533E0,8.828640747E-1,8.620849728E0
1.950898750E0,-1.456620941E0,7.876770172E0,8.363108826E-1,8.053860491E0
1.960906750E0,-1.573078766E0,7.453151093E0,8.589138794E-1,7.665622679E0
1.970915750E0,-1.761686554E0,7.265441437E0,8.957373047E-1,7.529443811E0
1.980923750E0,-2.010618896E0,7.286996613E0,1.058598633E0,7.633055682E0
1.990931750E0,-2.164498901E0,7.412735138E0,1.367107086E0,7.842364408E0
2.000939750E0,-2.328707428E0,7.637417908E0,1.626218262E0,8.148473257E0
2.010948750E0,-2.540217590E0,8.003556519E0,1.856439514E0,8.599766859E0
2.020956750E0,-2.640509033E0,8.417894897E0,2.272424469E0,9.110277462E0
2.030964750E0,-2.615660706E0,8.739575958E0,2.680176544E0,9.508165710E0
2.040973750E0,-2.527793427E0,8.868158569E0,2.942580872E0,9.679501961E0
2.050981750E0,-2.280657349E0,8.702153778E0,3.005001068E0,9.484667086E0
2.060989750E0,-1.956730957E0,8.346792755E0,2.940036163E0,9.063197999E0
2.070998750E0,-1.628912659E0,7.984695740E0,2.787653046E0,8.612765642E0
2.081006750E0,-1.340612183E0,7.787256317E0,2.705024872E0,8.351991471E0
2.091014750E0,-1.053060150E0,7.679929504E0,2.609523468E0,8.179233803E0
2.101023750E0,-7.747888184E-1,7.699688416E0,2.569706268E0,8.154071971E0
2.111031750E0,-4.550537109E-1,7.862998810E0,2.538571014E0,8.275153591E0
2.121039750E0,-1.300794983E-1,8.155640259E0,2.471660156E0,8.522939202E0
2.131048750E0,2.429447937E-1,8.417595520E0,2.249671783E0,8.716418969E0
2.141056750E0,6.905140686E-1,8.774303741E0,1.935774536E0,9.011794432E0
2.151064750E0,1.198856964E0,9.045839081E0,1.508413239E0,9.248771442E0
2.161073750E0,1.669328613E0,9.292975159E0,1.002914429E0,9.494834526E0
2.171081750E0,2.202070770E0,9.596992950E0,6.382727051E-1,9.867055357E0
2.181089750E0,2.762804718E0,1.018107834E1,-8.415499878E-1,1.058279984E1
2.191097750E0,3.203787689E0,1.119102814E1,-2.767894135E0,1.196514121E1
2.201106750E0,3.027154999E0,1.093056976E1,-1.025517426E0,1.138827066E1
2.211114750E0,2.950065308E0,1.028765671E1,9.397457886E-1,1.074345792E1
2.221122750E0,3.029699707E0,1.009979736E1,1.724414063E0,1.068450237E1
2.231131750E0,3.044518890E0,9.978100433E0,2.095342712E0,1.064058479E1
2.241139750E0,3.030148773E0,9.730814667E0,2.533032532E0,1.050175269E1
2.251147750E0,2.974614258E0,9.535321198E0,3.134481812E0,1.046879442E1
2.261156750E0,3.009641418E0,9.459429016E0,3.898043976E0,1.066459027E1
2.271164750E0,2.944377136E0,9.813442841E0,4.646786957E0,1.125013983E1
2.281172750E0,2.890339508E0,1.049302963E1,5.517975311E0,1.220269580E1
2.291181750E0,2.713557129E0,1.136257141E1,6.165528717E0,1.320928332E1
2.301189750E0,2.575843506E0,1.206595871E1,6.659052429E0,1.402017506E1
2.311197750E0,2.498454437E0,1.244676682E1,6.853198700E0,1.442673252E1
2.321206750E0,2.529889069E0,1.247266296E1,6.514453125E0,1.429705423E1
2.331214750E0,2.619103546E0,1.230546066E1,5.869294739E0,1.388281982E1
2.341222750E0,2.690804443E0,1.211924789E1,4.999303894E0,1.338318488E1
2.351230750E0,2.815644836E0,1.183379150E1,4.185895386E0,1.286422160E1
2.361239750E0,2.874322815E0,1.159818146E1,3.346590729E0,1.240883614E1
2.371247750E0,2.713856506E0,1.143951141E1,2.386636963E0,1.199681101E1
2.381255750E0,2.613565063E0,1.121018829E1,1.290167084E0,1.158290011E1
2.391264750E0,2.320025482E0,1.079495178E1,-2.092648315E-1,1.104342764E1
2.401272750E0,1.541943512E0,1.058119629E1,-2.787203979E0,1.105024030E1
2.411280750E0,5.186714172E-1,1.022688309E1,-8.660091248E0,1.341101555E1
2.421289750E0,-1.142124939E-1,8.884175262E0,-8.978778534E0,1.263170925E1
2.431297750E0,-1.803749084E-1,7.666457520E0,-4.811743927E0,9.053175444E0
2.441305750E0,-7.171586609E-1,7.051985321E0,-4.090244293E0,8.183820128E0
2.451314750E0,-2.526296539E0,5.739215240E0,-8.792416077E0,1.079941416E1
2.461322750E0,-6.003415833E0,5.501359863E0,-1.125419678E1,1.389110892E1
2.471330750E0,-8.157436523E0,8.200696564E0,-1.992057495E0,1.173726918E1
2.481339750E0,-6.805148621E0,1.227222977E1,5.438939667E0,1.504990817E1
2.491347750E0,-6.745273132E0,1.452429657E1,7.888146515E0,1.785151971E1
2.501355750E0,-6.877148895E0,1.531689835E1,8.068072357E0,1.862783786E1
2.511364750E0,-5.916596375E0,1.531570084E1,6.209836578E0,1.755388490E1
2.521372750E0,-4.005520477E0,1.442250824E1,4.162993011E0,1.553651985E1
2.531380750E0,-1.819765778E0,1.369517075E1,2.964884491E0,1.413010224E1
2.541388750E0,-2.775228882E-1,1.381417328E1,1.464255066E0,1.389433141E1
2.551397750E0,2.430046692E0,1.414902695E1,-6.456523590E0,1.574124478E1
2.561405750E0,7.132966919E0,1.464060471E1,-1.938932968E1,2.532138678E1
2.571413750E0,5.972729645E0,1.346405136E1,-7.465724945E0,1.651336511E1
2.581422750E0,5.572462006E0,1.144534927E1,-1.681902466E0,1.284044971E1
2.591430750E0,5.332660675E0,9.370962982E0,2.420167236E0,1.105031341E1
2.601438750E0,5.012177124E0,7.067103882E0,6.905290375E0,1.107921080E1
2.611447750E0,4.882696381E0,4.865631866E0,1.013841705E1,1.225979599E1
2.621455750E0,4.857848053E0,3.168760529E0,1.219798416E1,1.350668533E1
2.631463750E0,4.527934113E0,2.014810181E0,1.300720139E1,1.391937266E1
2.641472750E0,3.587589569E0,1.462309113E0,1.184666473E1,1.246405280E1
2.651480750E0,1.845212860E0,2.823129272E0,8.043224030E0,8.721715552E0
2.661488750E0,4.384382629E-1,4.488715668E0,4.847968597E0,6.621449689E0
2.671497750E0,-7.400610352E-1,5.747448120E0,2.811902618E0,6.441090479E0
2.681505750E0,-1.666484528E0,6.327491913E0,1.782942352E0,6.781829253E0
2.691513750E0,-2.034718781E0,6.743177490E0,1.441951447E0,7.189558203E0
2.701522750E0,-2.047592010E0,7.393724670E0,1.137783966E0,7.755923536E0
2.711530750E0,-1.916015625E0,8.330476685E0,1.155596924E0,8.625738340E0
2.721538750E0,-1.749711456E0,9.111851807E0,1.458716583E0,9.392294054E0
2.731547750E0,-1.616338806E0,9.394015045E0,2.007475433E0,9.741151237E0
2.741555750E0,-1.300794983E0,9.056167603E0,2.649789734E0,9.525104979E0
2.751563750E0,-9.032217407E-1,8.233628082E0,3.170556793E0,8.869096419E0
2.761571750E0,-4.071533203E-1,7.323969727E0,3.750001831E0,8.238253463E0
2.771580750E0,2.921923828E-1,6.660549316E0,4.467160492E0,8.025198842E0
2.781585875E0,1.149609375E0,6.586303711E0,5.112618256E0,8.416642069E0
2.791593875E0,2.081721039E0,7.051685944E0,5.682034149E0,9.292219821E0
2.801602875E0,3.112028503E0,7.981103210E0,6.305936737E0,1.063708456E1
2.811610875E0,4.074077911E0,9.161398773E0,6.486611023E0,1.194175284E1
2.821618875E0,4.939129028E0,1.002225861E1,6.065836029E0,1.271357660E1
2.831627875E0,5.674699402E0,1.026655060E1,5.714516602E0,1.304837057E1
2.841635875E0,6.257138214E0,1.000848724E1,5.719306641E0,1.311609942E1
2.851643875E0,6.648873596E0,9.473649445E0,6.108048248E0,1.308685628E1
2.861652875E0,6.761888580E0,8.970395966E0,6.304589539E0,1.288173087E1
2.871660875E0,6.380781097E0,8.968000946E0,5.951024780E0,1.251215826E1
2.881668875E0,5.505700836E0,9.904902649E0,5.213508453E0,1.247399329E1
2.891677875E0,4.717140656E0,1.144415176E1,4.592150574E0,1.320257068E1
2.901685875E0,4.218078461E0,1.334804260E1,4.043092346E0,1.457082781E1
2.911693875E0,3.762725372E0,1.566791840E1,3.647165680E0,1.652100441E1
2.921702875E0,3.256178741E0,1.759351410E1,3.230282593E0,1.818156110E1
2.931710875E0,2.757565613E0,1.805455536E1,2.742746429E0,1.846872479E1
2.941718875E0,2.193089447E0,1.618958359E1,1.947150879E0,1.645307432E1
2.951727875E0,1.596280518E0,1.307022034E1,1.090781708E0,1.321244019E1
2.961735875E0,1.187779999E0,1.041399399E1,5.541476440E-1,1.049615033E1
2.971743875E0,9.849517822E-1,8.663085022E0,3.794609070E-1,8.727150892E0
2.981752875E0,7.773335266E-1,7.721393280E0,1.281335449E-1,7.761480516E0
2.991760875E0,2.001338196E-1,7.536827087E0,-8.818162537E-1,7.590877156E0
3.001768875E0,-4.668791199E-1,8.068222046E0,-1.386716309E0,8.199827145E0
3.011776875E0,-8.285270691E-1,9.408534851E0,-5.468128967E-1,9.460760513E0
3.021785875E0,-1.140029297E0,1.077668976E1,6.713539124E-1,1.085759757E1
3.031793875E0,-1.215023346E0,1.145178589E1,1.925595703E0,1.167594110E1
3.041801875E0,-1.196012878E0,1.154399414E1,2.812501373E0,1.194170890E1
3.051810875E0,-1.337468719E0,1.142828476E1,3.211721191E0,1.194611519E1
3.061818875E0,-1.516197052E0,1.117126923E1,3.083737335E0,1.168783751E1
3.071826875E0,-1.560205536E0,1.052266800E1,2.691403198E0,1.097289544E1
3.081835875E0,-1.513951721E0,9.686806183E0,2.261796570E0,1.006190775E1
3.091843875E0,-1.462009735E0,8.934021606E0,1.785187683E0,9.227194026E0
3.101851875E0,-1.457219696E0,8.309220886E0,1.386267242E0,8.549174103E0
3.111860875E0,-1.507066040E0,7.782017212E0,1.138233032E0,8.007909488E0
3.121868875E0,-1.633253632E0,7.519612885E0,9.809101868E-1,7.757208271E0
3.131876875E0,-1.762734375E0,7.491621094E0,1.097068634E0,7.774006604E0
3.141885875E0,-1.935475159E0,7.765551453E0,1.212478638E0,8.094439937E0
3.151893875E0,-2.132615204E0,8.131091309E0,1.459914093E0,8.531942489E0
3.161901875E0,-2.289938049E0,8.403075714E0,1.831740875E0,8.900043391E0
3.171910875E0,-2.286345520E0,8.490942993E0,2.161804504E0,9.055213276E0
3.181918875E0,-2.466421051E0,8.648116150E0,2.085463257E0,9.231592644E0
3.191926875E0,-2.525099030E0,8.860823822E0,1.852547607E0,9.397992155E0
3.201935875E0,-2.243684235E0,8.577014008E0,1.953437805E0,9.078282188E0
3.211943875E0,-1.848955078E0,8.199049988E0,2.099683685E0,8.663239992E0
3.221951875E0,-1.409918060E0,7.862699432E0,2.207609253E0,8.287547883E0
3.231960875E0,-9.385482788E-1,7.645800476E0,2.403701477E0,8.069505473E0
3.241968875E0,-5.709127808E-1,7.687114563E0,2.688110046E0,8.163553597E0
3.251976875E0,-3.159928894E-1,7.933053131E0,2.863844604E0,8.440070462E0
3.261985875E0,-8.023315430E-2,8.269703064E0,3.095113678E0,8.830297549E0
3.271993875E0,1.240919495E-1,8.674611053E0,3.100652161E0,9.212943046E0
3.282001875E0,4.578977966E-1,8.962911530E0,3.026705933E0,9.471240799E0
3.292009875E0,8.646020508E-1,9.256600800E0,2.790946198E0,9.706779886E0
3.302018875E0,1.405577087E0,9.519154816E0,2.319277039E0,9.897929144E0
3.312026875E0,1.925595703E0,9.741741943E0,1.661395111E0,1.006825152E1
3.322034875E0,2.503992920E0,9.896370392E0,9.262738037E-1,1.025017613E1
3.332043875E0,3.059188385E0,9.888885956E0,3.838018799E-1,1.035837839E1
3.342051875E0,3.435206451E0,1.013946487E1,-1.889071655E-1,1.070724415E1
3.352059875E0,3.879482574E0,1.010608429E1,-1.118923187E0,1.088279899E1
3.362068875E0,4.481979675E0,9.852361908E0,-3.633843384E0,1.141761773E1
3.372076875E0,4.354594574E0,9.541009369E0,-3.341950378E0,1.100736054E1
3.382084875E0,3.720513153E0,9.207203522E0,-6.923103333E-1,9.954602373E0
3.392093875E0,3.254831543E0,8.799601135E0,7.568261719E-1,9.412741066E0
3.402101875E0,3.045716400E0,8.256380768E0,1.153950348E0,8.875573963E0
3.412109875E0,2.830613708E0,7.836653595E0,1.579665070E0,8.480616444E0
3.422118875E0,2.630629578E0,7.696245575E0,2.084265747E0,8.396223653E0
3.432126875E0,2.390828247E0,7.977959747E0,2.608325958E0,8.727385963E0
3.442134875E0,2.059866486E0,8.556356964E0,2.934048615E0,9.277011141E0
3.452143875E0,1.791624298E0,9.260642395E0,3.405717773E0,1.002837618E1
3.462151875E0,1.511257324E0,1.012090347E1,3.826941833E0,1.092529494E1
3.472159875E0,1.257534943E0,1.108040817E1,4.127965851E0,1.189104459E1
3.482168875E0,1.109792175E0,1.183873123E1,4.465214539E0,1.270139113E1
3.492176875E0,1.102457428E0,1.235425919E1,4.782105560E0,1.329329402E1
3.502184875E0,1.310824127E0,1.253164032E1,4.874613190E0,1.351007486E1
3.512193875E0,1.577270050E0,1.256996063E1,4.749024353E0,1.352940957E1
3.522201875E0,1.804048462E0,1.256202713E1,4.312681732E0,1.340366891E1
3.532209875E0,2.133812714E0,1.240679993E1,3.774999847E0,1.314277235E1
3.542218875E0,2.468965759E0,1.224827957E1,2.993475037E0,1.284823090E1
3.552226875E0,2.674188995E0,1.186372925E1,2.127525787E0,1.234608134E1
3.562234875E0,2.884501648E0,1.123937759E1,1.172511749E0,1.166270733E1
3.572243875E0,3.016527100E0,1.037058426E1,-9.539662170E-1,1.084244000E1
3.582251875E0,2.395468597E0,9.803563385E0,-3.203488312E0,1.058822281E1
3.592259875E0,1.038839722E0,9.896669769E0,-3.546724548E0,1.056420918E1
3.602268875E0,5.917195129E-1,9.297016754E0,-2.662064209E0,9.688717065E0
3.612276875E0,5.484594727E-1,8.352780304E0,-1.651515656E0,8.532130482E0
3.622284875E0,3.858975220E-1,7.724686432E0,-7.771838379E-1,7.773269073E0
3.632293875E0,8.517288208E-2,7.633675690E0,-3.869453430E-1,7.643950919E0
3.642301875E0,-5.375321960E-1,7.319029999E0,-5.901178436E0,9.417061533E0
3.652309875E0,-1.656006317E0,7.150181122E0,-1.320538925E1,1.510793673E1
3.662318875E0,-2.829116821E0,9.331145782E0,-4.491709442E0,1.073543838E1
3.672326875E0,-1.958676910E0,1.215457443E1,2.806962891E0,1.262731704E1
3.682334875E0,-4.843927002E-1,1.384530853E1,5.448519745E0,1.488669111E1
3.692343875E0,3.887416077E-1,1.554382645E1,6.533463593E0,1.686558055E1
3.702351875E0,1.293759613E0,1.709340408E1,6.490502930E0,1.832989104E1
3.712359875E0,2.410736847E0,1.768766830E1,4.965773621E0,1.852900887E1
3.722368875E0,4.243076477E0,1.733470230E1,3.707789612E-1,1.785029633E1
3.732376875E0,7.160659332E0,1.632011215E1,-8.335117035E0,1.967473707E1
3.742384875E0,8.314459991E0,1.379875534E1,-8.101752319E0,1.803258951E1
3.752393875E0,8.047415314E0,1.119087845E1,-3.253634033E0,1.416272531E1
3.762401875E0,7.631430359E0,8.432863770E0,3.646417236E-1,1.137914251E1
3.772409875E0,7.056625671E0,6.040987701E0,4.219874725E0,1.020278594E1
3.782418500E0,6.472390594E0,4.242328033E0,7.782615967E0,1.097534958E1
3.792426500E0,5.777685242E0,2.811752930E0,1.070483917E1,1.248523860E1
3.802434500E0,4.735103302E0,2.119741974E0,1.121288269E1,1.235488760E1
3.812443500E0,2.528691559E0,3.510799255E0,8.415499878E0,9.462591115E0
3.822451500E0,6.638694763E-1,5.130580902E0,5.392236786E0,7.472603337E0
3.832459500E0,-7.845185852E-1,6.270610199E0,3.625311127E0,7.285526916E0
3.842468500E0,-2.275418243E0,7.201224976E0,3.098855896E0,8.163214881E0
3.852476500E0,-3.086581421E0,7.868686981E0,3.450923767E0,9.129736827E0
3.862484500E0,-3.327729950E0,8.510701904E0,3.438349915E0,9.763610175E0
3.872492500E0,-3.336112518E0,9.091793518E0,2.866688690E0,1.009991387E1
3.882501500E0,-3.203937378E0,9.479487305E0,2.055226135E0,1.021517737E1
3.892509500E0,-2.927612000E0,9.497300262E0,1.230441284E0,1.001417046E1
3.902517500E0,-2.533481598E0,9.140592041E0,6.164181519E-1,9.505205059E0
3.912526500E0,-2.106419678E0,8.607849884E0,3.014730835E-1,8.866959428E0
3.922534500E0,-1.356179810E0,7.874225464E0,9.057664490E-1,8.041334665E0
3.932543500E0,-8.740324402E-1,7.212152252E0,1.919458466E0,7.514212774E0
3.942551500E0,-6.505471802E-1,6.664441223E0,2.767145691E0,7.245349110E0
3.952559500E0,-4.260140991E-1,6.195316772E0,3.409609680E0,7.084410780E0
3.962567500E0,-1.336720276E-1,5.923931122E0,4.075574799E0,7.191740963E0
3.972576500E0,3.647914124E-1,6.026767273E0,4.800517273E0,7.713621888E0
3.982584500E0,1.026714935E0,6.619983673E0,5.619015198E0,8.743663945E0
3.992592500E0,1.723515930E0,7.632328491E0,6.254593506E0,1.001712959E1
4.002601500E0,2.462379456E0,8.964109039E0,6.370003510E0,1.126922837E1
4.012609500E0,3.089874573E0,1.021041733E1,5.803431702E0,1.214412477E1
4.022617500E0,3.677552490E0,1.083836151E1,4.951403503E0,1.247039972E1
4.032626500E0,4.216132507E0,1.088401657E1,4.457730103E0,1.249435663E1
4.042634500E0,4.632267151E0,1.054212753E1,4.572241974E0,1.238950155E1
4.052642500E0,4.919070740E0,9.958790588E0,5.289101257E0,1.230241273E1
4.062651500E0,5.075794830E0,9.616003418E0,6.042035522E0,1.243934919E1
4.072659500E0,5.046156464E0,9.717492371E0,6.319708099E0,1.264247062E1
4.082667500E0,4.748724976E0,1.053763687E1,5.967041473E0,1.300760407E1
4.092676500E0,4.342619476E0,1.183513870E1,5.096900940E0,1.359806057E1
4.102684500E0,4.061803436E0,1.360969849E1,4.589605865E0,1.492603839E1
4.112692500E0,3.767665100E0,1.534518951E1,4.126618652E0,1.633092536E1
4.122701500E0,3.427272949E0,1.670376434E1,3.580703888E0,1.742364438E1
4.132709500E0,2.932551727E0,1.721555008E1,2.684367828E0,1.766864043E1
4.142717500E0,2.335144043E0,1.587254288E1,1.237177277E0,1.609102615E1
4.152726500E0,1.536704407E0,1.315449509E1,-3.396437073E0,1.367252669E1
4.162734500E0,2.568658447E-1,1.008542725E1,-1.272683441E1,1.624050913E1
4.172742500E0,-6.140231323E-1,7.980654144E0,-1.130060028E1,1.384815626E1
4.182751500E0,-6.056405640E-1,7.339088287E0,-4.814288635E0,8.798090273E0
4.192759500E0,1.252894592E-1,7.454049225E0,1.390458527E0,7.583661531E0
4.202767500E0,9.633966064E-1,8.186925201E0,5.235961761E0,9.765714149E0
4.212776500E0,1.097966766E0,8.924890594E0,6.128256226E0,1.088185313E1
4.222784500E0,6.665638733E-1,9.180409241E0,5.131329346E0,1.053825233E1
4.232792500E0,2.097138977E-1,9.463320923E0,3.698658600E0,1.016260293E1
4.242801500E0,-3.412902832E-2,1.009785141E1,2.808908844E0,1.048130415E1
4.252809500E0,-1.257385254E-1,1.076007431E1,2.304008789E0,1.100470199E1
4.262818500E0,-3.053649902E-1,1.134415970E1,1.815275116E0,1.149253805E1
4.272826500E0,-4.572990417E-1,1.150357819E1,1.496438141E0,1.160951164E1
4.282834500E0,-6.158193970E-1,1.105002136E1,1.274300079E0,1.114028933E1
4.292842500E0,-8.024812317E-1,1.028496231E1,1.058898010E0,1.037042385E1
4.302851500E0,-1.042731628E0,9.594448242E0,9.707313538E-1,9.699641523E0
4.312859500E0,-1.366208954E0,9.122330017E0,9.734257507E-1,9.275289189E0
4.322867500E0,-1.742077332E0,8.936266937E0,1.140628052E0,9.175659789E0
4.332876500E0,-2.156715088E0,8.973240051E0,1.447190552E0,9.341563974E0
4.342884500E0,-2.593656464E0,9.193581848E0,1.809287567E0,9.722269414E0
4.352892500E0,-2.993325348E0,9.493707733E0,2.166145477E0,1.018737794E1
4.362901500E0,-3.344046021E0,9.789941711E0,2.450404358E0,1.063156075E1
4.372909500E0,-3.619024200E0,9.971364441E0,2.614313507E0,1.092520389E1
4.382917500E0,-3.782933350E0,9.928104401E0,2.694846039E0,1.096084107E1
4.392926500E0,-3.810326385E0,9.705666962E0,2.632276154E0,1.075394979E1
4.402934500E0,-3.657643890E0,9.276060333E0,2.536175995E0,1.028862687E1
4.412943500E0,-3.396586761E0,8.799900513E0,2.264341278E0,9.700633592E0
4.422951500E0,-2.871478729E0,8.273894348E0,2.051034851E0,8.994968690E0
4.432959500E0,-2.242187347E0,7.991132355E0,2.009271698E0,8.539483191E0
4.442968500E0,-1.824855194E0,8.117769012E0,2.059267731E0,8.571397424E0
4.452976500E0,-1.482068024E0,8.468040619E0,2.269430695E0,8.891262747E0
4.462984500E0,-1.208287354E0,8.893306274E0,2.483036499E0,9.312160065E0
4.472993500E0,-9.282197571E-1,9.290729828E0,2.596051483E0,9.691167936E0
4.483001500E0,-6.337820435E-1,9.620643768E0,2.631827087E0,9.994247346E0
4.493009500E0,-2.610571289E-1,9.854756927E0,2.483635254E0,1.016625934E1
4.503018500E0,1.624122620E-1,1.012284943E1,2.005080414E0,1.032079482E1
4.513026500E0,7.107220459E-1,1.034034714E1,1.268312531E0,1.044205542E1
4.523034500E0,1.401535492E0,1.041878403E1,2.616558838E-1,1.051588447E1
4.533043500E0,2.432890778E0,1.066846481E1,-2.980003052E0,1.134087815E1
4.543051500E0,3.735182648E0,1.104972198E1,-7.477550354E0,1.385502453E1
4.553059500E0,3.601660309E0,1.067984116E1,-5.922284546E0,1.273202334E1
4.563068500E0,2.508034515E0,1.029184799E1,-2.719245300E0,1.093648331E1
4.573076500E0,1.568737793E0,1.006686584E1,-1.115180969E-1,1.018897259E1
4.583084500E0,1.046024780E0,9.692793732E0,1.610950012E0,9.881274114E0
4.593093500E0,5.828878784E-1,9.474397888E0,2.282303925E0,9.762831804E0
4.603101500E0,3.338058472E-2,9.567653961E0,2.499801636E0,9.888888957E0
4.613109500E0,-5.563929749E-1,9.821076965E0,2.337239685E0,1.011067828E1
4.623118500E0,-1.149160309E0,1.014260834E1,2.025587769E0,1.040654021E1
4.633126500E0,-1.719474335E0,1.052132080E1,1.767225037E0,1.080638088E1
4.643134500E0,-2.278561707E0,1.083776276E1,1.739532623E0,1.121048254E1
4.653143500E0,-2.805765381E0,1.098071548E1,1.835034027E0,1.148110543E1
4.663151500E0,-3.286864929E0,1.094374237E1,2.031126251E0,1.160579390E1
4.673159500E0,-3.923491058E0,1.087024521E1,2.512375488E0,1.182658208E1
4.683168500E0,-4.357588348E0,1.073747131E1,3.157982941E0,1.201060876E1
4.693176500E0,-4.136198730E0,1.057086777E1,3.244353333E0,1.180581271E1
4.703184500E0,-3.323388977E0,1.043884232E1,2.978955231E0,1.135290789E1
4.713193500E0,-2.199526062E0,1.042866348E1,2.764900360E0,1.101088602E1
4.723201500E0,-1.616787872E0,1.073537567E1,2.693798218E0,1.118565343E1
4.733209500E0,-1.024469604E0,1.112546448E1,2.517464905E0,1.145264718E1
4.743218500E0,-3.393443298E-1,1.144280457E1,2.101929016E0,1.163920257E1
4.753226500E0,4.727169800E-1,1.153516251E1,1.044976959E0,1.159204090E1
4.763234500E0,1.387165375E0,1.142798538E1,-8.948391724E-1,1.154659321E1
4.773243500E0,2.151475983E0,1.112995514E1,-3.016078033E0,1.173036560E1
4.783252000E0,2.489473114E0,1.045201492E1,-3.953279114E0,1.144860289E1
4.793260000E0,2.314936066E0,9.340576172E0,-3.116668854E0,1.011528136E1
4.803269000E0,1.748513947E0,8.225694580E0,-1.260678406E0,8.503450029E0
4.813277000E0,1.222507782E0,7.583529968E0,7.653584290E-1,7.719470551E0
4.823285000E0,8.863069153E-1,7.323820038E0,2.316133575E0,7.732292974E0
4.833294000E0,6.029461670E-1,7.610473938E0,2.970422974E0,8.191841691E0
4.843302000E0,5.460644531E-1,8.113727417E0,3.179089050E0,8.731401158E0
4.853310000E0,5.927673340E-1,8.689130859E0,3.318149872E0,9.320004655E0
4.863319000E0,7.806266785E-1,9.227860565E0,3.329376526E0,9.841114605E0
4.873327000E0,1.008602600E0,9.775272217E0,3.119962006E0,1.031054747E1
4.883335000E0,1.265468445E0,1.025277924E1,2.906954956E0,1.073178827E1
4.893344000E0,1.578916626E0,1.057535843E1,2.743794250E0,1.103900315E1
4.903352000E0,1.945953369E0,1.059287201E1,2.499651947E0,1.105639778E1
4.913360000E0,2.329455872E0,1.028690826E1,2.210752716E0,1.077656132E1
4.923369000E0,2.683170319E0,9.741592255E0,2.026485901E0,1.030556489E1
4.933377000E0,2.971919861E0,9.028924255E0,1.974992981E0,9.708469403E0
4.943385000E0,3.132386169E0,8.363707581E0,1.980980530E0,9.148099883E0
4.953394000E0,3.228186951E0,7.790549469E0,1.886227570E0,8.641279214E0
4.963402000E0,3.213816833E0,7.353907471E0,1.833387451E0,8.232246551E0
4.973410000E0,3.096311188E0,7.142546997E0,1.829645233E0,7.996919548E0
4.983419000E0,2.941233673E0,7.037465515E0,1.727707214E0,7.820597715E0
4.993427000E0,2.787653046E0,7.094646606E0,1.632954254E0,7.795611558E0
5.003435000E0,2.564616852E0,7.418123932E0,1.631607056E0,8.016730247E0
5.013444000E0,2.411784668E0,7.799830170E0,1.597028961E0,8.318927663E0
5.023452000E0,2.316732330E0,8.175997925E0,1.454525299E0,8.621475199E0
5.033460000E0,2.312541046E0,8.521030426E0,1.384920044E0,8.937214842E0
5.043469000E0,2.335892487E0,8.809630280E0,1.398092651E0,9.220663882E0
5.053477000E0,2.370769958E0,8.993897095E0,1.496138763E0,9.420677595E0
5.063486000E0,2.416425018E0,9.128167877E0,1.675914917E0,9.590164205E0
5.073494000E0,2.475102997E0,9.266480255E0,1.831291809E0,9.764600394E0
5.083502000E0,2.510728912E0,9.416917419E0,1.916015625E0,9.932432191E0
5.093511000E0,2.583777008E0,9.528285828E0,1.964215393E0,1.006589671E1
5.103519000E0,2.652184753E0,9.547595673E0,1.982627106E0,1.010551717E1
5.113527000E0,2.733615417E0,9.484427032E0,1.910177765E0,1.005364553E1
5.123536000E0,2.875819702E0,9.315877533E0,1.786385193E0,9.911966769E0
5.133544000E0,3.009342041E0,9.129365387E0,1.657353516E0,9.754397601E0
5.143552000E0,3.019969940E0,9.073232117E0,1.347348175E0,9.657075468E0
5.153561000E0,3.072510681E0,9.073681183E0,9.708810425E-1,9.628843238E0
5.163569000E0,3.180136871E0,9.132808228E0,6.131250000E-1,9.690065991E0
5.173577000E0,3.308869171E0,9.100924530E0,4.067042542E-1,9.692308850E0
5.183586000E0,3.340902557E0,9.139843597E0,4.562512207E-1,9.741998566E0
5.193594000E0,3.404220886E0,9.188342743E0,8.797206116E-1,9.838102996E0
5.203602000E0,3.494782562E0,9.291178894E0,1.416654053E0,1.002728374E1
5.213611000E0,3.633244629E0,9.362730103E0,1.809287567E0,1.020464125E1
5.223619000E0,3.804488525E0,9.404044189E0,2.041754150E0,1.034789544E1
5.233627000E0,4.006717987E0,9.399254150E0,2.136956177E0,1.043869481E1
5.243636000E0,4.251159668E0,9.360035706E0,2.106868744E0,1.049388026E1
5.253644000E0,4.497696991E0,9.350605316E0,1.985920258E0,1.056442035E1
5.263652000E0,4.775070190E0,9.277257843E0,1.872755585E0,1.060075572E1
5.273661000E0,5.058580627E0,9.180109863E0,1.750609589E0,1.062677228E1
5.283669000E0,5.287155304E0,9.129066010E0,1.735491028E0,1.069138843E1
5.293677000E0,5.494623871E0,9.031468964E0,1.828896790E0,1.072861532E1
5.303686000E0,5.610782318E0,9.001381531E0,1.861828308E0,1.076903674E1
5.313694000E0,5.718558197E0,9.155111847E0,2.022743683E0,1.098223442E1
5.323702000E0,5.781876526E0,9.530231781E0,2.162253571E0,1.135476792E1
5.333711000E0,5.825435944E0,1.006821304E1,1.943408661E0,1.179328008E1
5.343719000E0,5.960305481E0,1.071606583E1,1.408570862E0,1.234274605E1
5.353727000E0,6.137087860E0,1.137544464E1,8.361611938E-1,1.295236479E1
5.363736000E0,6.091732178E0,1.206176743E1,3.135978699E-1,1.351642623E1
5.373744000E0,6.097869415E0,1.216280731E1,1.173559570E-1,1.360630977E1
5.383752000E0,5.786816254E0,1.136017639E1,-9.415420532E-2,1.274949862E1
5.393761000E0,5.088668060E0,9.962981873E0,3.459306335E-1,1.119264126E1
5.403769000E0,4.152065735E0,8.729696503E0,9.406439209E-1,9.712469402E0
5.413778000E0,3.508404236E0,7.530240784E0,1.168919220E0,8.389266874E0
5.423786000E0,3.020868073E0,6.744375000E0,1.167871399E0,7.481721838E0
5.433794000E0,2.639311523E0,6.462660828E0,1.161734161E0,7.076833794E0
5.443803000E0,2.446662140E0,6.541247406E0,1.290616150E0,7.102095698E0
5.453811000E0,2.336790619E0,7.248526611E0,1.444945221E0,7.751747875E0
5.463819000E0,2.237397308E0,8.475824432E0,1.414408722E0,8.879532564E0
5.473828000E0,2.044448547E0,9.903555450E0,1.152453461E0,1.017783520E1
5.483836000E0,1.707499237E0,1.140403519E1,9.080117798E-1,1.156685167E1
5.493844000E0,1.259031830E0,1.267234772E1,7.873626709E-1,1.275905552E1
5.503853000E0,8.641529846E-1,1.338726105E1,9.068142700E-1,1.344573653E1
5.513861000E0,4.830455017E-1,1.341360626E1,1.238524475E0,1.347932153E1
5.523869000E0,2.417472839E-1,1.276979507E1,1.453327789E0,1.285450387E1
5.533878000E0,2.978805542E-2,1.180011154E1,1.506616974E0,1.189594109E1
5.543886000E0,-2.725831604E-1,1.092203751E1,1.491498413E0,1.102677525E1
5.553894000E0,-6.249504089E-1,1.019005966E1,1.531764679E0,1.032347722E1
5.563903000E0,-1.066532135E0,9.605974274E0,1.645528107E0,9.804080543E0
5.573911000E0,-1.548380127E0,9.301208038E0,1.968556366E0,9.632505705E0
5.583919000E0,-1.952389984E0,9.169032898E0,2.328857117E0,9.659532411E0
5.593928000E0,-2.251617737E0,9.167685699E0,2.581980743E0,9.786872232E0
5.603936000E0,-2.489024048E0,9.288484497E0,2.654280396E0,9.975790163E0
5.613944000E0,-2.638413391E0,9.393416290E0,2.591710510E0,1.009526910E1
5.623953000E0,-2.800975342E0,9.424252167E0,2.536475372E0,1.015360523E1
5.633961000E0,-2.916834412E0,9.368717651E0,2.442021790E0,1.011159057E1
5.643969000E0,-2.975063324E0,9.192534027E0,2.311044159E0,9.934516029E0
5.653978000E0,-2.919977875E0,8.909023590E0,2.074236603E0,9.602053406E0
5.663986000E0,-2.754871216E0,8.546477509E0,1.788331146E0,9.155857224E0
5.673994000E0,-2.550546112E0,8.200995941E0,1.395547943E0,8.701101882E0
5.684003000E0,-2.233355713E0,7.914791107E0,1.094972992E0,8.296430670E0
5.694011000E0,-1.864522705E0,7.742050323E0,9.428892517E-1,8.019029135E0
5.704020000E0,-1.607507172E0,7.889942780E0,7.113208008E-1,8.083393697E0
5.714028000E0,-1.280287628E0,8.159681854E0,6.828799438E-1,8.287693852E0
5.724036000E0,-9.559121704E-1,8.539142761E0,9.023236084E-1,8.639728877E0
5.734045000E0,-6.536906433E-1,9.032816162E0,1.201102295E0,9.135738941E0
5.744053000E0,-3.719764709E-1,9.574389954E0,1.468895416E0,9.693552663E0
5.754061000E0,-2.754272461E-2,1.004321503E1,1.798959045E0,1.020309660E1
5.764070000E0,3.112028503E-1,1.046009811E1,2.024839325E0,1.065882142E1
5.774078000E0,6.988966370E-1,1.075199112E1,2.245929565E0,1.100626954E1
5.784086208E0,1.119821320E0,1.089554260E1,2.364483032E0,1.120525004E1
5.794095208E0,1.605710907E0,1.093506042E1,2.414778442E0,1.131304596E1
5.804103208E0,2.059118042E0,1.083955902E1,2.367626495E0,1.128457629E1
5.814111208E0,2.501897278E0,1.061397812E1,2.220931549E0,1.112872672E1
5.824120208E0,2.880759430E0,1.043794418E1,2.125729523E0,1.103486201E1
5.834128208E0,3.194357300E0,1.029499146E1,2.071991272E0,1.097651654E1
5.844136208E0,3.411106567E0,1.010683273E1,1.930834808E0,1.084028777E1
5.854145208E0,3.555107117E0,1.003273682E1,1.856589203E0,1.080469889E1
5.864153208E0,3.680845642E0,1.001133133E1,1.764680328E0,1.081154366E1
5.874161208E0,3.745660858E0,9.960137787E0,1.693877563E0,1.077513532E1
5.884170208E0,3.788322144E0,9.757159882E0,1.653910675E0,1.059664919E1
5.894178208E0,3.835174713E0,9.389823761E0,1.392853546E0,1.023803674E1
5.904187208E0,3.822900238E0,8.889564056E0,1.325343933E0,9.767059531E0
5.914195208E0,3.734434204E0,8.219257965E0,1.363664246E0,9.130267274E0
5.924203208E0,3.595672760E0,7.598498840E0,1.417252808E0,8.524942976E0
5.934212208E0,3.466940460E0,7.117698669E0,1.468895416E0,8.052264542E0
5.944220208E0,3.347937927E0,6.640341339E0,1.701362000E0,7.628725589E0
5.954228208E0,2.934198303E0,6.623576202E0,1.851799164E0,7.477328503E0
5.964237208E0,2.687062225E0,6.867568817E0,2.063159637E0,7.657704131E0
5.974245208E0,2.586022339E0,7.354356537E0,2.336191864E0,8.138296138E0
5.984253208E0,2.540966034E0,8.067323914E0,2.593656464E0,8.846766492E0
5.994262208E0,2.583627319E0,8.862769775E0,2.777923279E0,9.640574462E0
6.004270208E0,2.711461487E0,9.619745636E0,2.976859589E0,1.042848131E1
6.014278208E0,2.887196045E0,1.034049683E1,3.132386169E0,1.118363173E1
6.024287208E0,3.042423248E0,1.098999619E1,3.153492279E0,1.183135110E1
6.034295208E0,3.229534149E0,1.151824768E1,3.049608307E0,1.234504076E1
6.044303208E0,3.388204193E0,1.195668594E1,2.750979309E0,1.272832092E1
6.054312208E0,3.546874237E0,1.229737747E1,2.304008789E0,1.300439411E1
6.064320208E0,3.747756500E0,1.263702118E1,2.055974579E0,1.334042782E1
6.074328208E0,4.160298615E0,1.295271469E1,1.928140411E0,1.374040130E1
6.084337208E0,4.440366211E0,1.336331085E1,1.744472351E0,1.418936619E1
6.094345208E0,4.870721283E0,1.374516678E1,8.906478882E-1,1.460981825E1
6.104354208E0,5.582640839E0,1.392479324E1,-1.456920319E0,1.507276890E1
6.114362208E0,6.421197052E0,1.374486740E1,-4.693789215E0,1.588032772E1
6.124370208E0,6.382427673E0,1.365310822E1,-2.854563904E0,1.533920735E1
6.134379208E0,6.116730194E0,1.317605026E1,-1.069825287E0,1.456596083E1
6.144387208E0,5.469476166E0,1.173409882E1,-3.618874512E0,1.344248851E1
6.154395208E0,3.798950043E0,1.070034851E1,-4.145479431E0,1.208778224E1
6.164404208E0,2.472707977E0,1.099792969E1,-3.507206726E-1,1.127793186E1
6.174412208E0,1.578617249E0,1.117785553E1,2.280507660E0,1.151682256E1
6.184420208E0,9.068142700E-1,1.020996826E1,2.564317474E0,1.056605357E1
6.194429208E0,3.171903992E-1,9.127569122E0,2.293231201E0,9.416583094E0
6.204437208E0,-8.816665649E-2,8.455616455E0,2.218686218E0,8.742298984E0
6.214445208E0,-2.818638611E-1,7.940238190E0,2.066901855E0,8.209684100E0
6.224454208E0,-3.505709839E-1,7.705226898E0,1.899250488E0,7.943586972E0
6.234462208E0,-4.541555786E-1,7.725584564E0,1.689087524E0,7.921106666E0
6.244470208E0,-5.782475281E-1,7.854915619E0,1.509161682E0,8.019453757E0
6.254479208E0,-6.797364807E-1,7.904612274E0,1.269659729E0,8.034735386E0
6.264487208E0,-7.890092468E-1,7.853867798E0,9.985734558E-1,7.956313463E0
6.274495208E0,-8.843609619E-1,7.743547211E0,7.083270264E-1,7.826004401E0
6.284504208E0,-9.327104187E-1,7.649842072E0,4.076023865E-1,7.717264551E0
6.294512208E0,-9.442364502E-1,7.676336975E0,9.864486694E-2,7.734821435E0
6.304521208E0,-1.037492523E0,7.904163208E0,-4.390370178E-1,7.984042852E0
6.314529208E0,-1.051114197E0,8.463699646E0,-1.133293304E0,8.603685633E0
6.324537208E0,-8.975335693E-1,9.275910645E0,-1.615141296E0,9.458158711E0
6.334546208E0,-6.993457031E-1,1.003692810E1,-1.456620941E0,1.016615732E1
6.344554208E0,-5.209167480E-1,1.043839325E1,-7.104226685E-1,1.047550038E1
6.354562208E0,-1.917512512E-1,1.041279648E1,2.727328491E-1,1.041813238E1
6.364571208E0,5.644761658E-1,9.753118286E0,1.613644409E0,9.901807811E0
6.374579208E0,1.304986267E0,9.170529785E0,2.508333893E0,9.596527737E0
6.384587208E0,2.140548706E0,8.608748016E0,3.100652161E0,9.397155686E0
6.394596208E0,2.938988342E0,8.369246063E0,3.243754578E0,9.444780352E0
6.404604208E0,3.538192291E0,8.274792480E0,2.972368927E0,9.477656478E0
6.414612208E0,3.980372772E0,8.058941345E0,2.706671448E0,9.387010884E0
6.424621208E0,4.161795502E0,8.031697998E0,2.506387939E0,9.386729730E0
6.434629208E0,3.563938751E0,8.392298126E0,2.485431519E0,9.450380791E0
6.444637208E0,2.783312073E0,9.286688232E0,2.277214508E0,9.958670109E0
6.454646208E0,2.092798004E0,1.023601410E1,2.233355713E0,1.068380390E1
6.464654208E0,1.433119812E0,1.097487762E1,2.726130981E0,1.139884035E1
6.474662208E0,8.860075378E-1,1.119327347E1,3.329376526E0,1.171149556E1
6.484671208E0,4.929249573E-1,1.071965836E1,3.741319885E0,1.136448524E1
6.494679208E0,3.990701294E-1,9.601633301E0,3.672014008E0,1.028758018E1
6.504688208E0,5.879772949E-1,8.270152130E0,3.374881897E0,8.951589880E0
6.514696208E0,8.620573425E-1,7.150630188E0,3.219654694E0,7.889285854E0
6.524704208E0,1.126856689E0,6.274202728E0,3.314108276E0,7.184618260E0
6.534713208E0,1.487456818E0,5.760171661E0,3.660338287E0,6.984996903E0
6.544721208E0,1.843117218E0,5.589676208E0,3.993096313E0,7.112410236E0
6.554729208E0,2.157463531E0,5.583089905E0,4.293222198E0,7.365955377E0
6.564738208E0,2.501897278E0,5.844296722E0,4.455933838E0,7.763416808E0
6.574746208E0,2.852318573E0,6.574777679E0,4.573140106E0,8.501590040E0
6.584754208E0,3.207829285E0,7.632178802E0,4.738546143E0,9.539084942E0
6.594763208E0,3.319646759E0,8.915909271E0,4.641248474E0,1.058558832E1
6.604771208E0,3.352278900E0,1.005099884E1,4.529580688E0,1.152290991E1
6.614779208E0,3.485651550E0,1.111723160E1,4.657714233E0,1.254738646E1
6.624788208E0,3.623963928E0,1.198123489E1,4.768334198E0,1.339477940E1
6.634796208E0,3.744613037E0,1.250858826E1,4.843178558E0,1.392635220E1
6.644805208E0,3.884871368E0,1.256876312E1,4.696782990E0,1.396874377E1
6.654813208E0,3.988156586E0,1.184935913E1,4.281696167E0,1.321535572E1
6.664821208E0,4.052822113E0,1.046952850E1,3.801345062E0,1.185270511E1
6.674830208E0,3.944746857E0,9.543254700E0,3.349584503E0,1.085607914E1
6.684838208E0,3.621269531E0,1.022598495E1,3.101699982E0,1.128294749E1
6.694846208E0,3.263663177E0,1.209739334E1,3.004701691E0,1.288513311E1
6.704855208E0,2.900518341E0,1.421399185E1,2.603236542E0,1.473863669E1
6.714863208E0,2.441123657E0,1.614168320E1,2.079924774E0,1.645719017E1
6.724871208E0,1.876797180E0,1.717573288E1,1.591490479E0,1.735110975E1
6.734880208E0,1.107846222E0,1.639061554E1,1.083746338E0,1.646372094E1
6.744888208E0,4.346960449E-1,1.375145370E1,7.179071045E-1,1.377703997E1
6.754896208E0,2.829116821E-2,1.110331055E1,5.879772949E-1,1.111890385E1
6.764905208E0,-7.619155884E-2,8.947493591E0,4.616400146E-1,8.959718646E0
6.774913208E0,4.071533203E-2,7.134164429E0,5.902226257E-1,7.158653685E0
6.784920458E0,1.190025330E-1,5.925877075E0,8.345146179E-1,5.985532170E0
6.794929458E0,1.173559570E-1,5.295388184E0,8.496331787E-1,5.364399778E0
6.804937458E0,-6.322851562E-1,5.495222626E0,5.014572144E-2,5.531705959E0
6.814946458E0,-6.581813049E-1,6.526128845E0,1.040336609E-1,6.560059705E0
6.824954458E0,-6.286926270E-2,7.773484955E0,2.213896179E-1,7.776891040E0
6.834962458E0,2.044747925E-1,8.818461914E0,7.134164429E-1,8.849635218E0
6.844971458E0,4.447251892E-1,9.486822052E0,1.482217712E0,9.612207992E0
6.854979458E0,4.278103638E-1,1.011461655E1,1.865570526E0,1.029411691E1
6.864987458E0,4.502636719E-1,1.065978287E1,1.805096283E0,1.082090942E1
6.874996458E0,4.575984192E-1,1.089329727E1,1.560953979E0,1.101407731E1
6.885004458E0,3.552113342E-1,1.073238190E1,1.238225098E0,1.080941246E1
6.895012458E0,2.198927307E-1,1.023661285E1,9.502239990E-1,1.028297239E1
6.905021458E0,1.869612122E-1,9.651329956E0,7.679031372E-1,9.683635662E0
6.915029458E0,1.411564636E-1,9.044042816E0,6.322851562E-1,9.067216780E0
6.925037458E0,1.013392639E-1,8.565188599E0,5.761518860E-1,8.585142769E0
6.935046458E0,7.903564453E-2,8.202343140E0,5.345384216E-1,8.220122319E0
6.945054458E0,3.652404785E-2,8.001760254E0,5.385800171E-1,8.019948229E0
6.955063458E0,-4.580474854E-2,7.932903442E0,5.361849976E-1,7.951135105E0
6.965071458E0,-1.386117554E-1,7.959697723E0,5.541476440E-1,7.980167961E0
6.975079458E0,-2.508782959E-1,8.018226013E0,5.948629761E-1,8.044174928E0
6.985088458E0,-3.926335144E-1,8.130791931E0,6.514453125E-1,8.166291661E0
6.995096458E0,-5.575904846E-1,8.308921509E0,7.686515808E-1,8.363008373E0
7.005104458E0,-6.872209167E-1,8.505911865E0,9.810598755E-1,8.589836304E0
7.015113458E0,-6.957531738E-1,8.643326111E0,1.344055023E0,8.774830063E0
7.025121458E0,-5.718109131E-1,8.660839691E0,1.750908966E0,8.854535227E0
7.035129458E0,-3.589535522E-1,8.585845642E0,2.198478241E0,8.870112717E0
7.045138458E0,-8.532257080E-2,8.475974121E0,2.509830780E0,8.840173516E0
7.055146458E0,2.028282166E-1,8.436156921E0,2.728975067E0,8.868888758E0
7.065154458E0,5.129832458E-1,8.451125793E0,2.943029938E0,8.963598842E0
7.075163458E0,8.331674194E-1,8.493487701E0,3.101849670E0,9.080472051E0
7.085171458E0,1.147214355E0,8.620423737E0,3.163521423E0,9.253954505E0
7.095179458E0,1.501078491E0,8.709638214E0,3.137924652E0,9.378571617E0
7.105188458E0,1.867516479E0,8.782835999E0,2.900817719E0,9.436131062E0
7.115196458E0,2.147434387E0,8.859326935E0,2.451152802E0,9.439666215E0
7.125205458E0,2.430196381E0,8.900940399E0,1.968107300E0,9.434301287E0
7.135213458E0,2.764002228E0,8.987909546E0,1.570534058E0,9.533561955E0
7.145221458E0,3.117417297E0,9.171278229E0,7.777825928E-1,9.717797112E0
7.155230458E0,3.484004974E0,9.449848938E0,2.170486450E-1,1.007397864E1
7.165238458E0,3.822151794E0,9.779313812E0,-3.505709839E-1,1.050555677E1
7.175246458E0,4.076921997E0,9.908794556E0,-6.426136780E-1,1.073398597E1
7.185255458E0,4.104015656E0,9.785151672E0,-2.547702026E-1,1.061400234E1
7.195263458E0,3.976181488E0,9.486372986E0,5.542973328E-1,1.030089982E1
7.205271458E0,3.798201599E0,9.182205505E0,1.303788757E0,1.002193087E1
7.215280458E0,3.495381317E0,9.229507141E0,1.843266907E0,1.003987677E1
7.225288458E0,3.106040955E0,9.640702057E0,2.220332794E0,1.036920943E1
7.235297458E0,2.774779816E0,1.024754013E1,2.604434052E0,1.093135666E1
7.245305458E0,2.490670624E0,1.101708984E1,2.913092194E0,1.166472524E1
7.255313458E0,2.304308167E0,1.171523804E1,3.189267883E0,1.235831979E1
7.265322458E0,2.228715363E0,1.226953537E1,3.466641083E0,1.294319399E1
7.275330458E0,2.219734039E0,1.288984543E1,3.391946411E0,1.351224019E1
7.285338458E0,2.340682526E0,1.352153183E1,3.065175934E0,1.406079376E1
7.295347458E0,2.541864166E0,1.404858582E1,2.605631561E0,1.451251710E1
7.305355458E0,2.818638611E0,1.433883224E1,1.843416595E0,1.472905355E1
7.315363458E0,3.151396637E0,1.396401169E1,5.792953491E-1,1.432691545E1
7.325372458E0,3.146905975E0,1.290990372E1,-9.535171509E-1,1.332208040E1
7.335380458E0,2.483635254E0,1.191058182E1,-1.369651794E0,1.224362485E1
7.345388458E0,1.786235504E0,1.091530151E1,-7.602690125E-1,1.108658890E1
7.355397458E0,1.327140198E0,9.890233154E0,-7.319778442E-2,9.979146801E0
7.365405458E0,1.098715210E0,8.843160553E0,2.823129272E-1,8.915624727E0
7.375414458E0,7.990383911E-1,7.936046906E0,-4.311035156E-2,7.976287441E0
7.385422458E0,3.363505554E-1,7.243586884E0,-1.315165100E0,7.369690759E0
7.395430458E0,-2.436932373E-1,6.349945221E0,-5.118456116E0,8.159643602E0
7.405439458E0,-1.065334625E0,5.421875153E0,-1.031998947E1,1.170614585E1
7.415447458E0,-2.096390533E0,7.171287231E0,-6.570586395E0,9.949614033E0
7.425455458E0,-2.990930328E0,9.727671204E0,-7.140151978E-2,1.017734491E1
7.435464458E0,-3.024460602E0,1.154459290E1,3.313509521E0,1.238565026E1
7.445472458E0,-2.918630676E0,1.288879761E1,4.588108978E0,1.398893323E1
7.455480458E0,-2.187251587E0,1.353724915E1,4.071383514E0,1.430445202E1
7.465489458E0,-1.109343109E0,1.364442627E1,2.949316864E0,1.400355242E1
7.475497458E0,-2.893482971E-1,1.365176102E1,1.670975189E0,1.375668781E1
7.485505458E0,9.529183960E-1,1.353335724E1,-7.228468323E-1,1.358610758E1
7.495514458E0,3.315904541E0,1.318877380E1,-5.649402008E0,1.472598793E1
7.505522458E0,5.070855103E0,1.256606873E1,-8.634195099E0,1.606763765E1
7.515531458E0,5.401966553E0,1.113773895E1,-5.608087921E0,1.358974326E1
7.525539458E0,5.198389893E0,9.513167267E0,-1.171613617E0,1.090395742E1
7.535547458E0,5.365741882E0,7.981103210E0,2.364333344E0,9.903497693E0
7.545556458E0,5.732479248E0,7.189100189E0,4.803810425E0,1.037405776E1
7.555564458E0,5.971831512E0,6.523284760E0,7.231911163E0,1.142438422E1
7.565572458E0,6.083349609E0,5.379812622E0,9.651479645E0,1.261350806E1
7.575581458E0,5.956712952E0,4.642445984E0,1.063358734E1,1.304254245E1
7.585589458E0,5.401068420E0,4.318669281E0,9.900411987E0,1.207644823E1
7.595597458E0,3.903732147E0,4.822970581E0,6.979236603E0,9.338624816E0
7.605606458E0,2.004032593E0,5.712420959E0,3.124153290E0,6.812358889E0
7.615614458E0,3.489244080E-1,6.657256165E0,6.658154297E-1,6.699561036E0
7.625623458E0,-1.205592957E0,7.796087952E0,1.451980591E-2,7.888767493E0
7.635631458E0,-2.457290039E0,8.997489624E0,1.056053925E0,9.386604485E0
7.645639458E0,-3.232527924E0,1.000010468E1,2.406246185E0,1.078152823E1
7.655648458E0,-3.259172516E0,1.053404434E1,2.985840912E0,1.142381467E1
7.665656458E0,-2.806364136E0,1.031834290E1,3.007695465E0,1.110811018E1
7.675664458E0,-1.455273743E0,9.024433594E0,2.728675690E0,9.539596133E0
7.685673458E0,-5.857319641E-1,7.795489197E0,2.845133514E0,8.319105629E0
7.695681458E0,-2.462379456E-1,7.219786377E0,2.989433441E0,7.818098282E0
7.705689458E0,-2.514770508E-2,6.871011658E0,3.134032745E0,7.552058981E0
7.715698458E0,2.170486450E-1,6.577322388E0,3.486998749E0,7.447646620E0
7.725706458E0,6.863227844E-1,6.385870514E0,4.084107056E0,7.611196465E0
7.735714458E0,1.307231598E0,6.344556427E0,4.699627075E0,8.003046005E0
7.745723458E0,2.131866760E0,6.552773438E0,5.293442230E0,8.689316789E0
7.755731458E0,3.162174225E0,7.025340729E0,6.000122681E0,9.765051478E0
7.765740458E0,4.187242584E0,7.939489746E0,6.373146973E0,1.100842860E1
7.775748458E0,5.180277557E0,9.062753906E0,6.102509766E0,1.209170829E1
7.785757333E0,5.996679840E0,1.010728180E1,5.559888153E0,1.300114113E1
7.795766333E0,6.476282501E0,1.089524323E1,4.983137512E0,1.361911229E1
7.805774333E0,6.712940369E0,1.131796417E1,4.859644318E0,1.402768777E1
7.815782333E0,6.584657135E0,1.154653885E1,5.117857361E0,1.424333995E1
7.825791333E0,6.040987701E0,1.137724091E1,5.094954987E0,1.385257050E1
7.835799333E0,5.420078888E0,1.079255676E1,4.829407196E0,1.300691011E1
7.845807333E0,4.761598206E0,1.042986099E1,4.591102753E0,1.235042681E1
7.855816333E0,4.111799469E0,1.053060150E1,4.366569672E0,1.211888582E1
7.865824333E0,3.660637665E0,1.136781052E1,4.228856049E0,1.266927810E1
7.875833333E0,3.456462250E0,1.315030380E1,4.048331451E0,1.418684633E1
7.885841333E0,3.244353333E0,1.541389664E1,3.483855286E0,1.613230565E1
7.895849333E0,2.830014954E0,1.711750397E1,2.574047241E0,1.753977326E1
7.905858333E0,2.199526062E0,1.696781525E1,1.849254456E0,1.720942797E1
7.915866333E0,1.537602539E0,1.484732483E1,1.192719727E0,1.497430654E1
7.925874333E0,9.228309631E-1,1.255484207E1,8.107141113E-1,1.261479028E1
7.935883333E0,3.327580261E-1,1.071786209E1,4.438270569E-1,1.073220752E1
7.945891333E0,-6.033952332E-1,9.080566864E0,-7.581733704E-1,9.132119537E0
7.955899333E0,-1.359922028E0,7.771239624E0,-1.541644135E0,8.038545879E0
7.965908333E0,-1.615440674E0,6.931036835E0,-1.708247681E0,7.318950083E0
7.975916333E0,-1.420695648E0,6.593189392E0,-1.432820435E0,6.895034219E0
7.985924333E0,-8.719367981E-1,6.710096283E0,-8.837622070E-1,6.823979890E0
7.995933333E0,-2.710862732E-1,7.437134399E0,-2.258802795E-1,7.445500503E0
8.005941333E0,5.942642212E-2,8.322243805E0,5.797444153E-1,8.342624110E0
8.015950333E0,1.116677856E-1,8.997339935E0,1.456920319E0,9.115218726E0
8.025958333E0,1.281335449E-1,9.587412872E0,1.889670410E0,9.772704746E0
8.035966333E0,2.544708252E-1,1.011042526E1,1.888323212E0,1.028840216E1
8.045975333E0,2.231858826E-1,1.058763290E1,1.731000366E0,1.073052397E1
8.055983333E0,9.460327148E-2,1.070094727E1,1.446891174E0,1.079873679E1
8.065991333E0,-3.143463135E-3,1.019305344E1,1.143322449E0,1.025697492E1
8.076000333E0,-3.906875610E-2,9.415719910E0,8.765771484E-1,9.456516022E0
8.086008333E0,-1.070274353E-1,8.782386932E0,6.771917725E-1,8.809106867E0
8.096017333E0,-2.204914856E-1,8.413404236E0,5.752537537E-1,8.435929363E0
8.106025333E0,-3.367996216E-1,8.385412445E0,5.983058167E-1,8.413474057E0
8.116033333E0,-4.273612976E-1,8.555608521E0,7.592211914E-1,8.599854165E0
8.126042333E0,-5.254074097E-1,8.747210083E0,9.366023254E-1,8.812886082E0
8.136050333E0,-6.261479187E-1,8.864116974E0,1.122366028E0,8.956803919E0
8.146058333E0,-6.981481934E-1,8.961264954E0,1.323697357E0,9.085364889E0
8.156067333E0,-7.535330200E-1,8.956624603E0,1.492097168E0,9.111272702E0
8.166075333E0,-7.798782349E-1,8.874295807E0,1.654958496E0,9.060917379E0
8.176083333E0,-6.908134460E-1,8.675060120E0,1.812730408E0,8.889312843E0
8.186092333E0,-4.372407532E-1,8.388256531E0,1.984423370E0,8.630872680E0
8.196100333E0,-1.869612122E-1,8.216114502E0,2.140399017E0,8.492396597E0
8.206108333E0,-4.790039062E-3,8.201145630E0,2.517614594E0,8.578880803E0
8.216117333E0,2.957849121E-1,8.407266998E0,2.783910828E0,8.861139125E0
8.226125333E0,6.502478027E-1,8.642128601E0,3.062182159E0,9.191635792E0
8.236134333E0,9.638456726E-1,8.798553314E0,3.340752869E0,9.460664281E0
8.246142333E0,1.295705566E0,8.937614136E0,3.490142212E0,9.681988020E0
8.256150333E0,1.624122620E0,8.990304565E0,3.379073181E0,9.740712809E0
8.266159333E0,1.955533447E0,8.999884644E0,3.107687531E0,9.720069776E0
8.276167333E0,2.296374664E0,9.043144684E0,2.568209381E0,9.677163934E0
8.286175333E0,2.593656464E0,9.133257294E0,2.033221893E0,9.709656735E0
8.296184333E0,2.882256317E0,9.219477997E0,1.538350983E0,9.781242240E0
8.306192333E0,3.232378235E0,9.374705200E0,7.262896729E-1,9.942880032E0
8.316200333E0,3.647914124E0,9.429790649E0,-1.695973206E-1,1.011221995E1
8.326209333E0,4.134701843E0,9.378746796E0,-1.735341339E0,1.039557888E1
8.336217333E0,4.653373260E0,9.174272003E0,-3.110830994E0,1.074701907E1
8.346226333E0,4.422253876E0,8.831335144E0,-1.090033264E0,9.936648443E0
8.356234333E0,3.985462189E0,8.646319885E0,6.756948853E-1,9.544596377E0
8.366242333E0,3.925287323E0,8.419691162E0,1.457369385E0,9.403350752E0
8.376251333E0,3.776945801E0,8.309071198E0,1.861229553E0,9.315050145E0
8.386259333E0,3.692371674E0,8.210576019E0,2.223775635E0,9.273205768E0
8.396267333E0,3.619173889E0,8.155789948E0,2.523901520E0,9.272831724E0
8.406276333E0,3.242407379E0,8.478219452E0,2.461032257E0,9.404790825E0
8.416284333E0,2.955154724E0,9.055419159E0,2.436632996E0,9.832127742E0
8.426293333E0,2.811154175E0,9.933343506E0,2.548600159E0,1.063340321E1
8.436301333E0,2.679428101E0,1.098026642E1,2.690654755E0,1.161831350E1
8.446309333E0,2.497406616E0,1.200279007E1,2.825075226E0,1.258113903E1
8.456318333E0,2.388732605E0,1.288206161E1,3.080593872E0,1.345896034E1
8.466326333E0,2.420765991E0,1.342558136E1,3.501368866E0,1.408424392E1
8.476334333E0,2.474504242E0,1.378692993E1,3.620072021E0,1.446746452E1
8.486343333E0,2.586321716E0,1.396895142E1,3.393443298E0,1.460603030E1
8.496351333E0,2.756517792E0,1.377046417E1,3.218457184E0,1.440772503E1
8.506359333E0,2.945724335E0,1.338306976E1,2.719544678E0,1.397067541E1
8.516368333E0,3.207978973E0,1.272264313E1,1.681603088E0,1.322817320E1
8.526376333E0,3.420387268E0,1.162931671E1,2.628533936E-1,1.212473291E1
8.536385333E0,3.206182709E0,1.061188248E1,-8.906478882E-1,1.112137181E1
8.546393333E0,2.401007080E0,1.018661682E1,-1.047072601E0,1.051800163E1
8.556401333E0,1.649719391E0,9.712552643E0,-5.860313416E-1,9.869077244E0
8.566410333E0,1.347497864E0,8.815917206E0,-1.667532349E-1,8.919862853E0
8.576418333E0,1.152902527E0,7.912096710E0,4.760101318E-2,7.995794172E0
8.586426333E0,8.602610779E-1,7.272177429E0,-9.295669556E-2,7.323472853E0
8.596435333E0,4.328997803E-1,6.794221344E0,-1.990410919E0,7.092995243E0
8.606443333E0,-2.062710571E-1,5.816753998E0,-9.397008820E0,1.105354918E1
8.616451333E0,-1.301693115E0,5.798192596E0,-1.197554672E1,1.336888782E1
8.626460333E0,-2.235900421E0,7.869734802E0,-5.198539581E0,9.693131090E0
8.636468333E0,-2.465672607E0,1.096859070E1,1.877695312E0,1.139803768E1
8.646477333E0,-2.167792053E0,1.299762131E1,4.843028870E0,1.403896046E1
8.656485333E0,-1.631008301E0,1.430320633E1,5.149890747E0,1.528931895E1
8.666493333E0,-9.151968384E-1,1.505135056E1,4.363725586E0,1.569786099E1
8.676502333E0,-2.528242493E-1,1.533276535E1,3.110681305E0,1.564717072E1
8.686510333E0,5.578898621E-1,1.530327667E1,1.544338531E0,1.539111755E1
8.696518333E0,2.442171478E0,1.476155319E1,-2.631228333E0,1.519180755E1
8.706527333E0,5.225633240E0,1.376387787E1,-9.814191284E0,1.769378216E1
8.716535333E0,6.214925995E0,1.194770462E1,-8.419541473E0,1.588274628E1
8.726544333E0,5.896687775E0,9.935289459E0,-3.206931152E0,1.199021729E1
8.736552333E0,5.843847656E0,7.940687256E0,1.167272644E0,9.928121421E0
8.746560333E0,5.887706451E0,6.624624023E0,4.189936981E0,9.803382203E0
8.756569333E0,5.764063568E0,5.888155518E0,7.137307892E0,1.090119113E1
8.766577333E0,5.770200806E0,4.798271942E0,1.011177246E1,1.259232200E1
8.776585333E0,5.570965118E0,4.035308533E0,1.184876038E1,1.370082077E1
8.786593333E0,4.510570221E0,4.732708282E0,1.067115921E1,1.251468778E1
8.796601333E0,2.816992035E0,5.860762482E0,7.585775299E0,9.991394691E0
8.806609333E0,1.228944397E0,6.530320129E0,4.732558594E0,8.157971327E0
8.816618333E0,-2.101629639E-1,7.157964935E0,3.012934570E0,7.769067203E0
8.826626333E0,-1.918710022E0,7.806715851E0,1.943857727E0,8.270722060E0
8.836635333E0,-3.334915009E0,8.425678711E0,1.934427338E0,9.265836658E0
8.846643333E0,-3.844305725E0,8.922645264E0,2.081271973E0,9.935994064E0
8.856651333E0,-3.569177856E0,9.210796051E0,1.816322937E0,1.004374549E1
8.866660333E0,-2.414179688E0,9.464967499E0,1.136736145E0,9.833923041E0
8.876668333E0,-7.560777283E-1,9.041947174E0,9.545649719E-1,9.123576958E0
8.886676333E0,2.591111755E-1,8.327183533E0,1.698517914E0,8.502592975E0
8.896685333E0,7.551795959E-1,7.819888458E0,2.623145142E0,8.282622903E0
8.906693333E0,1.004561005E0,7.432194672E0,3.271746368E0,8.182358141E0
8.916701333E0,1.228345642E0,6.921007690E0,3.862268372E0,8.020367662E0
8.926710333E0,1.575024719E0,6.450386353E0,4.564907227E0,8.057702213E0
8.936718333E0,2.061812439E0,6.106850739E0,5.106780396E0,8.223375370E0
8.946727333E0,2.800675964E0,5.930517426E0,5.601052551E0,8.624767387E0
8.956735333E0,3.727398834E0,6.258186035E0,6.019731903E0,9.449633152E0
8.966743333E0,4.828509064E0,6.900500336E0,6.477929077E0,1.062520446E1
8.976752333E0,5.861211548E0,7.738158417E0,6.451284485E0,1.165555524E1
8.986760333E0,6.498885498E0,8.531957703E0,5.773793335E0,1.218057899E1
8.996768333E0,6.518195343E0,9.064699860E0,4.582869873E0,1.206890013E1
9.006777333E0,6.178252258E0,9.384285278E0,3.753594360E0,1.184588881E1
9.016785333E0,5.693560181E0,9.718390503E0,3.741020508E0,1.186840242E1
9.026794333E0,5.235213318E0,1.015443375E1,4.094435577E0,1.213607786E1
9.036802333E0,4.805157623E0,1.032582733E1,4.259242859E0,1.215949833E1
9.046810333E0,4.575834503E0,1.037986496E1,4.324058075E0,1.213990676E1
9.056819333E0,4.559368744E0,1.110989685E1,4.441563721E0,1.280410636E1
9.066827333E0,4.596940613E0,1.277772858E1,4.493056641E0,1.430348799E1
9.076835333E0,4.601730652E0,1.534264481E1,4.480632477E0,1.663276111E1
9.086844333E0,4.590054932E0,1.842997467E1,4.417613525E0,1.949994564E1
9.096852333E0,4.495301971E0,2.026740372E1,4.358336792E0,2.121250793E1
9.106860333E0,4.271667023E0,1.774200531E1,4.115691376E0,1.870734634E1
9.116869333E0,3.667223969E0,1.337423813E1,3.808081055E0,1.438124676E1
9.126877333E0,2.750979309E0,1.026969406E1,3.258424072E0,1.111988447E1
9.136886333E0,1.774559784E0,7.947123871E0,2.378404083E0,8.483079997E0
9.146894333E0,8.625064087E-1,6.242319031E0,1.068927155E0,6.391640591E0
9.156902333E0,2.763253784E-1,5.253774719E0,-5.942642212E-2,5.261372066E0
9.166911333E0,5.568420410E-2,5.150040436E0,-7.155120850E-1,5.199805262E0
9.176919333E0,6.421646118E-2,5.941295013E0,-8.181985474E-1,5.997712819E0
9.186927333E0,1.127156067E-1,7.628137207E0,-5.725593567E-1,7.650425235E0
9.196936333E0,1.377136230E-1,9.868079224E0,-2.435435486E-1,9.872044675E0
9.206944333E0,2.269281006E-1,1.199530563E1,3.171903992E-1,1.200164419E1
9.216953333E0,2.326162720E-1,1.348695374E1,1.090931396E0,1.353300272E1
9.226961333E0,-1.002914429E-2,1.386117554E1,1.598974915E0,1.395310032E1
9.236969333E0,-2.466870117E-1,1.309940964E1,1.819167023E0,1.322742439E1
9.246978333E0,-3.688330078E-1,1.135254227E1,1.755998383E0,1.149346702E1
9.256986333E0,-3.403921509E-1,9.525591431E0,1.458716583E0,9.642645539E0
9.266994333E0,-2.282752991E-1,8.051756287E0,1.192270660E0,8.142751270E0
9.277003333E0,-1.535806274E-1,7.039710846E0,9.780661011E-1,7.108989316E0
9.287011333E0,-1.267863464E-1,6.382427673E0,7.943980408E-1,6.432925153E0
9.297019333E0,-8.726852417E-2,6.119424591E0,6.279441833E-1,6.152177421E0
9.307028333E0,-9.894424438E-2,6.229146423E0,5.727090454E-1,6.256200986E0
9.317036333E0,-1.905537415E-1,6.759343872E0,6.915618896E-1,6.797300799E0
9.327045333E0,-3.456312561E-1,7.677684174E0,9.098080444E-1,7.739124363E0
9.337053333E0,-5.288502502E-1,8.766070862E0,1.146765289E0,8.856565450E0
9.347061333E0,-6.179150391E-1,9.680668945E0,1.436113586E0,9.806099758E0
9.357070333E0,-8.057743835E-1,1.036803955E1,1.553020477E0,1.051462739E1
9.367078333E0,-9.895921326E-1,1.059691360E1,1.635199585E0,1.076790361E1
9.377086333E0,-1.121467896E0,1.040231827E1,1.770368500E0,1.061132038E1
9.387095333E0,-1.141526184E0,9.949659576E0,1.860780487E0,1.018632965E1
9.397103333E0,-9.915380859E-1,9.313632202E0,1.965712280E0,9.570314380E0
9.407112333E0,-5.999523926E-1,8.555309143E0,2.097138977E0,8.829000470E0
9.417120333E0,-2.477348328E-1,8.059989166E0,2.096240845E0,8.331807942E0
9.427128333E0,-2.380050659E-2,7.876470795E0,2.231110382E0,8.186404106E0
9.437137333E0,2.462379456E-1,7.868088226E0,2.456092529E0,8.246201306E0
9.447145333E0,5.560935974E-1,7.952662354E0,2.662662964E0,8.404989748E0
9.457153333E0,9.035211182E-1,8.053253174E0,2.870879974E0,8.597277995E0
9.467162333E0,1.237776031E0,8.208929443E0,2.987487488E0,8.822907321E0
9.477170333E0,1.569935303E0,8.504115601E0,2.833008728E0,9.100033926E0
9.487179333E0,1.976639557E0,8.713230743E0,2.631677399E0,9.314140854E0
9.497187333E0,2.371219025E0,8.910520477E0,2.334545288E0,9.511580129E0
9.507195333E0,2.791544952E0,9.119336243E0,1.978136444E0,9.740022614E0
9.517204333E0,3.152893524E0,9.309740295E0,1.476828918E0,9.939468074E0
9.527212333E0,3.522474976E0,9.565708008E0,7.203021240E-1,1.021907211E1
9.537220333E0,3.954925690E0,9.731862488E0,7.544311523E-2,1.050505956E1
9.547229333E0,4.340673523E0,9.788444824E0,-1.028062134E0,1.075695173E1
9.557237333E0,4.890480194E0,9.622889099E0,-2.589165802E0,1.110047615E1
9.567245333E0,4.954696655E0,9.426796875E0,-2.015109558E0,1.083855086E1
9.577254333E0,4.540058899E0,9.332492981E0,2.477348328E-1,1.038118166E1
9.587262333E0,4.318968658E0,9.169332275E0,1.265917511E0,1.021433756E1
9.597271333E0,4.246818695E0,8.757688293E0,1.768721924E0,9.892469384E0
9.607279333E0,4.000730438E0,8.377179565E0,2.055076447E0,9.508223846E0
9.617287333E0,3.775149536E0,8.036787415E0,2.242786102E0,9.158154589E0
9.627296333E0,3.487148438E0,8.055648193E0,2.342927856E0,9.085316889E0
9.637304333E0,3.176244965E0,8.497529297E0,2.375709686E0,9.377661368E0
9.647312333E0,2.989583130E0,9.118288422E0,2.601889343E0,9.942364869E0
9.657321333E0,2.802621918E0,1.003363495E1,2.820584564E0,1.079278542E1
9.667329333E0,2.629581757E0,1.109582611E1,2.924917603E0,1.177230650E1
9.677338333E0,2.486629028E0,1.201461548E1,2.990780640E0,1.262850260E1
9.687346333E0,2.381098480E0,1.270842270E1,3.134781189E0,1.330415313E1
9.697354333E0,2.401605835E0,1.307770477E1,3.367247772E0,1.371613759E1
9.707363333E0,2.521506500E0,1.327738953E1,3.576213226E0,1.397985582E1
9.717371333E0,2.655477905E0,1.341016342E1,3.286864929E0,1.406013965E1
9.727379333E0,2.676284637E0,1.345402222E1,2.737207947E0,1.398804921E1
9.737388333E0,2.824626160E0,1.317964279E1,2.051034851E0,1.363408380E1
9.747396333E0,2.755769348E0,1.243898300E1,9.503736877E-1,1.277598423E1
9.757405333E0,2.108365631E0,1.154878418E1,-3.896397400E-1,1.174612450E1
9.767413333E0,1.274000702E0,1.070244415E1,-9.651928711E-1,1.082113607E1
9.777421333E0,8.925938416E-1,9.706714783E0,-8.238867188E-1,9.782424289E0
9.787430333E0,7.942483521E-1,8.626411285E0,-4.917274475E-1,8.676842628E0
9.797438333E0,5.980064392E-1,7.801027679E0,-1.929487610E-1,7.826293745E0
9.807446333E0,3.520678711E-1,7.149732056E0,6.077362061E-2,7.158653064E0
9.817455333E0,8.906478882E-2,6.693331146E0,2.609074402E-1,6.699006424E0
9.827463333E0,-1.670526123E-1,6.540498962E0,-3.332070923E-1,6.551111373E0
9.837472333E0,-1.877096558E-1,6.821015625E0,-6.687942352E0,9.554583297E0
9.847480333E0,-6.876699829E-1,7.458988953E0,-9.576784973E0,1.215829826E1
9.857488333E0,-1.240470428E0,9.669741669E0,-3.758983154E0,1.044857048E1
9.867497333E0,9.729766846E-2,1.187465652E1,3.802093506E-1,1.188114025E1
9.877505333E0,8.881031799E-1,1.315554291E1,2.404898987E0,1.340300621E1
9.887513333E0,1.066232758E0,1.503742950E1,3.545826416E0,1.548657559E1
9.897522333E0,1.690434723E0,1.656036255E1,3.326532440E0,1.697554109E1
9.907530333E0,3.036136322E0,1.747017059E1,7.478448486E-1,1.774779581E1
9.917539333E0,5.274282074E0,1.736598724E1,-5.438789978E0,1.894666200E1
9.927547333E0,6.949747925E0,1.565220108E1,-8.948990479E0,1.932290934E1
9.937555333E0,6.894512787E0,1.267384460E1,-5.016218719E0,1.527491715E1
9.947564333E0,6.700366516E0,9.826615448E0,-7.161108398E-1,1.191512053E1
9.957572333E0,6.818470917E0,7.398365021E0,2.297123108E0,1.032008358E1
9.967580333E0,6.745422821E0,5.579048309E0,5.259911957E0,1.021240338E1
9.977589333E0,6.361022186E0,4.099824371E0,8.445886688E0,1.134037764E1
9.987597333E0,6.111790466E0,2.908601532E0,1.063717987E1,1.260807444E1
9.997606333E0,5.363197174E0,2.543510742E0,1.111588440E1,1.260143709E1
1.000761433E1,3.645668793E0,3.617527313E0,9.080267487E0,1.043209770E1
1.001762233E1,1.621428223E0,4.943619690E0,5.851781158E0,7.830181853E0
1.002763133E1,-7.484436035E-2,5.845045166E0,3.342549133E0,6.733705472E0
1.003763933E1,-1.586700439E0,6.590644684E0,1.888173523E0,7.037003260E0
1.004764733E1,-2.561323700E0,7.287595367E0,1.650168457E0,7.898891142E0
1.005765633E1,-3.275039520E0,8.230334930E0,2.048340454E0,9.091754261E0
1.006766433E1,-3.556454315E0,9.156159668E0,2.443069611E0,1.012186822E1
1.007767333E1,-3.371439056E0,9.774523773E0,2.426454163E0,1.062052711E1
1.008768133E1,-3.107537842E0,1.026355682E1,2.220332794E0,1.095113089E1
1.009768933E1,-2.583926697E0,1.050575317E1,2.052531738E0,1.101183061E1
1.010769833E1,-1.546284485E0,9.726773071E0,2.311942291E0,1.011662924E1
1.011770633E1,-7.264393616E-1,8.509205017E0,3.062631226E0,9.072706002E0
1.012771433E1,-2.815644836E-1,7.658374329E0,3.435954895E0,8.398557135E0
1.013772333E1,1.616638184E-2,7.074139252E0,3.559448090E0,7.919177874E0
1.014773133E1,2.366578674E-1,6.697372742E0,3.678750000E0,7.644868223E0
1.015774033E1,5.807922363E-1,6.506519623E0,4.004921722E0,7.662343977E0
1.016774833E1,1.140328674E0,6.583908691E0,4.621489563E0,8.124430375E0
1.017775633E1,1.873354340E0,6.899153137E0,5.239105225E0,8.863181937E0
1.018776533E1,2.881507874E0,7.273824005E0,5.844446411E0,9.765713345E0
1.019777333E1,3.914659424E0,7.831115112E0,6.315367126E0,1.079512780E1
1.020778133E1,4.925806732E0,8.612041168E0,6.397396545E0,1.180497809E1
1.021779033E1,5.729635162E0,9.305998077E0,6.169570312E0,1.254965805E1
1.022779833E1,6.273454285E0,9.767937469E0,5.719007263E0,1.294124705E1
1.023780733E1,6.602919159E0,1.009410919E1,5.233267365E0,1.314825726E1
1.024781533E1,6.500382385E0,1.043959076E1,4.609963531E0,1.313361299E1
1.025782333E1,6.336024170E0,1.072280182E1,4.156556396E0,1.313014251E1
1.026783233E1,6.035449219E0,1.074854828E1,3.729793854E0,1.287902557E1
1.027784033E1,5.760920105E0,9.952803040E0,3.394341431E0,1.199033121E1
1.028784833E1,5.370980988E0,8.770711212E0,3.068020020E0,1.073245353E1
1.029785733E1,4.920118561E0,8.298592987E0,3.035387878E0,1.011374272E1
1.030786533E1,4.442012787E0,9.178463287E0,3.110681305E0,1.066076940E1
1.031787433E1,4.224365387E0,1.069840256E1,3.187022552E0,1.193558515E1
1.032788233E1,4.225862274E0,1.265812729E1,3.125201111E0,1.370594690E1
1.033789033E1,4.205205231E0,1.495839386E1,2.899769897E0,1.580651648E1
1.034789933E1,3.942351837E0,1.663580566E1,2.575843506E0,1.728950947E1
1.035790733E1,3.425925751E0,1.690419754E1,2.147434387E0,1.738103381E1
1.036791533E1,2.743494873E0,1.553095322E1,1.709145813E0,1.586374645E1
1.037792433E1,2.145039368E0,1.353739883E1,1.595831451E0,1.379887818E1
1.038793233E1,1.663191376E0,1.168544998E1,1.610500946E0,1.191258411E1
1.039794133E1,1.392703857E0,1.011356873E1,1.704954529E0,1.035039933E1
1.040794933E1,1.194815369E0,8.836574249E0,1.767524414E0,9.090476928E0
1.041795733E1,9.536668396E-1,7.710765381E0,1.751058655E0,7.964395119E0
1.042796633E1,3.658392334E-1,6.708000641E0,1.420396271E0,6.866486475E0
1.043797433E1,-5.635780334E-1,6.076613617E0,1.154399414E0,6.210917103E0
1.044798233E1,-1.246907043E0,5.920188904E0,1.140777740E0,6.156686421E0
1.045799133E1,-1.402882690E0,6.176006927E0,9.410929871E-1,6.402874153E0
1.046799933E1,-1.103654938E0,6.664291534E0,8.125103760E-1,6.803749627E0
1.047800833E1,-6.855743408E-1,7.243137817E0,8.330177307E-1,7.323044187E0
1.048801633E1,-4.077520752E-1,7.822133789E0,9.862989807E-1,7.894607302E0
1.049802433E1,-2.040257263E-1,8.444838867E0,1.206341400E0,8.533005893E0
1.050803333E1,-8.038284302E-2,9.110354919E0,1.346300354E0,9.209644554E0
1.051804133E1,7.185058594E-3,9.622589722E0,1.438658295E0,9.729543785E0
1.052804933E1,2.230361938E-2,1.001926483E1,1.395098877E0,1.011595107E1
1.053805833E1,-3.742218018E-2,1.022388931E1,1.285377045E0,1.030444114E1
1.054806633E1,-1.182540894E-1,1.019679565E1,1.157842255E0,1.026300270E1
1.055807533E1,-8.696914673E-2,9.879305878E0,1.102906494E0,9.941058847E0
1.056808333E1,-1.507365417E-1,9.501940613E0,9.898915100E-1,9.554552952E0
1.057809133E1,-2.260299683E-1,9.240284729E0,8.750802612E-1,9.284380264E0
1.058810033E1,-2.592608643E-1,9.120982819E0,8.089178467E-1,9.160452601E0
1.059810833E1,-3.092568970E-1,9.093589783E0,7.644602966E-1,9.130904364E0
1.060811633E1,-2.809657288E-1,9.132209473E0,8.698411560E-1,9.177843714E0
1.061812533E1,-2.149530029E-1,9.147477722E0,9.957293701E-1,9.204022515E0
1.062813333E1,-1.110690308E-1,9.141639862E0,1.129551086E0,9.211829425E0
1.063814233E1,2.978805542E-2,9.189689941E0,1.354982300E0,9.289093905E0
1.064815033E1,1.904040527E-1,9.310638428E0,1.691632233E0,9.464980784E0
1.065815833E1,3.486250305E-1,9.522897034E0,2.174378357E0,9.774202196E0
1.066816733E1,5.225633240E-1,9.717941437E0,2.556533661E0,1.006217285E1
1.067817533E1,6.984475708E-1,9.818831635E0,2.821033630E0,1.023989816E1
1.068818433E1,8.975335693E-1,9.855505371E0,2.988385620E0,1.033764970E1
1.069819233E1,1.091230774E0,9.787846069E0,2.982547760E0,1.029020439E1
1.070820033E1,1.247356110E0,9.613309021E0,2.755619659E0,1.007794857E1
1.071820933E1,1.394799500E0,9.348060608E0,2.445614319E0,9.762823985E0
1.072821733E1,1.552272034E0,9.056766357E0,2.113754425E0,9.428813451E0
1.073822533E1,1.732048187E0,8.769813080E0,1.783690796E0,9.115435548E0
1.074823433E1,1.940564575E0,8.542286224E0,1.492097168E0,8.886101438E0
1.075824233E1,2.203717346E0,8.374934235E0,1.118025055E0,8.731888318E0
1.076825133E1,2.507286072E0,8.368796997E0,6.322851562E-1,8.759168405E0
1.077825933E1,2.759511566E0,8.412655792E0,3.665876770E-1,8.861267860E0
1.078827146E1,2.971321106E0,8.503367157E0,2.260299683E-1,9.010387987E0
1.079828046E1,3.147804108E0,8.657396851E0,2.167492676E-1,9.214454470E0
1.080828846E1,3.274740143E0,8.778345337E0,4.830455017E-1,9.381716411E0
1.081829646E1,3.329975281E0,8.897347870E0,8.857081604E-1,9.541279444E0
1.082830546E1,3.339405670E0,9.021739197E0,1.248254242E0,9.700595189E0
1.083831346E1,3.301684113E0,9.111402740E0,1.523082733E0,9.810125325E0
1.084832246E1,3.292702789E0,9.149124298E0,1.721120911E0,9.874746795E0
1.085833046E1,3.261717224E0,9.115743713E0,1.749861145E0,9.838576966E0
1.086833846E1,3.250789948E0,8.953930206E0,1.754351807E0,9.685982226E0
1.087834746E1,3.301384735E0,8.863967285E0,1.754950562E0,9.620234336E0
1.088835546E1,3.317700806E0,9.001680908E0,1.670675812E0,9.737995455E0
1.089836346E1,3.280727692E0,9.216184845E0,1.601220245E0,9.912877663E0
1.090837246E1,3.187770996E0,9.524543610E0,1.639241180E0,1.017673457E1
1.091838046E1,3.110830994E0,9.875863037E0,1.748214569E0,1.050077113E1
1.092838946E1,3.066223755E0,1.017823425E1,1.833836517E0,1.078708195E1
1.093839746E1,3.058889008E0,1.043614792E1,1.970652008E0,1.105230540E1
1.094840546E1,3.032244415E0,1.066292633E1,2.103425903E0,1.128347928E1
1.095841446E1,2.827320557E0,1.089614136E1,2.028431854E0,1.143827670E1
1.096842246E1,2.528691559E0,1.122725281E1,1.661544800E0,1.162782085E1
1.097843046E1,2.443967743E0,1.156270523E1,1.465003510E0,1.190862569E1
1.098843946E1,2.340383148E0,1.192839478E1,1.254541168E0,1.222038742E1
1.099844746E1,2.218835907E0,1.209859085E1,1.056652679E0,1.234567326E1
1.100845646E1,1.943708038E0,1.195878159E1,9.488768005E-1,1.215281141E1
1.101846446E1,1.466799774E0,1.154399414E1,7.870632935E-1,1.166339449E1
1.102847246E1,1.096469879E0,1.073447754E1,6.578819275E-1,1.081036830E1
1.103848146E1,7.478448486E-1,9.906998291E0,6.780899048E-1,9.958297695E0
1.104848946E1,3.568579102E-1,9.138795776E0,7.694000244E-1,9.178066910E0
1.105849846E1,-4.864883423E-2,8.482859802E0,8.226892090E-1,8.522798523E0
1.106850646E1,-4.499642944E-1,8.027656403E0,9.011260986E-1,8.090597223E0
1.107851446E1,-8.092172241E-1,7.658224640E0,8.891510010E-1,7.752020811E0
1.108852346E1,-1.369202728E0,7.500602417E0,5.620811462E-1,7.645239561E0
1.109853146E1,-2.289339294E0,7.640261993E0,3.116519165E-1,7.981967467E0
1.110853946E1,-2.719245300E0,8.183332672E0,-2.083666992E-1,8.625812733E0
1.111854846E1,-1.177301788E0,1.004171814E1,-6.671326904E0,1.211316413E1
1.112855646E1,5.676196289E-1,1.194201645E1,-7.303312683E0,1.400972252E1
1.113856546E1,9.464817810E-1,1.247251328E1,-1.856140137E0,1.264534188E1
1.114857346E1,1.147064667E0,1.368603973E1,9.720785522E-1,1.376838326E1
1.115858146E1,1.511706390E0,1.510179565E1,2.189347229E0,1.533436433E1
1.116859046E1,2.038460999E0,1.591864700E1,1.718576202E0,1.614038878E1
1.117859846E1,2.705773315E0,1.603764954E1,7.872129822E-1,1.628333861E1
1.118860646E1,3.337310028E0,1.535806274E1,-1.983375549E-1,1.571773098E1
1.119861546E1,3.949985962E0,1.380803604E1,-7.932005310E-1,1.438379003E1
1.120862346E1,4.569397888E0,1.179801590E1,6.361770630E-2,1.265213909E1
1.121863246E1,5.082081757E0,9.910590820E0,1.257085876E0,1.120837322E1
1.122864046E1,5.482499084E0,8.253536682E0,2.168989563E0,1.014313461E1
1.123864846E1,5.629792786E0,6.976242828E0,3.764072571E0,9.722693718E0
1.124865746E1,5.450465698E0,6.016289062E0,5.336253204E0,9.714880785E0
1.125866546E1,5.276677094E0,5.211712189E0,6.757397919E0,1.003332904E1
1.126867346E1,4.678670654E0,5.044210510E0,7.152875519E0,9.924598075E0
1.127868246E1,3.484603729E0,5.732778625E0,6.118227081E0,9.079642974E0
1.128869046E1,1.936223602E0,7.112309875E0,4.196373596E0,8.481949361E0
1.129869946E1,5.032534790E-1,8.516839142E0,2.880010986E0,9.004680800E0
1.130870746E1,-8.310717773E-1,9.601633301E0,2.464924164E0,9.947758214E0
1.131871546E1,-1.814077606E0,1.013287857E1,2.765349426E0,1.065895225E1
1.132872446E1,-2.334395599E0,1.005758514E1,3.290307770E0,1.083653759E1
1.133873246E1,-2.185305634E0,9.315129089E0,3.514691162E0,1.019314694E1
1.134874146E1,-1.226848755E0,8.385562134E0,3.264710999E0,9.081913238E0
1.135874946E1,-3.100053406E-1,7.742349701E0,2.884351959E0,8.267984544E0
1.136875746E1,1.508862305E-1,7.424111481E0,2.780767365E0,7.929241141E0
1.137876646E1,5.432203674E-1,7.234904938E0,2.903063049E0,7.814519364E0
1.138877446E1,9.217831421E-1,7.155869293E0,3.160976715E0,7.877050419E0
1.139878246E1,1.297352142E0,7.344177704E0,3.590733032E0,8.277284122E0
1.140879146E1,1.659299469E0,7.791597290E0,4.024381256E0,8.925127873E0
1.141879946E1,1.919757843E0,8.207731934E0,4.156556396E0,9.398366600E0
1.142880846E1,2.053579559E0,8.475824432E0,4.090843048E0,9.632849301E0
1.143881646E1,2.112556915E0,8.724008331E0,3.874692535E0,9.776730554E0
1.144882446E1,2.158511353E0,9.048683167E0,3.496878204E0,9.938108245E0
1.145883346E1,2.206711121E0,9.372759247E0,3.161575470E0,1.013477919E1
1.146884146E1,2.288590851E0,9.746831360E0,2.780467987E0,1.039083114E1
1.147885046E1,2.443967743E0,1.005788452E1,2.509830780E0,1.065050562E1
1.148885846E1,2.680625610E0,1.034633469E1,2.345472565E0,1.094228663E1
1.149886646E1,3.032244415E0,1.053673874E1,1.642983398E0,1.108678330E1
1.150887546E1,3.379971313E0,1.071217392E1,5.962101746E-1,1.124857070E1
1.151888346E1,3.342549133E0,1.067041077E1,-2.573149109E-1,1.118465518E1
1.152889146E1,2.818488922E0,1.006566833E1,-2.549198914E-1,1.045593339E1
1.153890046E1,2.462379456E0,9.537566528E0,4.246669006E-1,9.859453831E0
1.154890846E1,2.045795746E0,9.222621460E0,1.194515991E0,9.522021596E0
1.155891746E1,1.658700714E0,8.900641022E0,2.017205200E0,9.275872761E0
1.156892546E1,1.181493073E0,8.852740631E0,2.664159851E0,9.320122868E0
1.157893346E1,6.240522766E-1,9.128916321E0,2.806962891E0,9.571081188E0
1.158894246E1,7.155120850E-2,9.605824585E0,2.758763123E0,9.994386399E0
1.159895046E1,-4.213737488E-1,1.028481262E1,2.802172852E0,1.066804102E1
1.160895846E1,-8.776249695E-1,1.101229980E1,2.933898926E0,1.143016778E1
1.161896746E1,-1.276844788E0,1.174667267E1,2.893632660E0,1.216502205E1
1.162897546E1,-1.585502930E0,1.243119919E1,2.747686157E0,1.282958737E1
1.163898446E1,-1.843266907E0,1.292906387E1,2.665057983E0,1.332894818E1
1.164899246E1,-2.017953644E0,1.313922684E1,2.702330475E0,1.356517633E1
1.165900046E1,-2.174977112E0,1.288909698E1,2.854863281E0,1.337944658E1
1.166900946E1,-2.252515869E0,1.184636536E1,3.000959473E0,1.242642176E1
1.167901746E1,-2.259850616E0,1.024933640E1,3.049757996E0,1.092963152E1
1.168902646E1,-2.002086639E0,8.579558716E0,2.377655640E0,9.125263010E0
1.169903446E1,-1.694176941E0,7.318431244E0,1.747466125E0,7.712542333E0
1.170904246E1,-1.484762421E0,6.502927094E0,1.492097168E0,6.835125031E0
1.171905146E1,-1.356628876E0,6.171366577E0,1.279988251E0,6.447059582E0
1.172905946E1,-1.069376221E0,6.227649536E0,1.386566620E0,6.469138369E0
1.173906746E1,-8.159532166E-1,6.642586670E0,1.791324921E0,6.928100915E0
1.174907646E1,-6.752458191E-1,7.294630737E0,2.033670959E0,7.602855522E0
1.175908446E1,-5.288502502E-1,8.007598114E0,2.239642639E0,8.331705065E0
1.176909346E1,-3.857478333E-1,8.740174713E0,2.400857391E0,9.072131592E0
1.177910146E1,-2.264790344E-1,9.506580963E0,2.557431793E0,9.847173794E0
1.178910537E1,7.634124756E-3,1.023706192E1,2.819087677E0,1.061813309E1
1.179911437E1,2.610571289E-1,1.086470673E1,3.123853912E0,1.130789398E1
1.180912237E1,4.483177185E-1,1.130913254E1,3.310216370E0,1.179215841E1
1.181913137E1,6.039939880E-1,1.152288803E1,3.534300385E0,1.206785136E1
1.182913937E1,7.982899475E-1,1.149115402E1,3.842659149E0,1.214289574E1
1.183914737E1,9.882449341E-1,1.115420471E1,4.039799194E0,1.190432225E1
1.184915637E1,1.187181244E0,1.051937485E1,3.832031250E0,1.125837955E1
1.185916437E1,1.391506348E0,9.801916809E0,3.583847351E0,1.052890426E1
1.186917237E1,1.572779388E0,9.250014496E0,3.250939636E0,9.930005624E0
1.187918137E1,1.731000366E0,8.972341919E0,2.962040405E0,9.605881799E0
1.188918937E1,1.904339905E0,8.989855499E0,2.756368103E0,9.593830178E0
1.189919838E1,2.172731781E0,9.217532043E0,2.701282654E0,9.847872275E0
1.190920637E1,2.265239410E0,9.622140656E0,2.508633270E0,1.019853623E1
1.191921437E1,2.237846375E0,1.005399261E1,2.361040192E0,1.056717723E1
1.192922338E1,2.146685944E0,1.038749908E1,2.326013031E0,1.085903929E1
1.193923137E1,1.946252747E0,1.056188644E1,2.216590576E0,1.096606670E1
1.194924037E1,1.711540833E0,1.047446823E1,2.104473724E0,1.082001231E1
1.195924838E1,1.480720825E0,1.018407211E1,2.052831116E0,1.049390178E1
1.196925637E1,1.239871674E0,9.944270782E0,1.883383484E0,1.019671204E1
1.197926537E1,1.058448944E0,9.737850037E0,1.617087250E0,9.927789718E0
1.198927338E1,9.002279663E-1,9.536967773E0,1.412163391E0,9.682890588E0
1.199928137E1,7.267387390E-1,9.398505707E0,1.303938446E0,9.516318310E0
1.200929037E1,5.366340637E-1,9.341923370E0,1.234632568E0,9.438422853E0
1.201929838E1,2.899470520E-1,9.400601349E0,1.266965332E0,9.490025088E0
1.202930737E1,-4.340972900E-3,9.548793182E0,1.392853546E0,9.649845133E0
1.203931537E1,-2.998265076E-1,9.742789764E0,1.602118378E0,9.878189694E0
1.204932338E1,-6.379733276E-1,9.910441132E0,1.847757568E0,1.010138908E1
1.205933237E1,-9.852511597E-1,1.002630020E1,2.129172363E0,1.029712535E1
1.206934037E1,-1.336121521E0,1.000474503E1,2.368075562E0,1.036763838E1
1.207934937E1,-1.700014801E0,9.917925568E0,2.570005646E0,1.038557783E1
1.208935737E1,-2.027084656E0,9.793983307E0,2.794239349E0,1.038455366E1
1.209936537E1,-2.398761749E0,9.784403229E0,2.958148499E0,1.049948794E1
1.210937437E1,-2.824925537E0,9.810898132E0,3.036735077E0,1.065155793E1
1.211938237E1,-3.274590454E0,9.965526581E0,3.132236481E0,1.094740006E1
1.212939037E1,-3.667373657E0,1.020038818E1,3.227288818E0,1.130986038E1
1.213939937E1,-4.059707794E0,1.036115387E1,3.288212128E0,1.160375266E1
1.214940738E1,-4.412823486E0,1.041504181E1,3.290457458E0,1.178020447E1
1.215941637E1,-4.697232056E0,1.032956955E1,3.194357300E0,1.178846532E1
1.216942437E1,-4.832400970E0,1.007270370E1,3.035836945E0,1.157703611E1
1.217943238E1,-4.851860504E0,9.667945404E0,2.780767365E0,1.116881309E1
1.218944137E1,-4.729564819E0,9.155111847E0,2.513572998E0,1.060673868E1
1.219944937E1,-4.501439209E0,8.716224518E0,2.214794312E0,1.005688016E1
1.220945838E1,-4.209246826E0,8.371790771E0,1.909279633E0,9.562948723E0
1.221946637E1,-3.813020782E0,8.102051697E0,1.541195068E0,9.086124114E0
1.222947437E1,-3.377576294E0,8.039032745E0,1.512903900E0,8.850025272E0
1.223948338E1,-3.136278076E0,8.137976990E0,1.604812775E0,8.867825759E0
1.224949137E1,-2.989882507E0,8.420289917E0,1.707798615E0,9.097101506E0
1.225949937E1,-2.916684723E0,9.032816162E0,2.007475433E0,9.701998516E0
1.226950838E1,-2.950514374E0,9.854307861E0,2.275867310E0,1.053529736E1
1.227951637E1,-2.953657837E0,1.077040283E1,2.501597900E0,1.144480947E1
1.228952537E1,-2.940634918E0,1.167018173E1,2.755020905E0,1.234627942E1
1.229953337E1,-2.888393555E0,1.247775238E1,2.906505890E0,1.313335061E1
1.230954137E1,-2.756517792E0,1.294298492E1,2.782413940E0,1.352261352E1
1.231955037E1,-2.488125916E0,1.295121780E1,2.605032806E0,1.344287949E1
1.232955837E1,-2.215542755E0,1.240350677E1,2.327958984E0,1.281307937E1
1.233956738E1,-1.940714264E0,1.158291321E1,1.939067688E0,1.190337069E1
1.234957537E1,-1.637893982E0,1.075004517E1,1.557960205E0,1.098514487E1
1.235958337E1,-1.344055023E0,9.980046387E0,1.205592957E0,1.014205424E1
1.236959238E1,-1.065484314E0,9.305399323E0,9.556127930E-1,9.414823906E0
1.237960037E1,-7.890092468E-1,8.742719421E0,7.304809570E-1,8.808591312E0
1.238960837E1,-4.933740234E-1,8.263565826E0,4.715194702E-1,8.291698783E0
1.239961738E1,-2.272274780E-1,7.941585388E0,2.200424194E-2,7.944865952E0
1.240962537E1,2.891986084E-1,7.779173126E0,-1.184935913E0,7.874213833E0
1.241963437E1,1.581611023E0,7.934699707E0,-7.372917938E0,1.094627205E1
1.242964238E1,3.580703888E0,8.353977814E0,-1.866244125E1,2.075806107E1
1.243965037E1,2.807711334E0,8.902287598E0,-1.134266281E1,1.468979125E1
1.244965937E1,1.582209778E0,9.396110687E0,-2.217339020E0,9.782989122E0
1.245966738E1,1.270258484E0,1.012314880E1,2.246827698E0,1.044700594E1
1.246967637E1,1.298849030E0,1.061263092E1,4.880750427E0,1.175315569E1
1.247968437E1,1.465751953E0,1.067579956E1,5.672304382E0,1.217769116E1
1.248969238E1,1.717079315E0,1.042132874E1,4.757406921E0,1.158384110E1
1.249970137E1,2.071242828E0,1.011282028E1,2.655627594E0,1.065887137E1
1.250970937E1,2.461481323E0,9.845625916E0,5.580395508E-1,1.016398781E1
1.251971837E1,2.677182770E0,9.873767395E0,-5.571414185E-1,1.024543785E1
1.252972637E1,2.592908020E0,9.911638641E0,-9.156459045E-1,1.028601769E1
1.253973437E1,2.202519836E0,1.007809250E1,-1.085093536E0,1.037287183E1
1.254974337E1,1.567689972E0,1.016581009E1,-7.146139526E-1,1.031077202E1
1.255975137E1,9.075627136E-1,1.006267456E1,-6.616241455E-2,1.010373529E1
1.256975937E1,4.915777588E-1,9.759704590E0,5.861810303E-1,9.789642004E0
1.257976837E1,2.767744446E-1,9.218430176E0,1.456770630E0,9.336928813E0
1.258977637E1,3.237767029E-1,8.482111359E0,2.483335876E0,8.844094161E0
1.259978537E1,3.933819580E-1,7.637417908E0,3.601510620E0,8.453152099E0
1.260979337E1,3.869453430E-1,6.922055511E0,4.819078674E0,8.443227965E0
1.261980137E1,4.418811035E-1,6.628665619E0,6.110143890E0,9.025980565E0
1.262981037E1,5.236111450E-1,6.783294067E0,6.844965820E0,9.650948353E0
1.263981837E1,5.957611084E-1,7.103478241E0,7.297325134E0,1.020123956E1
1.264982738E1,6.637197876E-1,7.704328766E0,7.341632996E0,1.066286925E1
1.265983537E1,8.424481201E-1,8.480464783E0,6.624773712E0,1.079424052E1
1.266984337E1,9.895921326E-1,9.510921936E0,5.246140594E0,1.090682904E1
1.267985238E1,1.020727386E0,1.056981995E1,3.437451782E0,1.116149868E1
1.268986037E1,8.981323242E-1,1.132484985E1,1.789828033E0,1.150053696E1
1.269986837E1,8.872050476E-1,1.158066788E1,1.332828369E0,1.169082686E1
1.270987738E1,8.378077698E-1,1.159369080E1,1.744771729E0,1.175414040E1
1.271988537E1,8.081694031E-1,1.123563538E1,2.514171753E0,1.154182393E1
1.272989437E1,8.286767578E-1,1.047207321E1,3.086431732E0,1.094883936E1
1.273990238E1,7.641609192E-1,9.606722717E0,3.342249756E0,1.020018121E1
1.274991037E1,6.755451965E-1,8.956624603E0,3.284769287E0,9.563848329E0
1.275991937E1,6.764433289E-1,8.518485718E0,3.332070923E0,9.171961139E0
1.276992738E1,7.119195557E-1,8.225095825E0,3.464395752E0,8.953271397E0
1.277993638E1,7.773335266E-1,7.910599823E0,3.476819916E0,8.675835043E0
1.278994471E1,8.446934509E-1,7.663014679E0,3.365301819E0,8.411929465E0
1.279995271E1,8.497828674E-1,7.441924438E0,3.221900024E0,8.153834070E0
1.280996171E1,8.696914673E-1,7.336543579E0,3.190166016E0,8.047260040E0
1.281996971E1,1.060694275E0,7.320975952E0,3.485202484E0,8.177309924E0
1.282997871E1,1.476529541E0,7.228019257E0,4.024530945E0,8.403645113E0
1.283998671E1,2.006577301E0,6.965165863E0,4.632716217E0,8.602438463E0
1.284999471E1,2.477048950E0,6.782695313E0,5.141657867E0,8.864387899E0
1.286000371E1,2.710413666E0,7.093748474E0,5.419779510E0,9.329609831E0
1.287001171E1,2.669997711E0,7.766898651E0,5.256768494E0,9.751267478E0
1.288001971E1,2.425556030E0,8.541388092E0,4.877307587E0,1.013048675E1
1.289002871E1,2.068698120E0,9.352551270E0,4.434678040E0,1.055538235E1
1.290003671E1,1.795516205E0,1.003647903E1,4.068988495E0,1.097777105E1
1.291004571E1,1.657802582E0,1.052371582E1,3.865262146E0,1.133301176E1
1.292005371E1,1.681303711E0,1.073193283E1,3.733236694E0,1.148643638E1
1.293006171E1,1.891167297E0,1.059661423E1,3.797902222E0,1.141441230E1
1.294007071E1,2.235451355E0,1.034229309E1,4.121678925E0,1.135554958E1
1.295007871E1,2.599943390E0,1.040725800E1,4.466412048E0,1.161979179E1
1.296008771E1,2.968776398E0,1.108609634E1,4.816833344E0,1.244656776E1
1.297009571E1,3.236419830E0,1.251876709E1,5.059478760E0,1.388496554E1
1.298010371E1,3.361260223E0,1.455737778E1,5.042563934E0,1.576841048E1
1.299011271E1,3.258573761E0,1.655153091E1,4.752616882E0,1.752594779E1
1.300012071E1,2.683170319E0,1.686932007E1,4.079915771E0,1.756186423E1
1.301012971E1,1.696871338E0,1.435619614E1,3.364553375E0,1.484250515E1
1.302013771E1,6.942562866E-1,1.126557312E1,2.728975067E0,1.161216752E1
1.303014571E1,-3.966751099E-2,9.461374969E0,2.140698395E0,9.700607169E0
1.304015471E1,-3.411405945E-1,8.291407928E0,1.808988190E0,8.493306813E0
1.305016271E1,-1.272354126E-1,7.555687866E0,1.826801147E0,7.774433125E0
1.306017171E1,1.972897339E-1,7.262597351E0,2.126477966E0,7.570082699E0
1.307017971E1,1.806742859E-1,7.489525452E0,2.291285248E0,7.834259555E0
1.308018771E1,2.312690735E-1,8.703500977E0,2.252366180E0,8.993195652E0
1.309019671E1,5.605842590E-1,1.043105850E1,1.885479126E0,1.061490781E1
1.310020471E1,6.721023560E-1,1.165775757E1,1.638642426E0,1.179153010E1
1.311021271E1,7.348219299E-1,1.193093948E1,1.416803741E0,1.203721783E1
1.312022171E1,7.999365234E-1,1.129970215E1,1.024170227E0,1.137418532E1
1.313022971E1,9.002279663E-1,1.002824615E1,8.032296753E-1,1.010055985E1
1.314023871E1,9.761201477E-1,8.626111908E0,7.969427490E-1,8.717667976E0
1.315024671E1,9.789642334E-1,7.545359344E0,8.919950867E-1,7.660709748E0
1.316025471E1,9.687854004E-1,6.815028076E0,9.949809265E-1,6.955080149E0
1.317026371E1,9.699829102E-1,6.428681488E0,1.051862640E0,6.585987210E0
1.318027171E1,9.261241150E-1,6.434369659E0,1.113235016E0,6.595309772E0
1.319028071E1,8.247848511E-1,6.899901581E0,1.228046265E0,7.056699618E0
1.320028871E1,6.294410706E-1,7.672445068E0,1.323547668E0,7.811170707E0
1.321029671E1,4.082011414E-1,8.650960236E0,1.309925995E0,8.759089409E0
1.322030571E1,2.004331970E-1,9.534722443E0,1.262774048E0,9.620067766E0
1.323031371E1,2.529739380E-2,1.015832565E1,1.287622375E0,1.023963825E1
1.324032271E1,-1.817221069E-1,1.050874695E1,1.311273193E0,1.059179979E1
1.325033071E1,-4.303550720E-1,1.065169968E1,1.269360352E0,1.073569687E1
1.326033871E1,-5.780978394E-1,1.042342438E1,1.219663696E0,1.051044968E1
1.327034771E1,-6.750961304E-1,9.887987823E0,1.224603424E0,9.986376296E0
1.328035571E1,-7.813751221E-1,9.322164459E0,1.187330933E0,9.429902016E0
1.329036371E1,-8.596623230E-1,8.817264404E0,1.204694824E0,8.940607390E0
1.330037271E1,-9.316625977E-1,8.490493927E0,1.309626617E0,8.641273297E0
1.331038071E1,-9.843530273E-1,8.312064972E0,1.419797516E0,8.489711418E0
1.332038971E1,-9.701325989E-1,8.223000183E0,1.584006042E0,8.430181754E0
1.333039771E1,-8.925938416E-1,8.242459717E0,1.786385193E0,8.480922002E0
1.334040571E1,-7.499404907E-1,8.376431122E0,2.103874969E0,8.669100240E0
1.335041471E1,-5.486091614E-1,8.581055603E0,2.404300232E0,8.928389938E0
1.336042271E1,-3.210823059E-1,8.821605377E0,2.627635803E0,9.210227206E0
1.337043171E1,-6.167175293E-2,9.012159119E0,2.799777832E0,9.437243840E0
1.338043971E1,2.163002014E-1,9.188043365E0,2.880010986E0,9.631271460E0
1.339044771E1,4.387376404E-1,9.360335083E0,2.670147400E0,9.743615896E0
1.340045671E1,6.629713440E-1,9.486372986E0,2.088157654E0,9.736077538E0
1.341046471E1,9.839039612E-1,9.521998901E0,1.136885834E0,9.639970927E0
1.342047371E1,1.391356659E0,9.438173218E0,-4.400848389E-2,9.540279020E0
1.343048171E1,1.727108459E0,9.434281311E0,-1.432071991E0,9.697391282E0
1.344048971E1,2.142794037E0,9.432185669E0,-2.935395813E0,1.010812749E1
1.345049871E1,2.450104980E0,9.162147217E0,-3.473077698E0,1.010001113E1
1.346050671E1,2.220781860E0,8.640182648E0,-1.763931885E0,9.093738722E0
1.347051571E1,1.814676361E0,8.178093567E0,4.778063965E-1,8.390623555E0
1.348052371E1,1.642833710E0,8.019124146E0,1.519340515E0,8.325481984E0
1.349053171E1,1.579066315E0,8.207731934E0,1.927242279E0,8.577562400E0
1.350054071E1,1.629361725E0,8.535999298E0,2.150428162E0,8.952231282E0
1.351054871E1,1.687141571E0,8.888366547E0,2.230661316E0,9.318012473E0
1.352055671E1,1.735491028E0,9.281748505E0,2.256258087E0,9.708423403E0
1.353056571E1,1.888472900E0,9.585317230E0,2.331102448E0,1.004383766E1
1.354057371E1,1.974992981E0,9.867929535E0,2.389031982E0,1.034331206E1
1.355058271E1,1.994751892E0,1.021221359E1,2.460283813E0,1.069211569E1
1.356059071E1,2.029629364E0,1.038315811E1,2.623893585E0,1.090019198E1
1.357059871E1,2.055076447E0,1.052611084E1,2.918780365E0,1.111492813E1
1.358060771E1,1.941163330E0,1.074630295E1,3.142565002E0,1.136339988E1
1.359061571E1,1.780098267E0,1.117920273E1,3.475622406E0,1.184159088E1
1.360062471E1,1.567390594E0,1.162662231E1,3.923491058E0,1.237048268E1
1.361063271E1,1.450034637E0,1.196192505E1,4.229005737E0,1.277007208E1
1.362064071E1,1.524429932E0,1.211026657E1,4.402494965E0,1.297553101E1
1.363064971E1,1.683249664E0,1.219379288E1,4.207151184E0,1.300853701E1
1.364065771E1,1.832788696E0,1.244631775E1,3.801494751E0,1.314234767E1
1.365066671E1,2.020348663E0,1.283625687E1,3.532354431E0,1.346583926E1
1.366067471E1,2.277663574E0,1.331496140E1,3.037034454E0,1.384555982E1
1.367068271E1,2.550546112E0,1.371822281E1,1.904339905E0,1.408266427E1
1.368069171E1,2.807561646E0,1.352766907E1,4.921765137E-1,1.382470508E1
1.369069971E1,3.171903992E0,1.260079651E1,-1.651216278E0,1.309838016E1
1.370070871E1,3.131937103E0,1.128293701E1,-3.206033020E0,1.214052492E1
1.371071671E1,2.026036835E0,1.033929932E1,-2.964285736E0,1.094499546E1
1.372072471E1,1.189127197E0,9.335786133E0,-1.897603912E0,9.600615960E0
1.373073371E1,1.031954041E0,8.200247498E0,-1.087189178E0,8.336124308E0
1.374074171E1,7.494914246E-1,7.443271637E0,-1.167272644E0,7.571430214E0
1.375075071E1,2.899470520E-1,6.744225311E0,-3.225193176E0,7.481344489E0
1.376075871E1,-2.350112915E-1,5.866899719E0,-7.402556305E0,9.448469848E0
1.377076671E1,-9.367520142E-1,6.492748260E0,-6.151158600E0,8.992776903E0
1.378077571E1,-1.976789246E0,8.364755402E0,-7.958949280E-1,8.631933583E0
1.379078300E1,-2.252216492E0,1.011925690E1,3.342100067E0,1.089226662E1
1.380079100E1,-1.894310760E0,1.135688324E1,4.639901276E0,1.241353673E1
1.381080000E1,-1.312171326E0,1.189456512E1,3.938010864E0,1.259803170E1
1.382080800E1,-6.863227844E-1,1.208496918E1,2.716550903E0,1.240552973E1
1.383081700E1,-5.044509888E-2,1.235216354E1,1.399589539E0,1.243130483E1
1.384082500E1,8.508306885E-1,1.269075943E1,-7.165599060E-1,1.273941701E1
1.385083300E1,2.308349762E0,1.285691391E1,-4.584067383E0,1.384349622E1
1.386084200E1,3.671265564E0,1.255139923E1,-6.762936401E0,1.472253790E1
1.387085000E1,4.119134216E0,1.163096329E1,-5.062921600E0,1.333715670E1
1.388085900E1,4.005221100E0,1.040920395E1,-2.072140961E0,1.134403328E1
1.389086700E1,3.672014008E0,9.360634460E0,1.501377869E0,1.016657759E1
1.390087500E1,3.845952301E0,8.273894348E0,5.251978455E0,1.052767564E1
1.391088400E1,4.490661621E0,7.738757172E0,7.774233398E0,1.185297892E1
1.392089200E1,5.001698914E0,7.369026031E0,8.841813354E0,1.254978885E1
1.393090100E1,5.278473358E0,6.472240906E0,9.153165894E0,1.239082843E1
1.394090900E1,5.193450165E0,6.098767548E0,8.443042603E0,1.163837869E1
1.395091700E1,4.568200378E0,6.429729309E0,6.176755371E0,1.001809266E1
1.396092600E1,3.283871155E0,7.085216217E0,2.844385071E0,8.311114548E0
1.397093400E1,1.709295502E0,7.452402649E0,1.204994202E-1,7.646863178E0
1.398094300E1,-4.355941772E-2,8.114775238E0,-8.617579651E-1,8.160520901E0
1.399095100E1,-1.713037720E0,9.038204956E0,1.017883301E-1,9.199674338E0
1.400095900E1,-2.781515808E0,9.750423889E0,1.668430481E0,1.027576063E1
1.401096800E1,-3.197650452E0,9.954599304E0,2.753973083E0,1.081218680E1
1.402097600E1,-3.132386169E0,9.590107269E0,3.099454651E0,1.055408071E1
1.403098500E1,-2.434836731E0,8.848699036E0,2.816093903E0,9.599910906E0
1.404099300E1,-1.225651245E0,8.072862396E0,2.579885101E0,8.563243275E0
1.405100100E1,-6.325845337E-1,7.498506775E0,2.664459229E0,7.982926157E0
1.406101000E1,-3.306623840E-1,7.160359955E0,2.825673981E0,7.704837814E0
1.407101800E1,2.888992310E-2,6.899901581E0,3.137475586E0,7.579790862E0
1.408102600E1,6.218069458E-1,6.497388611E0,3.660338287E0,7.483366824E0
1.409103500E1,1.343456268E0,6.041436768E0,4.124523010E0,7.437440623E0
1.410104300E1,2.190544739E0,5.737718353E0,4.554429016E0,7.646091931E0
1.411105200E1,3.213966522E0,5.770500183E0,5.228477325E0,8.424086200E0
1.412106000E1,4.154909821E0,6.446943512E0,5.688021698E0,9.548819147E0
1.413106800E1,4.798421631E0,7.727829895E0,5.514532471E0,1.063739975E1
1.414107700E1,4.804259491E0,9.043144684E0,4.590054932E0,1.122176365E1
1.415108500E1,4.586911469E0,9.954748993E0,3.808081055E0,1.160337303E1
1.416109400E1,4.309388580E0,1.043689636E1,3.837420044E0,1.192583029E1
1.417110200E1,3.979474640E0,1.083402054E1,4.290827179E0,1.231354609E1
1.418111000E1,3.662284241E0,1.141571091E1,4.561015320E0,1.282706678E1
1.419111900E1,3.405867462E0,1.232372269E1,4.496948547E0,1.355347263E1
1.420112700E1,3.128643951E0,1.392793671E1,4.205803986E0,1.488168744E1
1.421113600E1,2.816542969E0,1.648955978E1,3.910917206E0,1.717945778E1
1.422114400E1,2.424957275E0,1.935160812E1,3.529360657E0,1.981972607E1
1.423115200E1,2.005828857E0,2.136626862E1,3.014581146E0,2.167091330E1
1.424116100E1,1.410217438E0,2.136043076E1,2.403851166E0,2.154147664E1
1.425116900E1,7.604187012E-1,1.798764450E1,1.594633942E0,1.807419289E1
1.426117800E1,4.306544495E-1,1.344788498E1,1.131197662E0,1.350224729E1
1.427118600E1,2.424957275E-2,9.960886230E0,-1.312770081E-1,9.961780774E0
1.428119400E1,-1.040486298E0,6.988068237E0,-3.383414154E0,7.833466714E0
1.429120300E1,-1.491049347E0,5.254074097E0,-5.300178223E0,7.610546101E0
1.430121100E1,-1.101409607E0,5.178032227E0,-4.713847504E0,7.088404556E0
1.431122000E1,-2.013313293E-1,5.994584198E0,-1.964215393E0,6.311395735E0
1.432122800E1,7.500901794E-1,6.995552673E0,9.831555176E-1,7.104012053E0
1.433123600E1,1.111588440E0,7.655829620E0,2.871628418E0,8.251884985E0
1.434124500E1,8.807684326E-1,8.312214661E0,3.385210419E0,9.018221287E0
1.435125300E1,5.316943359E-1,8.967851257E0,2.853815460E0,9.425991604E0
1.436126200E1,2.621049500E-1,9.782307587E0,2.363135834E0,1.006710741E1
1.437127000E1,2.083666992E-1,1.051473450E1,1.962419128E0,1.069832450E1
1.438127800E1,1.095721436E-1,1.081994980E1,1.411714325E0,1.091220679E1
1.439128700E1,3.338058472E-2,1.053793625E1,9.165440369E-1,1.057777234E1
1.440129500E1,-4.520599365E-2,9.826465759E0,6.002517700E-1,9.844885733E0
1.441130400E1,-1.213975525E-1,9.015152893E0,3.707789612E-1,9.023591086E0
1.442131200E1,-1.853146362E-1,8.366701355E0,2.737806702E-1,8.373230496E0
1.443132000E1,-2.459385681E-1,7.851622467E0,3.689826965E-1,7.864134369E0
1.444132900E1,-3.719764709E-1,7.584577789E0,4.803511047E-1,7.608871396E0
1.445133700E1,-5.378315735E-1,7.489675140E0,5.830375671E-1,7.531562209E0
1.446134600E1,-7.225474548E-1,7.459887085E0,7.246430969E-1,7.529747523E0
1.447135400E1,-8.773255920E-1,7.511380005E0,8.400531006E-1,7.608956498E0
1.448136200E1,-9.794132996E-1,7.587421875E0,9.497749329E-1,7.709104588E0
1.449137100E1,-1.081800385E0,7.706574097E0,1.058149567E0,7.853741585E0
1.450137900E1,-1.234782257E0,7.926616516E0,1.159189453E0,8.105532481E0
1.451138800E1,-1.371148682E0,8.239615631E0,1.378184052E0,8.465855287E0
1.452139600E1,-1.346150665E0,8.537346497E0,1.707199860E0,8.809820553E0
1.453140400E1,-1.107247467E0,8.779393158E0,2.104773102E0,9.095812827E0
1.454141300E1,-7.303312683E-1,8.943601685E0,2.614612885E0,9.346528521E0
1.455142100E1,-3.311114502E-1,9.115743713E0,3.020868073E0,9.608957392E0
1.456143000E1,4.790039063E-2,9.252708893E0,3.241958313E0,9.804346485E0
1.457143800E1,4.260140991E-1,9.350156250E0,3.295097809E0,9.922932000E0
1.458144600E1,7.436535645E-1,9.391021271E0,3.286565552E0,9.977264869E0
1.459145500E1,1.070573730E0,9.471553802E0,3.177143097E0,1.004742245E1
1.460146300E1,1.383872223E0,9.598789215E0,2.841690674E0,1.010579352E1
1.461147100E1,1.708097992E0,9.688752136E0,2.349813538E0,1.011489695E1
1.462148000E1,2.102527771E0,9.634265442E0,1.833537140E0,1.003003251E1
1.463148800E1,2.427651672E0,9.513466644E0,1.156045990E0,9.886151049E0
1.464149700E1,2.826422424E0,9.400900726E0,-1.221459961E-1,9.817357986E0
1.465150500E1,3.376678162E0,9.397906952E0,-2.658621368E0,1.033396720E1
1.466151300E1,3.633843384E0,9.341773682E0,-3.312012634E0,1.055665577E1
1.467152200E1,3.387156372E0,9.089099121E0,-1.181942139E0,9.771465517E0
1.468153000E1,3.010539551E0,9.003177795E0,1.061143341E0,9.552307784E0
1.469153900E1,2.890489197E0,9.029223633E0,2.010169830E0,9.691366774E0
1.470154700E1,2.805915070E0,9.024882660E0,2.427202606E0,9.757713815E0
1.471155500E1,2.698438568E0,8.943002930E0,2.700384521E0,9.723731211E0
1.472156400E1,2.731220398E0,8.817713470E0,2.798430634E0,9.645872160E0
1.473157200E1,2.804418182E0,8.677754517E0,2.820584564E0,9.545882991E0
1.474158100E1,2.802921295E0,8.811725922E0,2.689307556E0,9.629914674E0
1.475158900E1,2.636317749E0,9.407786407E0,2.452050934E0,1.007319066E1
1.476159700E1,2.489024048E0,1.025622208E1,2.386038208E0,1.082028236E1
1.477160600E1,2.325713654E0,1.111902786E1,2.315983887E0,1.159333886E1
1.478161400E1,2.196532288E0,1.194261520E1,2.243534546E0,1.234845169E1
1.479162283E1,2.072440338E0,1.261860947E1,2.407443695E0,1.301230567E1
1.480163083E1,2.017504578E0,1.322904007E1,2.724484406E0,1.365652376E1
1.481163883E1,1.971101074E0,1.371253464E1,2.887495422E0,1.415120049E1
1.482164783E1,2.020049286E0,1.403436539E1,2.862647095E0,1.446508760E1
1.483165583E1,2.261946259E0,1.415172134E1,2.590363312E0,1.456357099E1
1.484166483E1,2.561473389E0,1.405786652E1,2.025438080E0,1.443215702E1
1.485167283E1,2.895428925E0,1.347872086E1,9.470805359E-1,1.381869698E1
1.486168083E1,2.868484955E0,1.220516922E1,-6.840774536E-1,1.255636586E1
1.487168983E1,1.919009399E0,1.140164017E1,-1.157692566E0,1.161982133E1
1.488169783E1,1.030756531E0,1.069421127E1,-6.116281128E-1,1.076116642E1
1.489170683E1,6.929090881E-1,9.647587738E0,3.637435913E-2,9.672507186E0
1.490171483E1,4.788542175E-1,8.623567200E0,3.659889221E-1,8.644602970E0
1.491172283E1,1.215472412E-1,7.847730560E0,2.878514099E-1,7.853948505E0
1.492173183E1,-3.098556519E-1,7.276817780E0,-3.939807129E-1,7.294059797E0
1.493173983E1,-8.355624390E-1,6.946903839E0,-1.635498962E0,7.185575439E0
1.494174883E1,-1.150507507E0,7.025640106E0,-4.374802551E0,8.355966957E0
1.495175683E1,-1.139280853E0,8.148006134E0,-6.549480286E0,1.051587642E1
1.496176483E1,-1.581161957E0,1.019245468E1,-2.395169220E0,1.058881680E1
1.497177383E1,-1.634002075E0,1.230620911E1,1.467398529E0,1.250064014E1
1.498178183E1,-9.322613525E-1,1.368888382E1,3.243604889E0,1.409878094E1
1.499179083E1,-2.171983337E-1,1.455333618E1,3.240012360E0,1.491121890E1
1.500179883E1,4.126918030E-1,1.520418274E1,1.572480011E0,1.529085284E1
1.501180683E1,1.745520172E0,1.509251495E1,-1.699116669E0,1.528783326E1
1.502181583E1,3.320245514E0,1.429512314E1,-5.550906830E0,1.569035189E1
1.503182383E1,4.013453979E0,1.274449768E1,-6.462361450E0,1.484224206E1
1.504183283E1,3.997137909E0,1.081515976E1,-4.348756714E0,1.232300601E1
1.505184083E1,3.377127228E0,8.937763824E0,-8.219407654E-1,9.589796511E0
1.506184883E1,3.147953796E0,7.003037109E0,3.396886139E0,8.395890501E0
1.507185783E1,3.562292175E0,5.814508667E0,5.939349060E0,9.042914565E0
1.508186583E1,3.970044250E0,5.046755219E0,7.501500549E0,9.874386061E0
1.509187483E1,4.099824371E0,4.042343903E0,9.176217957E0,1.083291651E1
1.510188283E1,3.958218842E0,3.557053070E0,9.849517822E0,1.119522775E1
1.511189083E1,3.171305237E0,3.915856934E0,8.502768402E0,9.883733249E0
1.512189983E1,1.676513672E0,4.727319489E0,5.832022247E0,7.692251370E0
1.513190783E1,4.893324280E-1,5.441933441E0,4.036805420E0,6.793370577E0
1.514191683E1,-6.617738342E-1,6.396348724E0,3.087928619E0,7.133479149E0
1.515192483E1,-2.433339844E0,7.274722137E0,2.121687927E0,7.958912277E0
1.516193283E1,-4.281995544E0,8.243507538E0,1.893712006E0,9.480350602E0
1.517194183E1,-4.358486481E0,8.972940674E0,1.758243713E0,1.012923934E1
1.518194983E1,-3.586092682E0,9.463769989E0,1.274749146E0,1.020039159E1
1.519195883E1,-2.158062286E0,9.524094543E0,5.923182678E-1,9.783478453E0
1.520196683E1,-1.176553345E0,9.084758148E0,5.257067871E-1,9.175700301E0
1.521197483E1,-2.971321106E-1,8.553363190E0,1.180744629E0,8.639587214E0
1.522198383E1,2.868035889E-1,8.132438507E0,1.968406677E0,8.372182345E0
1.523199183E1,6.373745728E-1,7.807164917E0,2.714604950E0,8.290183980E0
1.524200083E1,9.921368408E-1,7.598947906E0,3.438050537E0,8.399317609E0
1.525200883E1,1.450783081E0,7.564220123E0,4.029320984E0,8.692388924E0
1.526201683E1,2.091600494E0,7.910599823E0,4.437671814E0,9.308346433E0
1.527202583E1,3.129242706E0,8.477171631E0,4.863386536E0,1.026192610E1
1.528203383E1,4.279600525E0,9.321715393E0,5.314548340E0,1.155221981E1
1.529204283E1,5.343288574E0,1.044872177E1,5.384303284E0,1.291190309E1
1.530205083E1,6.296656036E0,1.143307480E1,5.431155853E0,1.413720377E1
1.531205883E1,6.720724182E0,1.195219528E1,5.271587677E0,1.469056644E1
1.532206783E1,6.858737183E0,1.180984131E1,5.237159271E0,1.462677219E1
1.533207583E1,6.908583527E0,1.117710709E1,5.439239044E0,1.422116629E1
1.534208483E1,6.586902466E0,1.064990341E1,5.543871460E0,1.369460615E1
1.535209283E1,5.869145050E0,9.973160706E0,5.386099548E0,1.276404585E1
1.536210083E1,5.048551483E0,9.138346710E0,5.123096466E0,1.162941830E1
1.537210983E1,4.290976868E0,8.896300049E0,4.903503113E0,1.102728343E1
1.538211783E1,3.642076263E0,9.858050079E0,4.615951080E0,1.147836553E1
1.539212683E1,3.176993408E0,1.174083481E1,4.134103088E0,1.284645077E1
1.540213483E1,2.980452118E0,1.390772873E1,3.586691437E0,1.466875484E1
1.541214283E1,2.703228607E0,1.570593933E1,2.977009277E0,1.621254327E1
1.542215183E1,2.179767151E0,1.619976242E1,2.293680267E0,1.650589763E1
1.543215983E1,1.525627441E0,1.509970001E1,1.625619507E0,1.526339144E1
1.544216883E1,8.213420105E-1,1.334579727E1,1.112037506E0,1.341721040E1
1.545217683E1,2.046244812E-1,1.172272247E1,8.081694031E-1,1.175232875E1
1.546218483E1,-4.534071350E-1,1.035097504E1,1.341210938E-1,1.036176871E1
1.547219383E1,-1.247056732E0,9.002279663E0,-8.532257080E-1,9.128208134E0
1.548220183E1,-1.634151764E0,7.613617401E0,-1.199605408E0,7.878875240E0
1.549221083E1,-1.753303986E0,6.779402161E0,-9.208850098E-1,7.062747180E0
1.550221883E1,-1.507964172E0,6.552623749E0,-2.923420715E-1,6.730252434E0
1.551222683E1,-1.136137390E0,6.848558350E0,4.209246826E-1,6.954907420E0
1.552223583E1,-8.104147339E-1,7.674989777E0,1.092128906E0,7.794548458E0
1.553224383E1,-5.812413025E-1,8.594078522E0,1.717827759E0,8.783334179E0
1.554225283E1,-6.197113037E-1,9.737400970E0,2.227368164E0,1.000810615E1
1.555226083E1,-8.376580811E-1,1.084255280E1,2.361788635E0,1.112837220E1
1.556226883E1,-9.639953613E-1,1.136062546E1,2.340083771E0,1.163911895E1
1.557227783E1,-1.052461395E0,1.126572281E1,2.118843842E0,1.151145884E1
1.558228583E1,-1.103505249E0,1.049078430E1,1.706451416E0,1.068579691E1
1.559229483E1,-1.004261627E0,9.344917145E0,1.402733002E0,9.502824724E0
1.560230283E1,-9.924362183E-1,8.457412720E0,1.081650696E0,8.583864385E0
1.561231083E1,-9.833052063E-1,7.889044647E0,9.099577332E-1,8.001995854E0
1.562231983E1,-1.006506958E0,7.762108612E0,8.551716614E-1,7.873671630E0
1.563232783E1,-1.123563538E0,8.066276093E0,9.386979675E-1,8.198070437E0
1.564233683E1,-1.295106812E0,8.674910431E0,1.110989685E0,8.841135149E0
1.565234483E1,-1.356628876E0,9.233249359E0,1.367556152E0,9.432048848E0
1.566235283E1,-1.336720276E0,9.620194702E0,1.627266083E0,9.847992796E0
1.567236183E1,-1.271006927E0,9.720935211E0,1.865121460E0,9.979514921E0
1.568236983E1,-1.117725677E0,9.501940613E0,1.981279907E0,9.770448105E0
1.569237883E1,-9.024732971E-1,9.003626862E0,1.926044769E0,9.251454111E0
1.570238683E1,-7.220983887E-1,8.591533813E0,1.866768036E0,8.821604290E0
1.571239483E1,-4.879852295E-1,8.211025085E0,1.901046753E0,8.442336246E0
1.572240383E1,-2.100132751E-1,8.004005585E0,2.027084656E0,8.259375471E0
1.573241183E1,1.007405090E-1,7.989485779E0,2.136058044E0,8.270717963E0
1.574242083E1,4.692741394E-1,8.202941895E0,2.254312134E0,8.519999832E0
1.575242883E1,8.132588196E-1,8.665929108E0,2.293979645E0,9.001225462E0
1.576243683E1,1.161584473E0,9.118737488E0,2.182162170E0,9.447882493E0
1.577244583E1,1.584305420E0,9.433532867E0,1.980381775E0,9.768494152E0
1.578245383E1,2.068997498E0,9.602531433E0,1.405726776E0,9.922974773E0
1.579246346E1,2.502046967E0,9.790839844E0,5.968089294E-1,1.012309067E1
1.580247146E1,2.932252350E0,9.823022919E0,-1.549278259E-1,1.025250631E1
1.581247946E1,3.279230804E0,9.727970581E0,-7.912545776E-1,1.029625418E1
1.582248846E1,3.526666260E0,9.496252441E0,-8.202941895E-1,1.016312294E1
1.583249646E1,3.592080231E0,9.037606201E0,-3.086581421E-1,9.730191986E0
1.584250546E1,3.459306335E0,8.511749725E0,6.623725891E-1,9.211700232E0
1.585251346E1,3.163072357E0,8.138426056E0,1.428479462E0,8.847573621E0
1.586252246E1,2.907404022E0,8.035739594E0,1.787732391E0,8.730526677E0
1.587253046E1,2.641706543E0,8.123906250E0,1.777254181E0,8.725542885E0
1.588253846E1,2.379002838E0,8.261470184E0,1.755100250E0,8.774504031E0
1.589254746E1,2.069895630E0,8.400231628E0,1.748963013E0,8.826507291E0
1.590255546E1,1.816772003E0,8.521479492E0,1.659748535E0,8.869669579E0
1.591256446E1,1.701960754E0,8.578810272E0,1.768721924E0,8.923061881E0
1.592257246E1,1.700164490E0,8.725205841E0,2.098635864E0,9.133676628E0
1.593258046E1,1.762285309E0,9.081914063E0,2.460283813E0,9.572868378E0
1.594258946E1,1.786385193E0,9.642049255E0,2.967878265E0,1.024541787E1
1.595259746E1,1.775308228E0,1.041414368E1,3.404520264E0,1.109940836E1
1.596260646E1,1.712738342E0,1.128129044E1,3.766916656E0,1.201626596E1
1.597261446E1,1.608255615E0,1.208347229E1,4.011058960E0,1.283298027E1
1.598262246E1,1.608255615E0,1.268552032E1,4.329895935E0,1.350025595E1
1.599263146E1,1.675166473E0,1.298444870E1,4.659211121E0,1.389641461E1
1.600263946E1,1.843416595E0,1.290885590E1,4.766987000E0,1.388383630E1
1.601264846E1,1.970352631E0,1.254616013E1,4.474195862E0,1.346502328E1
1.602265646E1,2.112706604E0,1.238120316E1,3.925287323E0,1.315924015E1
1.603266446E1,2.326312408E0,1.255933273E1,3.391048279E0,1.321543705E1
1.604267346E1,2.566113739E0,1.279030243E1,2.706222382E0,1.332292819E1
1.605268146E1,2.893782349E0,1.285167480E1,1.464105377E0,1.325455115E1
1.606269046E1,3.092718658E0,1.245080841E1,-1.032852173E-1,1.282958326E1
1.607269846E1,3.257376251E0,1.132904114E1,-2.456541595E0,1.204127359E1
1.608270646E1,2.418071594E0,1.043929138E1,-3.522924042E0,1.127993212E1
1.609271546E1,1.269360352E0,9.833800507E0,-2.753074951E0,1.029049706E1
1.610272346E1,9.274713135E-1,8.702453156E0,-1.542991333E0,8.886715716E0
1.611273246E1,7.156617737E-1,7.680977325E0,-6.752458191E-1,7.743742078E0
1.612274046E1,3.652404785E-1,6.990762634E0,-3.445834351E-1,7.008773114E0
1.613274846E1,-2.492317200E-1,6.490802307E0,-1.180744629E0,6.602029152E0
1.614275746E1,-1.065035248E0,5.902226257E0,-4.831053772E0,7.701276220E0
1.615276546E1,-2.060016174E0,6.162984009E0,-6.861132202E0,9.449929821E0
1.616277446E1,-2.811752930E0,8.136480103E0,-2.161804504E0,8.875903431E0
1.617278246E1,-2.600093079E0,1.060888870E1,2.587968292E0,1.122526540E1
1.618279046E1,-1.739532623E0,1.241488312E1,4.578229523E0,1.334599124E1
1.619279946E1,-9.422904968E-1,1.381297577E1,4.988975372E0,1.471652426E1
1.620280746E1,-3.251239014E-1,1.538859924E1,4.283791809E0,1.597703241E1
1.621281646E1,7.664062500E-1,1.672277481E1,2.525847473E0,1.692981044E1
1.622282446E1,2.677332458E0,1.767180130E1,-2.067799988E0,1.799267815E1
1.623283246E1,5.225333862E0,1.772658737E1,-8.972192230E0,2.054352081E1
1.624284146E1,5.863157501E0,1.567899536E1,-8.152646484E0,1.861916099E1
1.625284946E1,5.423372040E0,1.292577072E1,-4.046834564E0,1.458990689E1
1.626285846E1,4.688550110E0,1.049946625E1,-6.002517700E-2,1.149890850E1
1.627286646E1,4.597539368E0,8.064779205E0,4.083208923E0,1.014152981E1
1.628287546E1,4.824018402E0,6.452332306E0,6.107599182E0,1.010972371E1
1.629288346E1,4.848267975E0,5.293292542E0,7.640261993E0,1.048323670E1
1.630289146E1,4.633764038E0,3.945495300E0,9.069489899E0,1.092219526E1
1.631290046E1,4.150568848E0,3.359913025E0,9.446406097E0,1.085130524E1
1.632290846E1,3.128943329E0,4.071982269E0,7.935897217E0,9.452501817E0
1.633291746E1,1.627864838E0,5.121449890E0,5.459746399E0,7.660810900E0
1.634292546E1,2.924917603E-1,5.618117065E0,3.729793854E0,6.749826145E0
1.635293346E1,-1.252595215E0,6.022426300E0,2.549498291E0,6.658720211E0
1.636294246E1,-2.709814911E0,6.671326904E0,2.224973145E0,7.536591073E0
1.637295046E1,-3.666325836E0,7.566615143E0,2.378254395E0,8.737946202E0
1.638295946E1,-3.749103699E0,8.309520264E0,2.289189606E0,9.399164570E0
1.639296746E1,-3.216660919E0,8.697363739E0,1.845362549E0,9.454967288E0
1.640297546E1,-1.857936401E0,8.716972961E0,1.149609375E0,8.986609316E0
1.641298446E1,-7.011419678E-1,8.140222321E0,1.224902802E0,8.261670918E0
1.642299246E1,-4.400848389E-2,7.629035339E0,1.876797180E0,7.856620432E0
1.643300146E1,2.426454163E-1,7.270680542E0,2.436632996E0,7.671952339E0
1.644300946E1,4.730163574E-1,6.991660767E0,2.963387604E0,7.608464421E0
1.645301746E1,8.761280823E-1,6.787934418E0,3.585344238E0,7.726470564E0
1.646302646E1,1.462608490E0,6.653813324E0,4.156406708E0,7.980486957E0
1.647303446E1,2.157463531E0,6.829248505E0,4.536765747E0,8.477943587E0
1.648304346E1,3.055296478E0,7.267237701E0,5.006039886E0,9.338523209E0
1.649305146E1,3.913611603E0,8.110883331E0,5.496869202E0,1.055075141E1
1.650305946E1,4.812342682E0,9.235794067E0,5.820196838E0,1.193034892E1
1.651306846E1,5.461991730E0,1.046952850E1,5.550607452E0,1.304812722E1
1.652307646E1,5.896538086E0,1.150223099E1,5.267246704E0,1.395759173E1
1.653308546E1,6.103707275E0,1.213765961E1,5.042114868E0,1.449140937E1
1.654309346E1,6.008056183E0,1.239841736E1,4.744683380E0,1.457153089E1
1.655310146E1,5.483696594E0,1.249870880E1,4.406686249E0,1.434250793E1
1.656311046E1,4.837640076E0,1.199934723E1,4.007167053E0,1.354416787E1
1.657311846E1,4.378844147E0,1.113130234E1,3.765270081E0,1.254023232E1
1.658312746E1,4.080813904E0,1.046413971E1,3.856131134E0,1.187522671E1
1.659313546E1,3.883673859E0,1.027208908E1,4.288282471E0,1.178932158E1
1.660314346E1,3.649111633E0,1.083881058E1,4.590054932E0,1.232332888E1
1.661315246E1,3.420686646E0,1.236084549E1,4.368815002E0,1.354910118E1
1.662316046E1,3.243155823E0,1.447055832E1,3.808829498E0,1.531085562E1
1.663316946E1,2.945574646E0,1.642040359E1,3.020119629E0,1.695367768E1
1.664317746E1,2.407743073E0,1.659194687E1,1.992656250E0,1.688373793E1
1.665318646E1,1.708247681E0,1.432895279E1,1.125359802E0,1.447423341E1
1.666319446E1,1.019380188E0,1.167616928E1,7.086264038E-1,1.174198520E1
1.667320246E1,2.579136658E-1,9.685608673E0,-8.083190918E-2,9.689379166E0
1.668321146E1,-5.044509888E-1,8.019423523E0,-8.282276917E-1,8.077845353E0
1.669321946E1,-9.415420532E-1,6.720424805E0,-1.119072876E0,6.877712926E0
1.670322846E1,-9.708810425E-1,5.955814819E0,-6.979985046E-1,6.074663947E0
1.671323646E1,-8.026309204E-1,5.919590149E0,1.094224548E-1,5.974758338E0
1.672324446E1,-7.167095947E-1,6.513554993E0,8.348139954E-1,6.605829675E0
1.673325346E1,-7.857160950E-1,7.617958374E0,1.203497314E0,7.752357406E0
1.674326146E1,-9.598040771E-1,8.863967285E0,1.371897125E0,9.020711813E0
1.675327046E1,-1.067130890E0,9.990075531E0,1.511706390E0,1.016000166E1
1.676327846E1,-1.130449219E0,1.110555588E1,1.723815308E0,1.129525679E1
1.677328646E1,-1.158590698E0,1.204111038E1,1.798659668E0,1.222971170E1
1.678329546E1,-1.036594391E0,1.242985199E1,1.780098267E0,1.259938484E1
1.679330383E1,-9.669891357E-1,1.211191315E1,1.576820984E0,1.225234151E1
1.680331283E1,-1.025667114E0,1.115136063E1,1.334325256E0,1.127764429E1
1.681332083E1,-9.517208862E-1,9.910441132E0,1.041085052E0,1.001031838E1
1.682332883E1,-8.261320496E-1,8.869206390E0,8.601113892E-1,8.949028314E0
1.683333783E1,-6.797364807E-1,8.138426056E0,8.312214661E-1,8.208955444E0
1.684334583E1,-4.487667847E-1,7.642507324E0,9.177415466E-1,7.710483732E0
1.685335483E1,-3.433859253E-1,7.387437744E0,9.190887451E-1,7.452306652E0
1.686336283E1,-3.103047180E-1,7.333250427E0,9.327104187E-1,7.398837718E0
1.687337083E1,-3.619473267E-1,7.551945648E0,9.979747009E-1,7.626194493E0
1.688337983E1,-4.376898193E-1,8.005951538E0,1.129850464E0,8.097122605E0
