"Time (s)","Acceleration x (m/s^2)","Acceleration y (m/s^2)","Acceleration z (m/s^2)","Absolute acceleration (m/s^2)"
-1.849125001E-3,-4.156855774E-1,-2.257754974E0,-5.131479034E0,5.621594890E0
8.158874996E-3,-1.218765564E0,-2.329306183E0,-4.683760071E0,5.371095344E0
1.816787500E-2,-1.888023834E0,-1.986668701E0,-3.415597229E0,4.379245478E0
2.817587500E-2,-2.339485016E0,-1.563648376E0,-1.163380737E0,3.044936966E0
3.818487500E-2,-2.654729462E0,-1.548380127E0,1.179547119E-1,3.075545943E0
4.819287500E-2,-2.711611176E0,-2.085463257E0,2.606080627E-1,3.430730057E0
5.820187500E-2,-2.544109497E0,-2.863844604E0,4.754113770E-1,3.860066713E0
6.820987500E-2,-1.742526398E0,-3.246598663E0,4.240681458E-1,3.708993788E0
7.821887500E-2,-1.370849304E0,-3.396287384E0,2.311193848E-1,3.669797267E0
8.822787500E-2,-1.142873383E0,-3.504512329E0,8.187973022E-2,3.687068012E0
9.823587500E-2,-9.455836487E-1,-3.415896606E0,-1.739382935E-1,3.548624042E0
1.082448750E-1,-8.506809998E-1,-2.989283752E0,7.529342651E-2,3.108881570E0
1.182528750E-1,-5.884263611E-1,-2.614163818E0,5.358856201E-1,2.732630866E0
1.282618750E-1,-1.008901978E-1,-2.048190765E0,1.206042023E0,2.379033754E0
1.382698750E-1,4.501139832E-1,-1.516047363E0,1.629810791E0,2.270965746E0
1.482788750E-1,8.881031799E-1,-1.149459686E0,2.495610352E0,2.887569195E0
1.582868750E-1,1.244212646E0,-6.635700989E-1,5.390590210E0,5.571970316E0
1.682958750E-1,2.289938049E0,2.559677124E-1,9.417815552E0,9.695596191E0
1.783048750E-1,6.623875580E0,8.170459442E0,1.312201263E1,1.681723374E1
1.883128750E-1,1.527678177E1,2.277229477E1,1.620515121E1,3.185222749E1
1.983218750E-1,2.758912811E1,3.720962219E1,1.340088272E1,4.822136074E1
2.083298750E-1,4.081861725E1,4.331841888E1,3.426225128E0,5.961865436E1
2.183388750E-1,4.888504303E1,2.538765610E1,-1.169218597E1,5.631152393E1
2.283468750E-1,5.427593262E1,1.924098816E0,-3.274515610E1,6.341785447E1
2.383558750E-1,4.304493759E1,-6.085295563E0,-2.142135406E1,4.846412987E1
2.483648750E-1,2.153556656E1,2.278262329E-1,1.202449493E0,2.157031332E1
2.583728750E-1,9.717342682E0,3.092269592E0,1.176388687E1,1.556849107E1
2.683818750E-1,8.019273834E0,2.880310364E0,1.135808075E1,1.419897669E1
2.783898750E-1,6.863976288E0,2.530936890E0,6.696773987E0,9.917993439E0
2.883988750E-1,5.022206268E0,1.445094910E0,3.110980682E0,6.081862865E0
2.984068750E-1,2.817740479E0,5.725593567E-1,9.285191345E-1,3.021528323E0
3.084158750E-1,9.687854004E-1,-3.427871704E-1,-2.063459015E0,2.305192248E0
3.184238750E-1,-4.763095093E-1,-1.011895752E0,-4.153113556E0,4.301064516E0
3.284328750E-1,-1.217717743E0,-1.169817352E0,-4.126019897E0,4.458177804E0
3.384418750E-1,-1.620829468E0,-8.475375366E-1,-2.885549469E0,3.416402169E0
3.484498750E-1,-2.002984772E0,-2.954855347E-1,-1.102756805E0,2.305500438E0
3.584588750E-1,-2.150428162E0,1.425036621E-1,4.523593140E-1,2.202107518E0
3.684668750E-1,-2.319277039E0,4.161346436E-1,1.101110229E0,2.600895569E0
3.784758750E-1,-2.615361328E0,5.700146484E-1,1.275946655E0,2.965311357E0
3.884838750E-1,-2.959495697E0,4.769082642E-1,1.501228180E0,3.352572493E0
3.984928750E-1,-3.077001343E0,2.083666992E-1,1.655706940E0,3.500388466E0
4.085008750E-1,-3.104244690E0,-1.297801208E-1,1.997895355E0,3.693881945E0
4.185098750E-1,-3.132535858E0,-4.519102478E-1,2.320773926E0,3.924665003E0
4.285188750E-1,-3.072211304E0,-6.078858948E-1,2.439477081E0,3.969767750E0
4.385268750E-1,-2.843337250E0,-5.688171387E-1,2.337539063E0,3.724541384E0
4.485358750E-1,-2.366428986E0,-4.758604431E-1,2.114203491E0,3.208782590E0
4.585438750E-1,-1.786235504E0,-3.682342529E-1,1.875899048E0,2.616339232E0
4.685528750E-1,-1.077160034E0,-2.776725769E-1,1.867366791E0,2.173576438E0
4.785608750E-1,-3.761677551E-1,-9.774673462E-2,1.897304535E0,1.936703669E0
4.885698750E-1,1.537303162E-1,-7.110214233E-2,2.425855408E0,2.431761293E0
4.985778750E-1,9.830058289E-1,-3.219804382E-1,5.120551758E0,5.223985276E0
5.085868750E-1,2.558928680E0,7.589218140E-2,1.009216324E1,1.041180265E1
5.185958750E-1,7.725135498E0,3.958667908E0,1.355655899E1,1.609748619E1
5.286038750E-1,2.136192764E1,1.045890060E1,1.637235352E1,2.887515392E1
5.386128750E-1,3.932098160E1,1.280167877E1,1.511631546E1,4.402869026E1
5.486208750E-1,5.740472626E1,2.798131256E0,4.260290680E0,5.763056665E1
5.586298750E-1,6.308676041E1,-1.143681702E1,-9.674531708E0,6.484085661E1
5.686378750E-1,5.594481216E1,-1.474583588E1,-1.756133102E1,6.046207101E1
5.786468750E-1,3.972663803E1,-7.198530579E0,-1.943258972E1,4.480680925E1
5.886558750E-1,2.307975540E1,-2.074685669E0,-1.769350616E1,2.915543844E1
5.986638750E-1,1.156959091E1,-1.612746277E0,-9.832602997E0,1.526880696E1
6.086728750E-1,5.191653900E0,-3.003803558E0,7.174580383E0,9.351508419E0
6.186808750E-1,8.076903992E0,-3.803740082E0,8.111781464E0,1.206257913E1
6.286898750E-1,6.857539673E0,-4.155508575E0,-1.550775146E-1,8.019859782E0
6.386978750E-1,1.985620880E0,-6.860982513E0,-1.554292831E1,1.710550765E1
6.487068750E-1,-1.180894318E0,-4.835694122E0,-1.081545914E1,1.190599031E1
6.587148750E-1,-1.565444641E0,-1.417701874E0,-2.655028839E0,3.392590996E0
6.687238750E-1,-1.786834259E0,2.516267395E-1,2.259251862E0,2.891420353E0
6.787328750E-1,-1.486558685E0,9.171427917E-1,4.889282684E0,5.191925731E0
6.887408750E-1,-1.158291321E0,1.042432251E0,4.866979065E0,5.110360946E0
6.987498750E-1,-1.215771790E0,1.085093536E0,3.578159180E0,3.931761964E0
7.087578750E-1,-1.303190002E0,9.392967224E-1,2.677033081E0,3.122032772E0
7.187668750E-1,-1.434017944E0,7.707472229E-1,2.044747925E0,2.613704808E0
7.287748750E-1,-1.551673279E0,5.661227417E-1,1.667981415E0,2.347412815E0
7.387838750E-1,-1.515298920E0,3.996688843E-1,1.395847321E0,2.098631882E0
7.487918750E-1,-1.397344208E0,2.490820312E-1,1.153052216E0,1.828699567E0
7.588008750E-1,-1.295855255E0,1.347198486E-1,1.045875092E0,1.670701944E0
7.688092500E-1,-1.260678406E0,1.133143616E-1,1.013242950E0,1.621360991E0
7.788172500E-1,-1.287622375E0,1.571731567E-1,1.040037231E0,1.662634123E0
7.888262500E-1,-1.309476929E0,2.305206299E-1,1.016985168E0,1.673955920E0
7.988342500E-1,-1.261875916E0,4.388873291E-1,1.009800110E0,1.674708684E0
8.088432500E-1,-1.100062408E0,6.069877625E-1,1.123413849E0,1.685416899E0
8.188512500E-1,-4.007167053E-1,8.366102600E-1,1.525477753E0,1.785377545E0
8.288602500E-1,6.348298645E-1,1.302142181E0,2.383942566E0,2.789581577E0
8.388692500E-1,1.881886597E0,2.154469757E0,4.155658264E0,5.045070139E0
8.488772500E-1,4.588707733E0,3.003204803E0,6.958729248E0,8.859988177E0
8.588862500E-1,1.219858292E1,4.278253326E0,9.609117737E0,1.610726607E1
8.688942500E-1,2.578253494E1,5.271887054E0,1.243404327E1,2.910562374E1
8.789032500E-1,4.366749298E1,2.633473663E0,1.159728333E1,4.525795076E1
8.889112500E-1,5.992503525E1,-5.273533630E0,4.829556885E0,6.035018331E1
8.989202500E-1,5.927029678E1,-1.075214081E1,-5.546715546E0,6.049250091E1
9.089292500E-1,4.421520401E1,-6.996899872E0,-9.518556061E0,4.576618602E1
9.189372500E-1,2.989358597E1,-3.235970764E0,-7.449558563E0,3.097731285E1
9.289462500E-1,2.003778122E1,-2.199675751E0,-6.587800598E0,2.120731870E1
9.389542500E-1,1.129281647E1,-2.491718445E0,-1.404843613E1,1.819601391E1
9.489632500E-1,2.168690186E0,-3.848946075E0,-8.576864319E0,9.647808277E0
9.589712500E-1,2.781815186E0,-4.935985565E0,2.402953033E0,6.154399443E0
9.689802500E-1,4.429888000E0,-4.428840179E0,4.137396240E-1,6.277715628E0
9.789882500E-1,2.697839813E0,-5.195246429E0,-4.723427582E0,7.521947437E0
9.889972500E-1,8.798703003E-1,-4.458478546E0,-5.115911407E0,6.842861406E0
9.990062500E-1,2.474354553E-1,-2.630779266E0,-2.273921356E0,3.486107025E0
1.009014250E0,-1.493893433E-1,-1.268013153E0,8.834628296E-1,1.552636823E0
1.019023250E0,-5.385800171E-1,-3.814068604E-1,3.275787964E0,3.341605365E0
1.029031250E0,-1.003213806E0,3.926335144E-1,3.949985962E0,4.094262829E0
1.039040250E0,-1.450932770E0,9.367520142E-1,3.769311676E0,4.146133229E0
1.049048250E0,-1.609153748E0,1.133143616E0,3.571722565E0,4.078062324E0
1.059057250E0,-1.726958771E0,1.202599182E0,3.184926910E0,3.817380098E0
1.069066250E0,-1.746418304E0,1.173409882E0,2.758314056E0,3.469173400E0
1.079074250E0,-1.694176941E0,1.183289337E0,2.394570465E0,3.162969629E0
1.089083250E0,-1.628164215E0,1.291813660E0,2.120490417E0,2.969205425E0
1.099091250E0,-1.674418030E0,1.141975250E0,2.003134460E0,2.849619427E0
1.109100250E0,-1.681603088E0,9.177415466E-1,1.842518463E0,2.657990365E0
1.119108250E0,-1.672771454E0,7.762857056E-1,1.680106201E0,2.494702523E0
1.129117250E0,-1.657353516E0,7.336244202E-1,1.657054138E0,2.455779689E0
1.139125250E0,-1.521136780E0,8.300239563E-1,1.478475494E0,2.277868885E0
1.149134250E0,-8.919950867E-1,9.538165283E-1,1.253643036E0,1.810260220E0
1.159143250E0,6.316864014E-2,1.105750580E0,1.501228180E0,1.865572478E0
1.169151250E0,6.509962463E-1,1.239871674E0,1.956281891E0,2.405850518E0
1.179160250E0,1.238225098E0,1.513502655E0,2.601739655E0,3.254679847E0
1.189168250E0,2.307152252E0,2.084864502E0,3.735332336E0,4.860279742E0
1.199177250E0,5.148842926E0,3.110830994E0,5.675298157E0,8.270239544E0
1.209185250E0,1.345776443E1,4.944966888E0,9.007818146E0,1.693236277E1
1.219194250E0,3.004222687E1,5.695206757E0,1.200533478E1,3.284963985E1
1.229203250E0,5.298501709E1,1.886377258E0,9.621541901E0,5.388454810E1
1.239211250E0,6.520006577E1,-6.762038269E0,1.194515991E-1,6.554988944E1
1.249220250E0,5.683456192E1,-9.075926514E0,-8.120762787E0,5.812475083E1
1.259228250E0,4.393693268E1,-4.481081543E0,-9.824819183E0,4.524446062E1
1.269237250E0,2.945799179E1,-2.863844604E0,-1.173754166E1,3.183935883E1
1.279245250E0,1.727003677E1,-4.368515625E0,-1.272369095E1,2.189133185E1
1.289254250E0,1.301752991E1,-6.706204376E0,6.601422272E0,1.606262862E1
1.299262250E0,1.513323029E1,-6.261030121E0,9.911189575E0,1.914280115E1
1.309271250E0,1.300645294E1,-4.569846954E0,4.684658203E0,1.456012850E1
1.319280250E0,9.756411438E0,-3.140020294E0,9.556127930E-1,1.029371106E1
1.329288250E0,6.410419464E0,-2.466421051E0,-4.205803986E0,8.053911948E0
1.339297250E0,3.202739868E0,-1.768871613E0,-6.975644073E0,7.876932124E0
1.349305250E0,1.551972656E0,-4.104464722E-1,-4.788542175E0,5.050467463E0
1.359314250E0,1.301244049E0,7.711962891E-1,-6.246510315E-1,1.636511137E0
1.369322250E0,1.050964508E0,1.275497589E0,1.874102783E0,2.498736028E0
1.379331250E0,5.325924683E-1,1.453627167E0,2.675835571E0,3.091404645E0
1.389340250E0,-1.709445190E-1,1.364712067E0,2.616708527E0,2.956150295E0
1.399348250E0,-7.937992859E-1,1.110690308E0,2.230212250E0,2.614879910E0
1.409357250E0,-1.174308014E0,8.921447754E-1,2.012564850E0,2.495062902E0
1.419365250E0,-1.395547943E0,7.818241882E-1,1.800755310E0,2.408635051E0
1.429374250E0,-1.507664795E0,6.572831726E-1,1.521136780E0,2.240297169E0
1.439382250E0,-1.441053314E0,5.607339478E-1,1.246008911E0,1.985848791E0
1.449391250E0,-1.389111328E0,5.541476440E-1,1.050665131E0,1.827732779E0
1.459399250E0,-1.475631409E0,6.815327454E-1,1.052910461E0,1.936645393E0
1.469408250E0,-1.862127686E0,8.566685486E-1,1.335522766E0,2.446430375E0
1.479417250E0,-2.463576965E0,1.205742645E0,1.620679779E0,3.185848354E0
1.489425250E0,-2.715353394E0,1.284029846E0,1.167721710E0,3.222646535E0
1.499434250E0,-2.685864716E0,1.221160583E0,7.015910339E-1,3.032710408E0
1.509442250E0,-2.284998322E0,1.285975800E0,3.348536682E-1,2.643308167E0
1.519451250E0,-1.593286743E0,1.259331207E0,2.799179077E-1,2.050080918E0
1.529459250E0,-7.309300232E-1,1.284029846E0,9.147477722E-1,1.737744179E0
1.539468250E0,1.179547119E-1,1.497186584E0,2.004930725E0,2.505040558E0
1.549477250E0,7.806266785E-1,1.999990997E0,3.653602295E0,4.237705951E0
1.559485250E0,1.958078156E0,3.040776672E0,6.674021301E0,7.590978406E0
1.569494250E0,8.215366058E0,5.713618469E0,9.965077515E0,1.412233852E1
1.579502250E0,2.451512054E1,9.378297729E0,1.423764267E1,2.986057723E1
1.589511250E0,4.700884460E1,7.549101563E0,1.139370667E1,4.895545891E1
1.599519250E0,6.912699966E1,-2.578238525E0,-1.323248291E-1,6.917518996E1
1.609528250E0,6.746755051E1,-1.204934326E1,-1.272833130E1,6.970701157E1
1.619537250E0,4.874179092E1,-8.293802948E0,-1.453806793E1,5.153547098E1
1.629545250E0,3.074217133E1,-2.783910828E0,-8.586444397E0,3.203994826E1
1.639554250E0,1.930894684E1,-1.433568878E0,-4.445006561E0,1.986576530E1
1.649562250E0,8.932524719E0,-1.728156281E0,-6.158343658E0,1.098643339E1
1.659571250E0,2.094743958E0,-2.968477020E0,1.782942352E0,4.047059611E0
1.669579250E0,3.862418060E0,-3.165018311E0,2.624192963E0,5.641099439E0
1.679588250E0,4.047433319E0,-3.272494812E0,-1.716929626E-1,5.207726686E0
1.689597250E0,1.663939819E0,-3.888763275E0,-5.032834167E0,6.574237240E0
1.699605250E0,-1.083746338E0,-4.549189911E0,-8.014483795E0,9.279094001E0
1.709614250E0,-2.107916565E0,-3.107388153E0,-5.270839233E0,6.471546925E0
1.719622250E0,-2.265089722E0,-1.584604797E0,-2.431992645E0,3.681873441E0
1.729631250E0,-2.212548981E0,-4.998106384E-1,4.903802490E-1,2.320701716E0
1.739639250E0,-2.130669250E0,1.920506287E-1,2.888842621E0,3.594724828E0
1.749648250E0,-2.251468048E0,6.107299805E-1,3.781137085E0,4.442870371E0
1.759656250E0,-2.362686768E0,8.592132568E-1,3.414699097E0,4.240366270E0
1.769666208E0,-2.412533112E0,8.797206116E-1,2.993924103E0,3.944338462E0
1.779675208E0,-2.431393890E0,7.093748474E-1,2.579286346E0,3.614914519E0
1.789683208E0,-2.459086304E0,5.140310669E-1,2.289339294E0,3.398883315E0
1.799692208E0,-2.488275604E0,2.460882568E-1,2.005828857E0,3.205530271E0
1.809700208E0,-2.548151093E0,-8.502319336E-2,1.854942627E0,3.152953391E0
1.819709208E0,-2.453547821E0,-3.610491943E-1,1.763632507E0,3.043132112E0
1.829717208E0,-2.144739990E0,-4.610412598E-1,1.766027527E0,2.816260268E0
1.839726208E0,-1.753453674E0,-3.779640198E-1,1.637444916E0,2.428720330E0
1.849735208E0,-1.289119263E0,-3.311114502E-1,1.587598572E0,2.071697973E0
1.859743208E0,-6.647676086E-1,-3.980223083E-1,1.891466675E0,2.044011720E0
1.869752208E0,-8.038284302E-2,-3.474275208E-1,2.663710785E0,2.687475103E0
1.879760208E0,3.011737061E-1,-7.858657837E-2,4.155658264E0,4.167298533E0
1.889769208E0,1.310824127E0,4.424798584E-1,7.315736847E0,7.445404887E0
1.899777208E0,8.172555084E0,1.355880432E0,1.033076706E1,1.324212281E1
1.909786208E0,2.814267700E1,1.166823578E0,1.547362244E1,3.213727956E1
1.919795208E0,5.567133087E1,1.284029846E0,1.181552948E1,5.692585134E1
1.929803208E0,7.684629730E1,-2.568658447E-1,-5.128934326E0,7.701769509E1
1.939812208E0,6.493691299E1,-2.679428101E0,-1.946866470E1,6.784549292E1
1.949820208E0,4.154924789E1,-1.910028076E0,-2.208058319E1,4.709076727E1
1.959829208E0,2.336655899E1,-1.605261841E0,-1.397972900E1,2.727646912E1
1.969837208E0,1.202958435E1,-2.033521271E0,-7.881111145E-1,1.222567902E1
1.979846208E0,7.050787811E0,-2.498454437E0,1.016072067E1,1.261729479E1
1.989855208E0,8.198301544E0,-2.953358459E0,7.350614319E0,1.140026339E1
1.999863208E0,6.269712067E0,-2.512824554E0,3.403322754E0,7.563476873E0
2.009872208E0,3.545676727E0,-1.613195343E0,7.104226685E-1,3.959661985E0
2.019880208E0,-7.246430969E-1,-2.168839874E0,-7.092101898E0,7.451636287E0
2.029889208E0,-5.942492523E0,-3.498375092E0,-1.434272415E1,1.591432002E1
2.039897208E0,-5.722450104E0,-1.386716309E0,-8.166567535E0,1.006788173E1
2.049906208E0,-4.608017578E0,1.366658020E-1,-4.067940674E0,6.148222903E0
2.059914208E0,-4.204157410E0,9.955796814E-1,-5.887257385E-1,4.360357373E0
2.069923208E0,-3.676504669E0,1.472937012E0,2.322420502E0,4.591281630E0
2.079932208E0,-3.312312012E0,1.578916626E0,3.883673859E0,5.342968390E0
2.089940208E0,-3.206781464E0,1.416055298E0,4.210294647E0,5.478616703E0
2.099949208E0,-2.899919586E0,9.714797974E-1,3.127446442E0,4.374268836E0
2.109957208E0,-2.525398407E0,4.881349182E-1,1.752854919E0,3.112621593E0
2.119966208E0,-2.883902893E0,3.198847961E-1,1.464704132E0,3.250320042E0
2.129974208E0,-2.599644012E0,-3.158432007E-2,6.545887756E-1,2.680976133E0
2.139983208E0,-2.105072479E0,-2.833607483E-1,2.624043274E-1,2.140205478E0
2.149992208E0,-1.714384918E0,-3.721261597E-1,3.534150696E-1,1.789551826E0
2.160000208E0,-1.351988525E0,-3.140469360E-1,4.584965515E-1,1.461751531E0
2.170009208E0,-1.094074860E0,-3.056643677E-1,7.108717346E-1,1.340063106E0
2.180017208E0,-8.869056702E-1,-2.975811768E-1,1.070424042E0,1.421606082E0
2.190026208E0,-4.430786133E-1,-1.357676697E-1,1.504521332E0,1.574273151E0
2.200034208E0,3.192860413E-1,3.393443298E-1,2.231709137E0,2.279829779E0
2.210043208E0,1.310973816E0,1.143023071E0,3.817960510E0,4.195470956E0
2.220052208E0,5.097050629E0,3.341651001E0,7.415429535E0,9.598705731E0
2.230060208E0,1.745130981E1,1.096230377E1,1.173544601E1,2.371583883E1
2.240069208E0,3.978142410E1,1.436712341E1,1.475855942E1,4.479722106E1
2.250077208E0,6.731097610E1,5.807622986E0,7.782765656E0,6.800784830E1
2.260086208E0,7.639498581E1,-1.022628433E1,-5.019960938E0,7.723969676E1
2.270094208E0,5.887706451E1,-7.667056274E0,-1.023167313E1,6.024931213E1
2.280103208E0,3.465698044E1,2.730172577E0,-1.675016785E1,3.858922464E1
2.290112208E0,1.885479126E1,2.740201721E0,-1.252235962E1,2.279959099E1
2.300120208E0,1.076142151E1,4.308041382E-1,5.011129303E0,1.187877106E1
2.310129208E0,1.101110229E1,-1.643282776E0,1.060379929E1,1.537482720E1
2.320137208E0,9.142687683E0,-2.027833099E0,7.038962402E0,1.171528219E1
2.330146208E0,6.113886108E0,-1.716181183E0,3.822750549E0,7.412037706E0
2.340154208E0,3.368744659E0,-1.087189178E0,1.934427338E0,4.033910016E0
2.350163208E0,1.202748871E0,-5.153782654E-1,8.071215820E-1,1.537421494E0
2.360172208E0,-9.262738037E-1,-8.280780029E-1,-2.884801025E0,3.140982855E0
2.370180208E0,-5.267097015E0,-3.874692535E0,-1.198407898E1,1.365187541E1
2.380189208E0,-6.026168518E0,-2.863694916E0,-9.991871796E0,1.201469756E1
2.390197208E0,-5.241350555E0,-6.695576477E-1,-6.210285645E0,8.153999686E0
2.400206208E0,-5.559588776E0,6.093827820E-1,-2.035018158E0,5.951611012E0
2.410214208E0,-4.363276520E0,1.102457428E0,4.899311829E-1,4.526988727E0
2.420223208E0,-3.853586426E0,1.352437592E0,1.711989899E0,4.428332101E0
2.430232208E0,-3.773353271E0,1.401685181E0,2.157912598E0,4.567220493E0
2.440240208E0,-3.070864105E0,1.051263885E0,1.440155182E0,3.550972973E0
2.450249208E0,-2.699486389E0,6.985972595E-1,9.433383179E-1,2.943663037E0
2.460257208E0,-2.380499725E0,3.869453430E-1,8.105644226E-1,2.544311365E0
2.470266208E0,-2.194286957E0,1.975891113E-1,1.165626068E0,2.492512956E0
2.480274208E0,-1.868115234E0,-2.155517578E-2,1.171014862E0,2.204902483E0
2.490283208E0,-1.564696198E0,-1.576222229E-1,1.207089844E0,1.982469381E0
2.500292208E0,-1.212029572E0,-1.113684082E-1,1.367556152E0,1.830745322E0
2.510300208E0,-7.858657837E-1,1.332229614E-2,2.006277924E0,2.154742124E0
2.520309208E0,-1.272354126E-1,3.321592712E-1,2.801424408E0,2.823915251E0
2.530317208E0,7.390132141E-1,9.175918579E-1,3.711082764E0,3.893616651E0
2.540326208E0,1.982178040E0,1.665736084E0,5.254972229E0,5.858194228E0
2.550334208E0,6.805148621E0,4.090693359E0,9.111402740E0,1.208558976E1
2.560343208E0,2.104129440E1,9.419312439E0,1.303908508E1,2.648541593E1
2.570352208E0,4.328324203E1,1.010054581E1,1.229138992E1,4.611440483E1
2.580360208E0,6.466118637E1,-7.671546936E-1,3.086431732E0,6.473935133E1
2.590369208E0,6.886414627E1,-1.387569534E1,-5.231620789E0,7.044271019E1
2.600377208E0,5.235752197E1,-8.086334381E0,-7.473209381E0,5.350278282E1
2.610386208E0,3.246838165E1,2.650687866E0,-8.379275208E0,3.363679840E1
2.620394208E0,1.935085968E1,4.698579254E0,-1.122291183E1,2.285795633E1
2.630403208E0,1.050754944E1,3.024161224E0,-8.031248932E0,1.356669104E1
2.640412208E0,3.766766968E0,1.438957672E0,2.990780640E0,5.020348734E0
2.650420208E0,5.290149078E0,-7.574249268E-1,7.415728912E0,9.140700471E0
2.660429208E0,5.119803314E0,-1.554816742E0,4.305496674E0,6.867833915E0
2.670437208E0,3.417992249E0,-1.500629425E0,2.422861633E0,4.450260462E0
2.680446208E0,1.815125427E0,-1.009650421E0,1.531016235E0,2.580326530E0
2.690454208E0,5.207670593E-1,-4.183799744E-1,8.566685486E-1,1.086333805E0
2.700463208E0,-2.246977386E0,-5.769003296E-1,-4.473597107E0,5.039324602E0
2.710472208E0,-5.548811188E0,-1.059047699E0,-1.012210098E1,1.159171324E1
2.720480208E0,-5.099295959E0,-1.508862305E-1,-7.361691284E0,8.956566558E0
2.730489208E0,-3.979175262E0,6.439608765E-1,-3.692820740E0,5.466758308E0
2.740497208E0,-3.386557617E0,1.233884125E0,2.395019531E-3,3.604337424E0
2.750506208E0,-2.896177368E0,1.542691956E0,2.664608917E0,4.227041814E0
2.760514208E0,-2.679128723E0,1.658551025E0,3.877386932E0,4.996263768E0
2.770523083E0,-2.853516083E0,1.705403595E0,3.962559814E0,5.172314350E0
2.780532083E0,-2.553839264E0,1.254690857E0,2.716550903E0,3.933953856E0
2.790540083E0,-1.967358856E0,6.638694763E-1,1.195563812E0,2.395954169E0
2.800549083E0,-1.732048187E0,3.306623840E-1,4.144880676E-1,1.811388664E0
2.810557083E0,-1.553918610E0,3.158432007E-2,3.553610229E-1,1.594346911E0
2.820566083E0,-1.210832062E0,-2.390528870E-1,7.512876892E-1,1.444885378E0
2.830574083E0,-5.992039490E-1,-6.213578796E-1,1.207688599E0,1.484467156E0
2.840583083E0,-2.993774414E-3,-7.093748474E-1,1.730102234E0,1.869886461E0
2.850592083E0,5.007087708E-1,-5.364843750E-1,2.219584351E0,2.337750938E0
2.860600083E0,1.583706665E0,-2.031275940E-1,3.152743835E0,3.534003581E0
2.870609083E0,5.777984619E0,8.532257080E-1,4.404740295E0,7.315383615E0
2.880617083E0,1.812236435E1,2.495760040E0,7.852819977E0,1.990767916E1
2.890626083E0,3.723012955E1,2.489173737E0,1.153920410E1,3.905677615E1
2.900634083E0,5.772041977E1,2.043101349E0,1.183633621E1,5.895693323E1
2.910643083E0,6.600494202E1,1.689087524E0,5.286406860E0,6.623784028E1
2.920652083E0,5.242533096E1,1.507215729E0,-1.853146362E0,5.247972158E1
2.930660083E0,3.502686127E1,9.973759460E-1,-1.016685791E0,3.505580436E1
2.940669083E0,2.445120346E1,1.695973206E-1,2.070195007E-1,2.445266797E1
2.950677083E0,1.765264114E1,-5.848338318E-1,7.613168335E-1,1.767872657E1
2.960686083E0,1.224992615E1,-1.181942139E0,-1.418749695E0,1.238832226E1
2.970694083E0,5.631139984E0,-1.987566833E0,-4.790039062E0,7.655366331E0
2.980703083E0,3.331472168E0,-2.763104095E0,4.704716492E-1,4.353710443E0
2.990712083E0,4.025279388E0,-2.825374603E0,2.167792053E0,5.374470968E0
3.000720083E0,3.730242920E0,-2.598446503E0,1.442999268E0,4.769578949E0
3.010729083E0,2.878065033E0,-2.308499451E0,6.075865173E-1,3.739196361E0
3.020737083E0,2.042352905E0,-1.982627106E0,5.343887329E-2,2.846905573E0
3.030746083E0,1.226250000E0,-1.569785614E0,-8.024812317E-1,2.147531621E0
3.040754083E0,-7.448510742E-1,-2.160457306E0,-5.750591583E0,6.188027347E0
3.050763083E0,-2.381697235E0,-1.944905548E0,-6.636599121E0,7.314341201E0
3.060772083E0,-2.309846649E0,-8.957373047E-1,-3.573967896E0,4.348676049E0
3.070780083E0,-1.856888580E0,-2.677931213E-1,-8.584648132E-1,2.063179631E0
3.080789083E0,-1.542392578E0,1.728904724E-1,1.444795532E0,2.120448092E0
3.090797083E0,-1.361718292E0,4.522096252E-1,2.491119690E0,2.874795221E0
3.100806083E0,-1.399439850E0,5.619314575E-1,2.567910004E0,2.977979289E0
3.110814083E0,-1.485810242E0,5.010081482E-1,2.360740814E0,2.834032186E0
3.120823083E0,-1.552870789E0,3.932322693E-1,2.218386841E0,2.736289363E0
3.130832083E0,-1.562750244E0,2.583627319E-1,2.013762360E0,2.562065274E0
3.140840083E0,-1.500779114E0,9.235794067E-2,1.783990173E0,2.333128560E0
3.150849083E0,-1.276695099E0,-2.243833923E-1,1.568887482E0,2.035118231E0
3.160857083E0,-6.430627441E-1,-8.116122437E-1,1.833686829E0,2.105861228E0
3.170866083E0,8.113128662E-2,-1.198258209E0,2.587519226E0,2.852658544E0
3.180874083E0,8.122109985E-1,-1.229243774E0,3.368295593E0,3.676430629E0
3.190883083E0,2.067051544E0,-9.876461792E-1,4.616849213E0,5.153973585E0
3.200892083E0,4.915927277E0,-7.985893250E-1,7.991581421E0,9.416446225E0
3.210900083E0,1.209903992E1,-3.832031250E-1,1.259690460E1,1.747042121E1
3.220909083E0,2.566996902E1,9.401948547E-1,1.493219833E1,2.971198114E1
3.230917083E0,4.478327271E1,2.801574097E0,1.094089828E1,4.618542613E1
3.240926083E0,6.094576263E1,2.769840088E0,-1.501377869E-1,6.100885623E1
3.250935083E0,6.086223633E1,-1.773811340E0,-1.740565475E1,6.332704821E1
3.260943083E0,4.032090225E1,-2.153421936E0,-2.204271194E1,4.600319048E1
3.270952083E0,2.513049088E1,-4.472698975E-1,-5.572761383E0,2.574484980E1
3.280960083E0,1.808299622E1,-5.959107971E-1,6.270011444E0,1.914844394E1
3.290969083E0,1.085422852E1,3.462300110E-1,1.072639435E1,1.526399972E1
3.300977083E0,9.547745361E0,-5.822891235E-1,7.346273346E0,1.206093836E1
3.310986083E0,7.898175659E0,-1.090931396E0,3.810625763E0,8.836977920E0
3.320995083E0,5.589526520E0,-9.141490173E-1,1.344504089E0,5.821182559E0
3.331003083E0,3.763174438E0,-6.976991272E-1,1.829196167E-1,3.831673983E0
3.341012083E0,2.211800537E0,-5.707630920E-1,-1.043180695E0,2.511186589E0
3.351020083E0,3.929328918E-1,-5.692662048E-1,-4.190386047E0,4.247092593E0
3.361029083E0,-1.667682037E0,-7.982899475E-1,-6.667285309E0,6.918896126E0
3.371037083E0,-2.261646881E0,-6.460565186E-1,-5.063819733E0,5.583431375E0
3.381046083E0,-2.045496368E0,-2.177970886E-1,-2.341131592E0,3.116470455E0
3.391055083E0,-1.845661926E0,1.365161133E-1,-4.902305603E-1,1.914531430E0
3.401063083E0,-1.788331146E0,3.583547974E-1,1.130598907E0,2.145879852E0
3.411072083E0,-1.774859161E0,4.833448792E-1,1.829196167E0,2.594167676E0
3.421080083E0,-1.823657684E0,5.605842590E-1,1.705253906E0,2.558881190E0
3.431089083E0,-1.972747650E0,6.002517700E-1,1.632355499E0,2.629946759E0
3.441097083E0,-2.168690186E0,5.668711853E-1,1.623972931E0,2.768004361E0
3.451106083E0,-2.291884003E0,3.863465881E-1,1.558409271E0,2.798327255E0
3.461115083E0,-2.515518951E0,1.137634277E-1,1.566193085E0,2.965423830E0
3.471123083E0,-2.790796509E0,1.085243225E-1,1.870360565E0,3.361334754E0
3.481132083E0,-2.680475922E0,6.750961304E-2,1.692380676E0,3.170750868E0
3.491140083E0,-2.257305908E0,-1.357676697E-1,1.213376770E0,2.566348770E0
3.501149083E0,-1.570084991E0,-3.376977539E-1,8.930429077E-1,1.837588716E0
3.511157083E0,-9.701325989E-1,-4.821473694E-1,1.108594666E0,1.550034025E0
3.521166083E0,-5.144801331E-1,-5.599855042E-1,1.648072815E0,1.815053050E0
3.531175083E0,-2.469863892E-1,-4.694238281E-1,2.321073303E0,2.380912070E0
3.541183083E0,1.422042847E-2,-3.213816833E-1,3.478316803E0,3.493161346E0
3.551192083E0,5.213658142E-1,-1.715432739E-1,6.073470154E0,6.098220160E0
3.561200083E0,3.991300049E0,9.520202637E-2,8.990454254E0,9.837062936E0
3.571209083E0,2.159963333E1,5.845344543E-1,1.405981247E1,2.577914210E1
3.581218083E0,5.230123901E1,3.472778320E-1,1.485361176E1,5.437067212E1
3.591226083E0,7.749923950E1,2.754122772E0,1.035097504E0,7.755506910E1
3.601235083E0,7.086024536E1,1.747765503E0,-1.373334137E1,7.219995652E1
3.611243083E0,5.102229858E1,3.929328918E-1,-1.210248276E1,5.243948358E1
3.621252083E0,3.214804779E1,9.235794067E-2,-6.352489929E0,3.276979760E1
3.631260083E0,1.973810440E1,-7.447013855E-1,-6.948550415E0,2.093871291E1
3.641269083E0,8.551866302E0,-1.780547333E0,-5.164709930E0,1.014785666E1
3.651278083E0,5.576653290E0,-3.541784821E0,5.809269562E0,8.797210607E0
3.661286083E0,7.302115173E0,-4.220922546E0,5.168901215E0,9.892149054E0
3.671295083E0,5.544021149E0,-3.491040344E0,2.692451019E0,7.083277890E0
3.681303083E0,3.059188385E0,-2.430346069E0,1.458566895E0,4.170447575E0
3.691312083E0,1.195264435E0,-1.413510590E0,7.990383911E-1,2.016217153E0
3.701320083E0,-6.676116943E-2,-5.312452698E-1,3.944297791E-1,6.650213839E-1
3.711329083E0,-1.826352081E0,-5.863307190E-1,-2.332000580E0,3.019531808E0
3.721338083E0,-4.746030579E0,-1.477577362E0,-7.611372070E0,9.090710968E0
3.731346083E0,-4.733157349E0,-6.279441833E-1,-6.040089569E0,7.699335971E0
3.741355083E0,-3.840114441E0,3.011737061E-1,-2.806513824E0,4.765889672E0
3.751363083E0,-3.304228821E0,8.116122437E-1,-9.430389404E-2,3.403753187E0
3.761372083E0,-3.043620758E0,1.103056183E0,1.624272308E0,3.621963665E0
3.771379333E0,-2.923420715E0,1.239123230E0,2.506088562E0,4.045033367E0
3.781388333E0,-2.993025970E0,1.167122955E0,2.784808960E0,4.251534005E0
3.791397333E0,-3.000360718E0,1.009800110E0,2.402503967E0,3.974152238E0
3.801405333E0,-2.953807526E0,8.168513489E-1,2.033371582E0,3.677883225E0
3.811414333E0,-2.841840363E0,4.111949158E-1,1.828148346E0,3.404007092E0
3.821422333E0,-2.577490082E0,1.357676697E-1,1.745819550E0,3.116051008E0
3.831431333E0,-2.287393341E0,2.260299683E-1,1.658551025E0,2.834439865E0
3.841439333E0,-1.855242004E0,5.393284607E-1,1.568737793E0,2.488721830E0
3.851448333E0,-7.714956665E-1,5.008584595E-1,1.733994141E0,1.962855175E0
3.861457333E0,-2.050735474E-2,5.372328186E-1,2.241289215E0,2.304868109E0
3.871465333E0,4.905299377E-1,5.956114197E-1,2.139800262E0,2.274668711E0
3.881474333E0,2.686912537E-1,1.227597198E0,2.510429535E0,2.807391373E0
3.891482333E0,8.479866028E-1,2.448458405E0,4.730313263E0,5.393504742E0
3.901491333E0,5.355413361E0,7.825277252E0,6.298302612E0,1.138349824E1
3.911500333E0,2.449521194E1,1.464509537E1,1.092158844E1,3.055773749E1
3.921508333E0,5.578075333E1,1.260379028E1,8.060587921E0,5.775223847E1
3.931517333E0,7.845200821E1,-3.833228760E0,-5.247637482E0,7.872070207E1
3.941525333E0,7.356033051E1,-1.819855591E1,-1.371388184E1,7.700896192E1
3.951534333E0,4.634916641E1,-8.789571991E0,-1.355940308E1,4.908522400E1
3.961542333E0,2.632261185E1,-5.715115356E-1,-5.860014038E0,2.697306591E1
3.971551333E0,1.432341431E1,3.402424622E-1,2.624342651E0,1.456582084E1
3.981560333E0,8.371341705E0,-3.492237854E-1,7.031927032E0,1.093843302E1
3.991568333E0,7.221732330E0,-1.360520782E0,5.142406311E0,8.969324240E0
4.001577333E0,4.959337006E0,-1.646126862E0,2.672392731E0,5.869108969E0
4.011585333E0,2.566712494E0,-1.437460785E0,1.116079102E0,3.146416866E0
4.021594333E0,5.414241028E-1,-1.051114197E0,5.523513794E-1,1.305018452E0
4.031603333E0,-8.861572266E-1,-5.480104065E-1,-5.267546082E-1,1.167501800E0
4.041611333E0,-3.516188049E0,-1.522933044E0,-5.690416718E0,6.860302171E0
4.051620333E0,-5.986351318E0,-2.442171478E0,-8.791068878E0,1.091253846E1
4.061628333E0,-5.569767609E0,-1.200653229E0,-6.299799500E0,8.494195261E0
4.071637333E0,-4.668192444E0,-3.667373657E-2,-3.552412720E0,5.866259608E0
4.081645333E0,-4.072431335E0,7.917036438E-1,-6.713539124E-1,4.202642944E0
4.091654333E0,-3.794010315E0,1.294657745E0,1.425785065E0,4.254822675E0
4.101663333E0,-3.652255096E0,1.518143005E0,2.317929840E0,4.584378280E0
4.111671333E0,-4.028422852E0,1.770967255E0,2.705473938E0,5.165665970E0
4.121680333E0,-3.776197357E0,2.022144928E0,2.533930664E0,4.976900763E0
4.131688333E0,-3.300037537E0,1.658850403E0,1.681752777E0,4.058364795E0
4.141697333E0,-3.447480927E0,1.409019928E0,1.040186920E0,3.866839889E0
4.151705333E0,-3.289409637E0,1.268611908E0,7.345225525E-1,3.601265794E0
4.161714333E0,-2.615061951E0,1.065484314E0,6.664141846E-1,2.901364109E0
4.171723333E0,-2.047741699E0,8.159532166E-1,8.942404175E-1,2.378800463E0
4.181731333E0,-1.351240082E0,3.793112183E-1,1.737137604E0,2.233242892E0
4.191740333E0,-7.470964050E-1,1.850152588E-1,2.517315216E0,2.632348682E0
4.201748333E0,-2.812651062E-1,2.932402039E-1,3.163820801E0,3.189805940E0
4.211757333E0,1.859133911E-1,7.423063660E-1,4.687202911E0,4.749258222E0
4.221766333E0,1.608704681E0,2.369422760E0,9.835896149E0,1.024436177E1
4.231774333E0,7.774083710E0,6.636150055E0,1.217448303E1,1.589631725E1
4.241783333E0,3.236958710E1,7.647447052E0,1.638432861E1,3.707721456E1
4.251791333E0,6.539690643E1,3.721261597E0,8.434210968E0,6.604346352E1
4.261800333E0,7.928861847E1,-5.161267090E0,-1.370998993E1,8.063056195E1
4.271809333E0,6.757098541E1,-8.878187714E0,-2.105386826E1,7.132969687E1
4.281817333E0,3.893688034E1,-1.909878387E0,-1.875060791E1,4.325868217E1
4.291826333E0,2.220497452E1,-1.296304321E-1,-1.087144272E1,2.472379348E1
4.301834333E0,1.080183746E1,-8.601113892E-1,5.275030518E-1,1.084885909E1
4.311843333E0,6.966363373E0,-2.448907471E0,8.978179779E0,1.162476144E1
4.321851333E0,7.030879211E0,-3.202590179E0,5.717510376E0,9.611439603E0
4.331860333E0,4.773573303E0,-2.948119354E0,1.912872162E0,5.927688396E0
4.341869333E0,1.454076233E0,-2.882106628E0,-4.857398987E0,5.832255244E0
4.351877333E0,-4.721930695E0,-5.156177673E0,-1.730671051E1,1.866561080E1
4.361886333E0,-6.884184265E0,-3.989653473E0,-1.187360870E1,1.429307215E1
4.371894333E0,-6.386918335E0,-1.664688263E0,-5.122797089E0,8.355056124E0
4.381903333E0,-5.447322235E0,-4.893324280E-1,-8.807684326E-1,5.539721905E0
4.391911333E0,-4.883145447E0,2.770738220E-1,2.222278748E0,5.372187840E0
4.401920333E0,-4.407135315E0,7.679031372E-1,3.072061615E0,5.426792743E0
4.411929333E0,-3.400778046E0,7.523355103E-1,2.484982452E0,4.278602321E0
4.421937333E0,-2.818937988E0,7.098239136E-1,2.347568207E0,3.736487369E0
4.431946333E0,-2.525398407E0,5.577401733E-1,1.948797455E0,3.238290094E0
4.441954333E0,-2.463277588E0,4.267625427E-1,1.287921753E0,2.812224242E0
4.451963333E0,-2.322570190E0,3.363505554E-1,9.566606140E-1,2.534297440E0
4.461971333E0,-2.322121124E0,3.727249146E-2,1.073417816E0,2.558488140E0
4.471980333E0,-2.354154510E0,-4.071533203E-1,1.355431366E0,2.746818427E0
4.481989333E0,-2.157463531E0,-5.168751526E-1,1.693129120E0,2.790787529E0
4.491997333E0,-1.914069672E0,-5.342390442E-1,1.981579285E0,2.806373198E0
4.502006333E0,-1.607357483E0,-5.176235962E-1,1.957030334E0,2.584859763E0
4.512014333E0,-1.201701050E0,-3.731739807E-1,2.047592010E0,2.403326294E0
4.522023333E0,-5.697152710E-1,-1.239422607E-1,2.544259186E0,2.610209183E0
4.532032333E0,1.881587219E-1,3.499722290E-1,3.812272339E0,3.832923773E0
4.542040333E0,9.656419373E-1,1.106948090E0,5.963748322E0,6.141994177E0
4.552049333E0,2.573448486E0,1.248852997E0,8.997339935E0,9.441101463E0
4.562057333E0,9.096882935E0,3.125051422E0,1.067026108E1,1.436571255E1
4.572066333E0,2.820270218E1,5.419330444E0,1.500883896E1,3.240411702E1
4.582075333E0,5.553077316E1,2.405048676E0,1.147453857E1,5.675487699E1
4.592083333E0,7.778529465E1,-1.161734161E0,-4.129612427E0,7.790350049E1
4.602092333E0,6.797499527E1,-2.109563141E0,-1.396206573E1,6.942614434E1
4.612100333E0,4.516288330E1,2.044448547E0,-8.854387207E0,4.606805803E1
4.622109333E0,2.831002899E1,2.696342926E0,-3.789968719E0,2.868957772E1
4.632117333E0,1.765039581E1,1.526226196E0,-5.453010406E0,1.853648190E1
4.642126333E0,5.739364929E0,5.378315735E-1,-1.157333313E1,1.292948616E1
4.652135333E0,4.071832581E0,-2.475851440E0,2.635269928E0,5.445576968E0
4.662143333E0,7.307204590E0,-3.773353271E0,4.784799957E0,9.514606900E0
4.672152333E0,5.831573181E0,-3.217858429E0,2.919977875E0,7.272422528E0
4.682160333E0,3.649411011E0,-2.363435211E0,1.725012817E0,4.677573724E0
4.692169333E0,1.914069672E0,-1.509011993E0,1.128203888E0,2.685819040E0
4.702178333E0,6.996450806E-1,-6.842271423E-1,7.417076111E-1,1.227925161E0
4.712186333E0,-6.947053528E-1,-3.014730835E-1,-1.125359802E0,1.356442491E0
4.722195333E0,-3.414848785E0,-5.322930908E-1,-5.997278595E0,6.921840702E0
4.732203333E0,-4.247567139E0,-5.643264771E-2,-6.190377045E0,7.507714645E0
4.742212333E0,-3.661386108E0,7.053332520E-1,-4.170178070E0,5.594070823E0
4.752220333E0,-3.127895508E0,1.242715759E0,-2.009870453E0,3.920159691E0
4.762229333E0,-2.914140015E0,1.651365967E0,1.847158813E-1,3.354600056E0
4.772242583E0,-2.819387054E0,2.027683411E0,2.050286407E0,4.032879583E0
4.782250583E0,-2.834505615E0,2.192640381E0,3.065475311E0,4.715849108E0
4.792259583E0,-3.041525116E0,2.285597076E0,3.061733093E0,4.883547743E0
4.802267583E0,-2.968926086E0,1.958976288E0,2.013612671E0,4.087388676E0
4.812276583E0,-2.198478241E0,1.173260193E0,4.619393921E-1,2.534410002E0
4.822285583E0,-1.780247955E0,5.592370605E-1,-1.558259583E-1,1.872514513E0
4.832293583E0,-1.414558411E0,-9.729766846E-3,2.609074402E-1,1.438451549E0
4.842302583E0,-8.466394043E-1,-3.858975220E-1,7.447013855E-1,1.191761441E0
4.852310583E0,-2.598596191E-1,-6.776408386E-1,9.309141541E-1,1.180392007E0
4.862319583E0,1.754351807E-1,-5.935157776E-1,1.456321564E0,1.582375107E0
4.872327583E0,5.141807556E-1,-1.333726501E-1,2.149979095E0,2.214628688E0
4.882336583E0,1.272653503E0,5.504054260E-1,2.947520599E0,3.257371756E0
4.892345583E0,4.145180054E0,2.101180573E0,4.418511658E0,6.412544171E0
4.902353583E0,1.328517334E1,5.448968811E0,7.726632385E0,1.630607064E1
4.912362583E0,3.094005981E1,7.592960358E0,1.082429077E1,3.364677725E1
4.922370583E0,5.396712479E1,4.533622284E0,8.486003265E0,5.481803116E1
4.932379583E0,7.100095276E1,-4.951104126E0,1.310075684E0,7.118542704E1
4.942388583E0,6.396468475E1,-9.834848328E0,-4.630919952E0,6.488181993E1
4.952396583E0,4.104180313E1,-2.275418243E0,-4.336631927E0,4.133295911E1
4.962405583E0,2.593985779E1,1.531315613E0,-5.109474792E0,2.648259584E1
4.972413583E0,1.722572891E1,9.954299927E-1,-5.228177948E0,1.802915589E1
4.982422583E0,1.021565643E1,-1.360670471E-1,-2.375260620E0,1.048904255E1
4.992431583E0,4.787344666E0,-9.443861389E-1,3.158731384E0,5.812754776E0
5.002439583E0,5.037624207E0,-1.771116943E0,5.081782379E0,7.371500866E0
5.012448583E0,4.622537384E0,-1.936522980E0,3.140768738E0,5.914592241E0
5.022456583E0,3.446133728E0,-1.749412079E0,1.690285034E0,4.218215712E0
5.032465583E0,2.251018982E0,-1.404080200E0,8.283773804E-1,2.779341064E0
5.042473583E0,1.230441284E0,-1.036744080E0,2.016307068E-1,1.621566829E0
5.052482583E0,2.631527710E-1,-7.262896729E-1,-1.010997620E0,1.272345180E0
5.062491583E0,-1.777403870E0,-1.025966492E0,-4.802014160E0,5.222175002E0
5.072499583E0,-3.182531891E0,-1.113384705E0,-6.197562103E0,7.055346254E0
5.082508583E0,-2.989283752E0,-4.131408691E-1,-3.493285675E0,4.616226548E0
5.092516583E0,-2.578388214E0,1.996847534E-1,-1.283730469E0,2.887199976E0
5.102525583E0,-2.267634430E0,6.170169067E-1,4.462220764E-1,2.392068125E0
5.112534583E0,-2.151026917E0,7.810757446E-1,1.553319855E0,2.765826944E0
5.122542583E0,-2.096989288E0,8.319699097E-1,2.055076447E0,3.051700707E0
5.132551583E0,-2.075583801E0,9.024732971E-1,2.150128784E0,3.121787942E0
5.142559583E0,-2.184257813E0,8.394543457E-1,2.011517029E0,3.085752185E0
5.152568583E0,-2.264041901E0,7.566764832E-1,1.862726440E0,3.027902710E0
5.162577583E0,-2.142943726E0,5.270539856E-1,1.489851837E0,2.662640083E0
5.172585583E0,-1.669627991E0,8.442443848E-2,9.461824036E-1,1.920949311E0
5.182594583E0,-1.134191437E0,-3.799099731E-1,9.874964905E-1,1.551087077E0
5.192602583E0,-4.438270569E-1,-7.277865601E-1,1.674118652E0,1.878650845E0
5.202611583E0,1.555265808E-1,-7.107220459E-1,2.482437744E0,2.586853590E0
5.212619583E0,5.798941040E-1,-4.391867065E-1,3.333867188E0,3.412306047E0
5.222628583E0,1.473685455E0,-1.704954529E-1,4.884043579E0,5.104380394E0
5.232637583E0,5.545817413E0,8.463400269E-1,7.083719330E0,9.036119840E0
5.242645583E0,1.699610641E1,2.708617401E0,1.137065460E1,2.062755506E1
5.252654583E0,3.635400146E1,4.128714294E0,1.219484070E1,3.856648602E1
5.262662583E0,5.898903168E1,3.095862122E0,6.291267242E0,5.940429500E1
5.272671583E0,6.900814682E1,-3.860172729E0,-7.635771332E0,6.953653906E1
5.282680583E0,5.316629013E1,-7.609426117E0,-1.586191498E1,5.600141176E1
5.292688583E0,3.195704498E1,-2.745440826E0,-4.243076477E0,3.235419397E1
5.302697583E0,2.199166809E1,-1.313368835E0,4.187392273E0,2.242526827E1
5.312705583E0,1.444810501E1,-1.270707550E0,8.108488312E0,1.661655857E1
5.322714583E0,9.428443451E0,-1.349294128E0,7.269782410E0,1.198189788E1
5.332723583E0,6.758745117E0,-1.506616974E0,4.436623993E0,8.223999193E0
5.342731583E0,4.571942596E0,-1.399439850E0,2.377056885E0,5.339615195E0
5.352740583E0,2.749332733E0,-1.070274353E0,1.353335724E0,3.245895138E0
5.362748583E0,1.472637634E0,-7.574249268E-1,7.203021240E-1,1.805876317E0
5.372757583E0,6.120771790E-1,-5.158273315E-1,3.314108276E-1,8.663425683E-1
5.382765583E0,1.227447510E-1,-3.206332397E-1,9.624984741E-2,3.565613292E-1
5.392774583E0,-1.969903564E-1,-1.679507446E-1,-4.864883423E-2,2.633996246E-1
5.402783583E0,-4.128414917E-1,-4.355941772E-2,6.286926270E-3,4.151807385E-1
5.412791583E0,-6.206094360E-1,9.190887451E-2,1.803749084E-1,6.527927856E-1
5.422800583E0,-7.767347717E-1,1.968406677E-1,3.022215271E-1,8.563883497E-1
5.432808583E0,-8.881031799E-1,2.689906311E-1,3.966751099E-1,1.009175089E0
5.442817583E0,-9.740245056E-1,2.935395813E-1,5.120851135E-1,1.138911931E0
5.452826583E0,-1.135838013E0,2.481838989E-1,6.572831726E-1,1.335568945E0
5.462834583E0,-1.559457092E0,1.734892273E-1,3.758683777E-1,1.613468925E0
5.472843583E0,-2.117197266E0,8.173004150E-2,-5.409750366E-1,2.186745996E0
5.482851583E0,-2.473456421E0,-4.849914551E-2,-1.147064667E0,2.726920641E0
5.492860583E0,-2.664908295E0,-1.543290710E-1,-8.756790161E-1,2.809335761E0
5.502868583E0,-2.396516418E0,-8.816665649E-2,9.639953613E-2,2.400074410E0
5.512877583E0,-1.658551025E0,-2.014810181E-1,1.072519684E0,1.985367618E0
5.522886583E0,-8.120613098E-1,-5.013075256E-1,1.487606506E0,1.767406553E0
5.532894583E0,-1.938468933E-1,-4.917274475E-1,1.588646393E0,1.674266963E0
5.542903583E0,2.103126526E-1,-3.020718384E-1,1.606159973E0,1.647795092E0
5.552911583E0,5.367837524E-1,-6.361770630E-2,1.766775970E0,1.847615041E0
5.562920583E0,1.127455444E0,3.872447205E-1,2.773582306E0,3.018919187E0
5.572929583E0,4.446653137E0,7.512876892E-1,4.661905518E0,6.486179181E0
5.582937583E0,1.448358124E1,1.511856079E-2,9.238039398E0,1.717893262E1
5.592946583E0,2.968087830E1,4.065545654E-1,1.310854065E1,3.244924746E1
5.602954583E0,4.962270905E1,2.140548706E0,1.267474274E1,5.126055311E1
5.612963583E0,6.155514542E1,1.046922913E0,6.331832886E0,6.188880418E1
5.622972583E0,5.525145401E1,-2.645598450E0,-5.233417053E0,5.556177657E1
5.632980583E0,3.747696625E1,-1.841620331E0,-1.000893631E1,3.883417787E1
5.642989583E0,2.614957169E1,-5.219645691E-1,-4.790488129E0,2.658987256E1
5.652997583E0,1.996278717E1,-1.406475220E0,1.346150665E0,2.005749650E1
5.663006583E0,1.502186188E1,-1.728156281E0,4.158502350E0,1.568234677E1
5.673015583E0,1.065334625E1,-1.444496155E0,5.353467407E0,1.200999454E1
5.683023583E0,6.665189667E0,-1.021326141E0,6.221063232E0,9.174393066E0
5.693032583E0,4.596341858E0,-8.967851257E-1,4.810696106E0,6.713671057E0
5.703040583E0,4.062102814E0,-8.425978088E-1,2.630928955E0,4.912477736E0
5.713049583E0,3.657793579E0,-7.891589355E-1,1.153201904E0,3.915622597E0
5.723058583E0,3.175646210E0,-8.149053955E-1,2.757266235E-1,3.290110154E0
5.733066583E0,2.725532227E0,-8.496331787E-1,-4.972659302E-1,2.897874370E0
5.743075583E0,2.222877502E0,-8.006849670E-1,-1.003812561E0,2.567084039E0
5.753083583E0,1.615141296E0,-6.580316162E-1,-1.254690857E0,2.148472984E0
5.763092583E0,1.030307465E0,-4.486170959E-1,-1.172661438E0,1.624169209E0
5.773096625E0,5.228627014E-1,-2.409988403E-1,-6.536906433E-1,8.710782414E-1
5.783105625E0,5.912704468E-2,-7.005432129E-2,-7.484436035E-2,1.183439632E-1
5.793114625E0,-2.899470520E-1,9.086105347E-2,1.763333130E-1,3.513096373E-1
5.803122625E0,-5.084925842E-1,2.116598511E-1,3.592529297E-1,6.575920227E-1
5.813131625E0,-6.695576477E-1,3.053649902E-1,4.763095093E-1,8.765990928E-1
5.823139625E0,-7.758366394E-1,3.064128113E-1,5.769003296E-1,1.014211660E0
5.833148625E0,-9.003776550E-1,2.616558838E-1,7.014413452E-1,1.170966987E0
5.843157625E0,-1.108744354E0,2.079176331E-1,7.967930603E-1,1.381094843E0
5.853165625E0,-1.273551636E0,1.405577087E-1,8.912466431E-1,1.560772507E0
5.863174625E0,-1.417252808E0,2.619552612E-2,9.553134155E-1,1.709361123E0
5.873182625E0,-1.424138489E0,-7.214996338E-2,9.351054382E-1,1.705226739E0
5.883191625E0,-9.848020935E-1,-1.960922241E-1,1.111887817E0,1.498192859E0
5.893200625E0,-2.011816406E-1,-2.827619934E-1,1.520238647E0,1.559344074E0
5.903208625E0,2.318678284E-1,1.601669312E-2,1.692829742E0,1.708710555E0
5.913217625E0,7.348219299E-1,5.616320801E-1,2.181413727E0,2.369379604E0
5.923225625E0,1.628463593E0,1.557660828E0,3.124003601E0,3.851960465E0
5.933234625E0,3.653153229E0,2.295925598E0,4.440066833E0,6.191203142E0
5.943243625E0,1.019709503E1,1.631756744E0,7.338639221E0,1.266882010E1
5.953251625E0,2.238729538E1,2.700384521E-1,1.146929947E1,2.515569012E1
5.963260625E0,4.057148117E1,-7.623646545E-1,1.395278503E1,4.291044738E1
5.973268625E0,5.972999084E1,-1.072220306E0,1.184711380E1,6.090300131E1
5.983277625E0,6.470639236E1,1.542242889E0,2.340383148E0,6.476706817E1
5.993286625E0,4.952346542E1,2.727627869E0,-5.636678467E0,4.991778967E1
6.003294625E0,3.224729141E1,5.568420410E-2,-5.051096191E0,3.264053426E1
6.013303625E0,2.215527786E1,-1.161734161E0,-4.547842712E0,2.264704918E1
6.023311625E0,1.532363434E1,-1.978136444E0,-4.850513306E0,1.619426665E1
6.033320625E0,9.649982758E0,-2.700234833E0,-5.482948151E0,1.142261598E1
6.043328625E0,4.298610992E0,-3.120261383E0,-2.782114563E0,5.996186205E0
6.053337625E0,2.154020691E0,-3.297941895E0,4.279600525E0,5.816459965E0
6.063346625E0,3.228336639E0,-2.982248383E0,4.232747955E0,6.101812692E0
6.073354625E0,3.339405670E0,-2.696492615E0,2.500250702E0,4.967288619E0
6.083363625E0,2.708018646E0,-2.375410309E0,1.190624084E0,3.793879918E0
6.093371625E0,1.906435547E0,-1.956132202E0,3.790118408E-1,2.757643861E0
6.103380625E0,9.466314697E-1,-1.537901917E0,-5.336402893E-1,1.883089324E0
6.113389625E0,-8.032296753E-1,-1.596879272E0,-3.801644440E0,4.200916777E0
6.123397625E0,-2.007625122E0,-1.200952606E0,-4.656516724E0,5.211141314E0
6.133406625E0,-1.893712006E0,-4.869374084E-1,-2.310295715E0,3.026668051E0
6.143414625E0,-1.633253632E0,2.844085693E-2,-2.097138977E-1,1.646908081E0
6.153423625E0,-1.477727051E0,3.659889221E-1,1.079854431E0,1.866470123E0
6.163432625E0,-1.342558136E0,5.445675659E-1,1.821412354E0,2.327350241E0
6.173440625E0,-1.326541443E0,6.526428223E-1,1.880838776E0,2.392323003E0
6.183449625E0,-1.384021912E0,6.879693604E-1,1.594484253E0,2.220630209E0
6.193457625E0,-1.421893158E0,7.298822021E-1,1.345851288E0,2.089455400E0
6.203466625E0,-1.433568878E0,7.819738770E-1,1.157692566E0,2.001713004E0
6.213474625E0,-1.419198761E0,7.846682739E-1,1.000818787E0,1.905641012E0
6.223483625E0,-1.391057281E0,7.402107239E-1,1.031055908E0,1.883090163E0
6.233492625E0,-9.391470337E-1,5.984555054E-1,1.276994476E0,1.694361542E0
6.243500625E0,-1.275347900E-1,2.656974792E-1,1.808988190E0,1.832838930E0
6.253509625E0,9.490264893E-2,2.927911377E-1,2.214345245E0,2.235633697E0
6.263517625E0,4.986131287E-1,6.914122009E-1,2.713856506E0,2.844588375E0
6.273526625E0,1.343156891E0,1.717827759E0,3.752696228E0,4.340245572E0
6.283535625E0,3.932173004E0,3.342698822E0,5.288652191E0,7.389550862E0
6.293543625E0,1.170505920E1,4.070186005E0,8.200397186E0,1.486005852E1
6.303552625E0,2.550291641E1,3.694617004E0,1.070918015E1,2.790583236E1
6.313560625E0,4.312277573E1,1.764979706E0,1.053254745E1,4.442548250E1
6.323569625E0,5.738975739E1,-1.519789581E0,7.067852325E0,5.784331033E1
6.333578625E0,5.667559250E1,-3.055895233E0,-2.043251038E-1,5.675828600E1
6.343586625E0,4.091830994E1,-5.138813782E-1,-3.315754852E0,4.105564994E1
6.353595625E0,2.807995743E1,5.797444153E-1,-1.919159088E0,2.815143485E1
6.363603625E0,2.098980148E1,2.080673218E-2,-2.598596191E-1,2.099142030E1
6.373612625E0,1.607312576E1,-7.150630188E-1,1.044527893E0,1.612289445E1
6.383621625E0,1.215861603E1,-1.330583038E0,1.424437866E0,1.231387097E1
6.393629625E0,8.523724823E0,-1.823807373E0,1.035845947E0,8.777991514E0
6.403638625E0,4.962630157E0,-2.548899536E0,1.279688873E0,5.723826564E0
6.413646625E0,4.672234039E0,-2.855162659E0,2.267784119E0,5.926598479E0
6.423655625E0,4.925956421E0,-2.670446777E0,1.857936401E0,5.903241510E0
6.433664625E0,4.389472046E0,-2.445464630E0,9.623487854E-1,5.116041173E0
6.443672625E0,3.648063812E0,-2.243833923E0,2.716850281E-1,4.291500088E0
6.453681625E0,2.941982117E0,-1.875749359E0,-2.691403198E-1,3.499447234E0
6.463689625E0,2.197131042E0,-1.447938995E0,-5.275030518E-1,2.683686200E0
6.473698625E0,1.390458527E0,-1.011296997E0,-6.566844177E-1,1.840470308E0
6.483707625E0,6.399192810E-1,-5.881269836E-1,-5.774990845E-1,1.043501427E0
6.493715625E0,9.669891357E-2,-2.456391907E-1,-1.682501221E-1,3.130453569E-1
6.503724625E0,-3.059637451E-1,-8.232879639E-3,2.832110596E-1,4.170013164E-1
6.513732625E0,-5.713618469E-1,1.498384094E-1,6.578819275E-1,8.841462207E-1
6.523741625E0,-8.054750061E-1,2.713856506E-1,8.054750061E-1,1.170995364E0
6.533749625E0,-9.954299927E-1,3.348536682E-1,7.765850830E-1,1.306174659E0
6.543758625E0,-1.260977783E0,3.321592712E-1,6.270460510E-1,1.446921387E0
6.553767625E0,-1.583706665E0,3.227288818E-1,1.953437805E-1,1.628017176E0
6.563775625E0,-1.818119202E0,3.128494263E-1,-1.338217163E-1,1.849686581E0
6.573784625E0,-1.788331146E0,2.251318359E-1,3.020718384E-1,1.827583111E0
6.583792625E0,-1.458566895E0,-2.679428101E-2,9.806108093E-1,1.757763601E0
6.593801625E0,-7.839198303E-1,-4.707710266E-1,1.278491364E0,1.571844721E0
6.603810625E0,-1.466949463E-2,-6.777905273E-1,1.842518463E0,1.963285379E0
6.613818625E0,4.436773682E-1,-4.632865906E-1,2.193987579E0,2.285840233E0
6.623827625E0,9.782157898E-1,-1.695973206E-1,2.836451569E0,3.005183336E0
6.633835625E0,2.779420166E0,-2.035766602E-1,4.039350128E0,4.907440206E0
6.643844625E0,8.001760254E0,-2.374063110E-1,6.157295837E0,1.009934755E1
6.653853625E0,1.701766159E1,-4.998106384E-1,9.900411987E0,1.969438433E1
6.663861625E0,3.012231033E1,-1.466949463E-2,1.198617462E1,3.241947219E1
6.673870625E0,4.522365692E1,1.403481445E0,1.135508698E1,4.664854666E1
6.683878625E0,5.455794617E1,2.045047302E0,5.938750305E0,5.491830718E1
6.693887625E0,5.088742905E1,1.006806335E0,-2.805615692E0,5.097465619E1
6.703896625E0,3.602259064E1,-2.234852600E-1,-6.077960815E0,3.653243202E1
6.713904625E0,2.529125656E1,-9.560618591E-1,-3.936364288E0,2.561360335E1
6.723913625E0,1.904115372E1,-1.625320129E0,-3.239263916E-1,1.911314021E1
6.733921625E0,1.417836594E1,-1.803599396E0,1.727707214E0,1.439666641E1
6.743930625E0,1.044258453E1,-1.693278809E0,2.647245026E0,1.090516717E1
6.753939625E0,7.647596741E0,-1.507664795E0,2.973267059E0,8.342607869E0
6.763947625E0,5.381459198E0,-1.299896851E0,3.497776337E0,6.548608572E0
6.773956458E0,3.673810272E0,-1.242416382E0,3.657494202E0,5.330829599E0
6.783964458E0,3.008593597E0,-1.270857239E0,2.760858765E0,4.276570434E0
6.793973458E0,2.764151917E0,-1.284329224E0,1.485660553E0,3.390755764E0
6.803982458E0,2.514171753E0,-1.309027863E0,4.797523499E-1,2.874852321E0
6.813990458E0,2.135309601E0,-1.253343658E0,-2.380050659E-2,2.476082366E0
6.823999458E0,1.658700714E0,-1.093476105E0,-3.359014893E-1,2.014896489E0
6.834007458E0,1.132395172E0,-8.952882385E-1,-6.128256226E-1,1.568252244E0
6.844016458E0,6.463558960E-1,-6.462062073E-1,-5.766009521E-1,1.080660476E0
6.854025458E0,2.664459229E-1,-4.227209473E-1,-1.859133911E-1,5.331512150E-1
6.864033458E0,-1.011895752E-1,-2.254312134E-1,7.664062500E-2,2.587128669E-1
6.874042458E0,-4.041595459E-1,-5.822891235E-2,2.158511353E-1,4.618736379E-1
6.884050458E0,-5.900729370E-1,5.298980713E-2,3.695814514E-1,6.982724682E-1
6.894059458E0,-7.547305298E-1,1.225950623E-1,4.558021545E-1,8.901703915E-1
6.904068458E0,-9.318122864E-1,1.517843628E-1,2.863545227E-1,9.865655287E-1
6.914076458E0,-1.163680115E0,1.302291870E-1,-2.510279846E-1,1.197550041E0
6.924085458E0,-1.245559845E0,1.148112488E-1,-5.643264771E-1,1.372248273E0
6.934093458E0,-1.113085327E0,5.029541016E-2,-3.827540588E-1,1.178129553E0
6.944102458E0,-5.777984619E-1,-3.058140564E-1,6.631210327E-2,6.570925313E-1
6.954111458E0,1.649569702E-1,-6.596781921E-1,5.477110291E-1,8.731400177E-1
6.964119458E0,7.691006470E-1,-7.725434875E-1,8.499325562E-1,1.382289621E0
6.974128458E0,1.391805725E0,-7.325765991E-1,1.223555603E0,1.992706693E0
6.984136458E0,2.366129608E0,-7.337741089E-1,1.994751892E0,3.180570527E0
6.994145458E0,4.527934113E0,-1.020128632E0,3.468736725E0,5.794392481E0
7.004154458E0,7.943231964E0,-1.200503540E0,5.639971619E0,9.815570419E0
7.014162458E0,1.270617737E1,-1.068178711E0,8.186027069E0,1.515252415E1
7.024171458E0,1.971789642E1,-4.697232056E-1,1.038166122E1,2.228889789E1
7.034179458E0,2.875939453E1,1.078058167E0,1.123862915E1,3.089614488E1
7.044188458E0,3.753294983E1,2.730621643E0,9.192534027E0,3.873862800E1
7.054197458E0,4.218811935E1,1.742975464E0,3.475173340E0,4.236687631E1
7.064205458E0,3.767380692E1,-2.217189331E0,-2.487826538E0,3.782090608E1
7.074214458E0,2.749048325E1,-2.922372894E0,-2.378553772E0,2.774751251E1
7.084222458E0,2.068084396E1,-1.773212585E0,-1.440005493E-1,2.075722347E1
7.094231458E0,1.683324509E1,-1.126557312E0,2.279310150E0,1.702417476E1
7.104240458E0,1.450334015E1,-6.830296326E-1,4.452341309E0,1.518672934E1
7.114248458E0,1.303624100E1,-4.658312988E-1,5.957760773E0,1.434069355E1
7.124257458E0,1.230890350E1,-5.306465149E-1,6.912176056E0,1.412688462E1
7.134265458E0,1.213017517E1,-9.060658264E-1,7.107220459E0,1.408810447E1
7.144274458E0,1.216086136E1,-1.418450317E0,6.137536926E0,1.369554343E1
7.154282458E0,1.210442871E1,-1.692230988E0,4.655468903E0,1.307877023E1
7.164291458E0,1.157078842E1,-1.759890289E0,3.265908508E0,1.215098831E1
7.174300458E0,1.065244812E1,-1.746867371E0,1.997595978E0,1.097800466E1
7.184308458E0,9.566456451E0,-1.589694214E0,9.654922485E-1,9.745583205E0
7.194317458E0,8.351732483E0,-1.330133972E0,2.888992310E-1,8.461923813E0
7.204326458E0,7.002288666E0,-1.017434235E0,-4.236190796E-2,7.075946121E0
7.214334458E0,5.575605469E0,-7.051835632E-1,-1.013392639E-1,5.620936741E0
7.224343458E0,4.166884918E0,-4.116439819E-1,-1.781295776E-2,4.187206466E0
7.234351458E0,2.869832153E0,-1.044827271E-1,1.625619507E-1,2.876330930E0
7.244360458E0,1.737736359E0,2.041754150E-1,3.171903992E-1,1.778208368E0
7.254368458E0,8.152047729E-1,4.990621948E-1,3.820056152E-1,1.029344542E0
7.264377458E0,1.492396545E-1,7.584727478E-1,4.062551880E-1,8.732678062E-1
7.274386458E0,-2.032772827E-1,9.888436890E-1,4.222718811E-1,1.094279231E0
7.284394458E0,-4.355941772E-1,1.191222839E0,4.436773682E-1,1.343727557E0
7.294403458E0,-6.556365967E-1,1.391656036E0,3.992198181E-1,1.589321344E0
7.304411458E0,-9.966275024E-1,1.993853760E0,3.391946411E-1,2.254722200E0
7.314420458E0,-1.462458801E0,2.721041565E0,1.422042847E-1,3.092422190E0
7.324429458E0,-1.651515656E0,2.949167175E0,-1.444496155E-1,3.383187355E0
7.334437458E0,-1.586251373E0,2.706222382E0,-2.020797729E-1,3.143353183E0
7.344446458E0,-1.374741211E0,2.251468048E0,-1.989363098E-1,2.645486236E0
7.354454458E0,-1.129700775E0,1.993105316E0,4.580474854E-2,2.291460390E0
7.364463458E0,-8.563691711E-1,1.845212860E0,5.912704468E-1,2.118437962E0
7.374472458E0,-2.875520325E-1,1.739832001E0,1.325493622E0,2.206045082E0
7.384480458E0,4.393363953E-1,1.857337646E0,2.315235443E0,3.000505750E0
7.394489458E0,1.316512299E0,2.461181946E0,3.478765869E0,4.460093404E0
7.404497458E0,2.701881409E0,3.442840576E0,4.444108429E0,6.237260144E0
7.414506458E0,5.822591858E0,4.764741669E0,5.884562988E0,9.551618746E0
7.424515458E0,1.263223114E1,6.180497589E0,8.565637665E0,1.646638888E1
7.434523458E0,2.516746399E1,5.752088470E0,1.175804901E1,2.836793052E1
7.444532458E0,4.428570740E1,7.593708801E-1,1.281619858E1,4.610916904E1
7.454540458E0,6.046990219E1,-7.517517242E0,8.076155548E0,6.146825542E1
7.464549458E0,5.918213013E1,-1.093476105E1,-7.917036438E-1,6.018903821E1
7.474558458E0,4.144686081E1,-6.479276276E0,-4.068389740E0,4.214706499E1
7.484566458E0,2.746039581E1,-2.786605225E0,-2.263143768E0,2.769404858E1
7.494575458E0,2.002520737E1,-1.961221619E0,-5.616320801E-1,2.012885369E1
7.504583458E0,1.460408066E1,-2.173180847E0,-1.021924896E0,1.480021004E1
7.514592458E0,9.159153442E0,-3.020269318E0,-2.358046417E0,9.928368518E0
7.524601458E0,5.695356445E0,-4.057462463E0,2.521057434E0,7.433425675E0
7.534609458E0,6.224206696E0,-3.967948608E0,3.757037201E0,8.282553572E0
7.544618458E0,5.858966217E0,-3.603456573E0,2.286046143E0,7.248337146E0
7.554626458E0,4.666096802E0,-3.171155548E0,1.299747162E0,5.789475759E0
7.564635458E0,3.727398834E0,-2.622396698E0,8.129594421E-1,4.629402722E0
7.574644458E0,2.851121063E0,-2.013013916E0,4.237687683E-1,3.515778194E0
7.584652458E0,1.982776794E0,-1.467248840E0,2.173480225E-1,2.476179141E0
7.594661458E0,1.228794708E0,-9.888436890E-1,2.227368164E-1,1.592909277E0
7.604669458E0,5.315446472E-1,-5.084925842E-1,3.676354980E-1,8.223504603E-1
7.614678458E0,-4.864883423E-2,-7.843688965E-2,5.974076843E-1,6.044956543E-1
7.624687458E0,-4.345463562E-1,2.444416809E-1,7.800279236E-1,9.257568972E-1
7.634695458E0,-7.623646545E-1,4.752616882E-1,8.984317017E-1,1.270532590E0
7.644704458E0,-1.053808594E0,6.075865173E-1,1.051413574E0,1.607838435E0
7.654712458E0,-1.203347626E0,5.550457764E-1,1.084644470E0,1.712476262E0
7.664721458E0,-1.300495605E0,5.813909912E-1,9.963281250E-1,1.738382592E0
7.674730458E0,-1.426533508E0,6.182144165E-1,8.105644226E-1,1.753340126E0
7.684738458E0,-1.567689972E0,6.812333679E-1,6.914122009E-1,1.843849663E0
7.694747458E0,-1.721120911E0,6.803352356E-1,7.361691284E-1,1.991747526E0
7.704755458E0,-1.849404144E0,5.731581116E-1,7.933502197E-1,2.092417377E0
7.714764458E0,-1.727407837E0,6.198609924E-1,9.638456726E-1,2.072960194E0
7.724773458E0,-1.508862305E0,6.923103333E-1,1.190025330E0,2.042576642E0
7.734781458E0,-1.055006104E0,8.002359009E-1,1.455423431E0,1.967656662E0
7.744790458E0,-4.263134766E-1,9.746232605E-1,1.768422546E0,2.063722845E0
7.754798458E0,6.156697083E-1,1.140328674E0,2.242037659E0,2.589619960E0
7.764807458E0,1.307231598E0,2.114652557E0,2.771636353E0,3.723248308E0
7.774820708E0,1.809137878E0,3.728446655E0,3.912264404E0,5.699132135E0
7.784828708E0,4.408632202E0,5.482349396E0,6.389912109E0,9.503850249E0
7.794837708E0,1.480765732E1,6.992409210E0,9.594298553E0,1.897922724E1
7.804845708E0,3.433020996E1,6.596332855E0,1.352527405E1,3.748343582E1
7.814854708E0,5.934364426E1,1.883533173E0,1.159204422E1,6.049455595E1
7.824863708E0,7.405729706E1,-7.081174622E0,1.550775146E0,7.441123024E1
7.834871708E0,6.110563019E1,-7.183112640E0,-7.823780365E0,6.202182428E1
7.844880708E0,3.912833221E1,-9.656419373E-1,-7.610324249E0,3.987324769E1
7.854888708E0,2.490416153E1,3.703298950E-1,-5.078189850E0,2.541933158E1
7.864897708E0,1.652069504E1,-5.969586182E-1,-3.911665649E0,1.698796198E1
7.874906708E0,9.019194489E0,-1.470691681E0,-3.009791107E0,9.621208123E0
7.884914708E0,3.052153015E0,-2.235900421E0,8.695417786E-1,3.882137507E0
7.894923708E0,3.806584167E0,-2.765948181E0,3.655697937E0,5.958580349E0
7.904931708E0,4.179309082E0,-2.822979584E0,2.496508484E0,5.627467703E0
7.914940708E0,3.233875122E0,-2.564317474E0,1.368903351E0,4.348283431E0
7.924949708E0,1.995200958E0,-2.126927032E0,5.942642212E-1,2.976204870E0
7.934957708E0,8.321195984E-1,-1.590742035E0,-4.113446045E-1,1.841762100E0
7.944966708E0,-1.140927429E0,-1.736987915E0,-3.691024475E0,4.235859310E0
7.954974708E0,-2.681074677E0,-1.575922852E0,-4.953948212E0,5.849213378E0
7.964983708E0,-2.672542419E0,-6.375242615E-1,-2.945125580E0,4.027739422E0
7.974992708E0,-2.248923340E0,2.589614868E-2,-9.006770325E-1,2.422714576E0
7.985000708E0,-1.911674652E0,4.269122314E-1,8.470884705E-1,2.134083622E0
7.995009708E0,-1.744472351E0,6.321354675E-1,1.814077606E0,2.594929015E0
8.005017708E0,-1.767374725E0,7.006929016E-1,2.101330261E0,2.833755958E0
8.015026708E0,-1.834734650E0,6.554869080E-1,1.898352356E0,2.720230870E0
8.025035708E0,-1.853146362E0,5.670208740E-1,1.490600281E0,2.444903538E0
8.035043708E0,-1.925296326E0,5.953120422E-1,1.060993652E0,2.277470066E0
8.045052708E0,-2.123933258E0,6.233038330E-1,9.440867615E-1,2.406428882E0
8.055060708E0,-2.212698669E0,3.769161987E-1,9.415420532E-1,2.434050669E0
8.065069708E0,-2.047292633E0,1.606159973E-1,1.059197388E0,2.310650067E0
8.075078708E0,-1.598525848E0,1.842668152E-1,1.187779999E0,2.000015118E0
8.085086708E0,-9.876461792E-1,1.947450256E-1,1.553469543E0,1.851118101E0
8.095095708E0,-5.215155029E-1,1.092727661E-2,2.161056061E0,2.223119683E0
8.105103708E0,-1.028361511E-1,8.562194824E-2,2.743943939E0,2.747204895E0
8.115112708E0,2.854563904E-1,5.695655823E-1,4.071982269E0,4.121520339E0
8.125121708E0,1.338217163E0,1.758692780E0,6.424789581E0,6.794243639E0
8.135129708E0,6.249504089E0,4.106560364E0,8.879983978E0,1.160923145E1
8.145138708E0,2.107826752E1,6.215075684E0,1.280856445E1,2.543579860E1
8.155146708E0,4.298042175E1,6.080655212E0,1.203182968E1,4.504504354E1
8.165155708E0,6.662390488E1,5.962101746E-1,4.306095428E0,6.676557965E1
8.175164708E0,7.170374130E1,-6.508914642E0,-8.547375641E0,7.250413862E1
8.185172708E0,5.107214493E1,-3.269201660E0,-1.034648438E1,5.221208103E1
8.195181708E0,3.131697601E1,8.458909607E-1,-5.378615112E0,3.178675854E1
8.205190708E0,2.066617447E1,7.553292847E-1,-1.436712341E0,2.072981987E1
8.215198708E0,1.383033966E1,-1.082249451E-1,8.164022827E-1,1.385483744E1
8.225207708E0,7.776329041E0,-7.262896729E-1,1.013692017E0,7.875681656E0
8.235215708E0,1.718426514E0,-1.072819061E0,2.132615204E0,2.941424490E0
8.245224708E0,1.568139038E0,-1.669777679E0,2.531835022E0,3.414294381E0
8.255232708E0,2.163151703E0,-2.038760376E0,1.197958832E0,3.204820513E0
8.265241708E0,1.654210052E0,-2.245779877E0,1.438508606E-1,2.792961013E0
8.275250708E0,9.186396790E-1,-2.500849457E0,-1.869761810E0,3.254866525E0
8.285258708E0,-9.361532593E-1,-3.572620697E0,-6.863826599E0,7.794364448E0
8.295267708E0,-2.942281494E0,-4.158801727E0,-8.897347870E0,1.025258267E1
8.305275708E0,-3.082240448E0,-3.006797333E0,-6.242169342E0,7.583252236E0
8.315284708E0,-2.590662689E0,-1.764830017E0,-2.452500000E0,3.980064624E0
8.325293708E0,-2.368524628E0,-8.818162537E-1,-1.676513672E-1,2.532906591E0
8.335301708E0,-2.357896729E0,-2.474354553E-1,1.504970398E0,2.808173283E0
8.345310708E0,-2.972518616E0,2.860551453E-1,3.314707031E0,4.461499431E0
8.355319708E0,-2.606978760E0,4.099974060E-1,3.605851593E0,4.468400367E0
8.365327708E0,-2.566862183E0,3.303630066E-1,2.859204254E0,3.856548995E0
8.375336708E0,-2.507435760E0,3.023712158E-2,1.455273743E0,2.899305097E0
8.385344708E0,-2.177372131E0,-2.653981018E-1,2.736309814E-1,2.210488513E0
8.395353708E0,-1.884730682E0,-3.354524231E-1,2.631527710E-1,1.932352829E0
8.405362708E0,-1.625469818E0,-2.706372070E-1,6.685098267E-1,1.778286258E0
8.415370708E0,-1.363364868E0,-1.681004333E-1,7.289840698E-1,1.555133208E0
8.425379708E0,-9.604028320E-1,-1.658551025E-1,8.705895996E-1,1.306831193E0
8.435387708E0,-2.974314880E-1,-3.038681030E-1,1.340163116E0,1.406000886E0
8.445396708E0,2.912942505E-1,-3.472778320E-1,1.922152863E0,1.974873631E0
8.455405708E0,8.187973022E-1,-1.137634277E-1,2.676733704E0,2.801477192E0
8.465413708E0,2.706970825E0,-2.863545227E-1,4.779111786E0,5.499963584E0
8.475422708E0,1.186687271E1,-1.674418030E0,8.815767517E0,1.487763760E1
8.485430708E0,3.040282700E1,-3.475023651E0,1.355925339E1,3.347030073E1
8.495439708E0,5.511104599E1,-1.817221069E0,1.230156876E1,5.649653331E1
8.505448708E0,7.293687698E1,2.558030548E0,1.312470703E0,7.299352111E1
8.515456708E0,6.349511124E1,1.597927094E0,-6.825805664E0,6.388093726E1
8.525465708E0,4.162783447E1,-1.808239746E-1,-5.317991180E0,4.196653822E1
8.535473708E0,2.719050705E1,3.929328918E-1,-1.891466675E0,2.725904833E1
8.545482708E0,1.877321091E1,-2.314187622E-1,-2.531236267E-1,1.877634347E1
8.555491708E0,1.142888351E1,-4.065545654E-1,-4.848717041E0,1.242154266E1
8.565499708E0,2.818937988E0,1.145118713E-1,-6.953639832E0,7.504174256E0
8.575508708E0,3.253933411E0,-2.353555756E0,3.701802063E0,5.461743847E0
8.585516708E0,4.713847504E0,-3.346890106E0,4.342320099E0,7.230337164E0
8.595525708E0,3.197949829E0,-2.795885925E0,2.393822021E0,4.875884031E0
8.605534708E0,1.906435547E0,-2.170636139E0,1.931583252E0,3.475222525E0
8.615542708E0,8.794212341E-1,-1.514251099E0,1.458566895E0,2.278981238E0
8.625551708E0,5.104385376E-2,-8.900491333E-1,1.070573730E0,1.393169425E0
8.635559708E0,-5.153782654E-1,-3.848497009E-1,7.854167175E-1,1.015186421E0
8.645568708E0,-7.899073792E-1,-3.652404785E-2,6.159690857E-1,1.002350033E0
8.655577708E0,-9.897418213E-1,1.908531189E-1,5.809419250E-1,1.163403329E0
8.665585708E0,-1.875449982E0,1.999841309E-1,-1.438209229E0,2.371866790E0
8.675594708E0,-2.803220673E0,2.664459229E-1,-3.643273773E0,4.604615441E0
8.685602708E0,-3.071612549E0,4.068539429E-1,-3.392245789E0,4.594307921E0
8.695611708E0,-2.957998810E0,6.354286194E-1,-2.096839600E0,3.681068160E0
8.705620708E0,-2.841241608E0,8.572673035E-1,-6.646179199E-1,3.041262580E0
8.715628708E0,-2.687511292E0,9.904902649E-1,7.810757446E-1,2.968815795E0
8.725637708E0,-2.419418793E0,9.909393311E-1,2.009122009E0,3.297289690E0
8.735645708E0,-1.971101074E0,1.063837738E0,2.723885651E0,3.526548343E0
8.745654708E0,-1.365460510E0,9.949809265E-1,2.841091919E0,3.305491301E0
8.755663708E0,-6.056405640E-1,6.825805664E-1,3.015030212E0,3.150099031E0
8.765671708E0,1.152603149E-1,3.879931641E-1,3.138224030E0,3.164217707E0
8.775680333E0,6.286926270E-1,3.610491943E-1,3.279979248E0,3.359147929E0
8.785688333E0,5.791456604E-1,7.014413452E-1,4.040397949E0,4.141526922E0
8.795697333E0,1.196911011E0,1.381028137E0,5.797294464E0,6.078524310E0
8.805706333E0,4.399201813E0,2.406994629E0,8.058342590E0,9.491232008E0
8.815714333E0,1.603899673E1,2.325414276E0,1.335642517E1,2.100121571E1
8.825723333E0,3.777379898E1,2.076781311E0,1.537722290E1,4.083664891E1
8.835731333E0,6.404776199E1,1.293011169E0,4.328249359E0,6.420686441E1
8.845740333E0,7.467521210E1,-1.803300018E0,-1.964380051E1,7.723676645E1
8.855749333E0,5.080405243E1,-2.162702637E0,-1.872920242E1,5.418959355E1
8.865757333E0,2.885220154E1,-1.034498749E0,-9.166937256E-1,2.888529122E1
8.875766333E0,1.935879318E1,-1.859433289E0,5.154680786E0,2.011942096E1
8.885775333E0,1.228749802E1,-2.553390198E0,7.297474823E0,1.451742222E1
8.895783333E0,6.397995300E0,-2.842738495E0,7.240742798E0,1.007193439E1
8.905792333E0,3.884422302E0,-2.866539001E0,4.599036255E0,6.667602038E0
8.915800333E0,2.594404907E0,-2.683320007E0,1.959275665E0,4.215436421E0
8.925809333E0,1.248254242E0,-2.409090271E0,1.516346741E-1,2.717507619E0
8.935818333E0,-2.784210205E-2,-2.166145477E0,-1.695374451E0,2.750864580E0
8.945826333E0,-2.957549744E0,-4.539759521E0,-9.684860229E0,1.109743370E1
8.955835333E0,-4.993316345E0,-5.991141357E0,-1.173978699E1,1.409431025E1
8.965843333E0,-4.611460419E0,-3.703149261E0,-5.592220917E0,8.139521880E0
8.975852333E0,-4.467160492E0,-2.071242828E0,-2.354453888E0,5.457932102E0
8.985861333E0,-4.075125732E0,-8.210426331E-1,3.927832031E-1,4.175528635E0
8.995869333E0,-3.589834900E0,4.520599365E-2,2.361638947E0,4.297242919E0
9.005878333E0,-3.278033295E0,3.844006348E-1,3.414549408E0,4.748938175E0
9.015886333E0,-3.102897491E0,5.092410278E-1,3.699556732E0,4.855308361E0
9.025895333E0,-2.856958923E0,5.683680725E-1,3.326532440E0,4.421659715E0
9.035904333E0,-2.433489532E0,4.080514526E-1,2.624192963E0,3.602050249E0
9.045912333E0,-2.135608978E0,1.986369324E-1,1.854942627E0,2.835682367E0
9.055921333E0,-1.983674927E0,4.849914551E-2,1.423240356E0,2.441911443E0
9.065929333E0,-1.771566010E0,-8.068222046E-2,1.269060974E0,2.180704359E0
9.075938333E0,-1.447639618E0,-1.258882141E-1,1.414408722E0,2.027821575E0
9.085947333E0,-7.686515808E-1,-6.122268677E-2,2.003882904E0,2.147119038E0
9.095955333E0,5.014572144E-2,1.451980591E-1,2.796035614E0,2.800252172E0
9.105964333E0,7.932005310E-1,3.947291565E-1,3.751947784E0,3.855138177E0
9.115972333E0,2.165097656E0,9.295669556E-1,6.042783966E0,6.485906309E0
9.125981333E0,7.860304413E0,9.515711975E-1,1.050635193E1,1.315573274E1
9.135990333E0,2.211201782E1,1.805245972E-1,1.466380646E1,2.653301983E1
9.145998333E0,4.109149979E1,-1.007854156E0,1.355416397E1,4.328097140E1
9.156007333E0,5.950141617E1,-1.014141083E0,6.416407013E0,5.985496878E1
9.166015333E0,6.151966919E1,6.313870239E-1,-4.829856262E0,6.171220186E1
9.176024333E0,4.541391129E1,1.563199310E0,-7.451953583E0,4.604778542E1
9.186033333E0,2.987846741E1,1.563348999E0,-4.719086609E0,3.028921678E1
9.196041333E0,2.120265884E1,1.231189728E0,-1.727557526E0,2.130852001E1
9.206050333E0,1.500389923E1,3.682342529E-1,-5.938151550E-1,1.502015995E1
9.216058333E0,8.661887512E0,-7.259902954E-2,-2.848127289E0,9.118409672E0
9.226067333E0,3.844904480E0,-9.175918579E-1,1.718127136E0,4.310130640E0
9.236076333E0,5.613327026E0,-2.163002014E0,4.729265442E0,7.652056563E0
9.246084333E0,5.700146484E0,-2.170785828E0,3.260519714E0,6.916282951E0
9.256093333E0,4.764292603E0,-1.896556091E0,2.115401001E0,5.547101081E0
9.266101333E0,4.201163635E0,-1.442250824E0,9.996212769E-1,4.552922800E0
9.276110333E0,4.072281647E0,-5.831872559E-1,-9.101074219E-1,4.213298079E0
9.286119333E0,4.003873901E0,1.212478638E-2,-5.225333862E0,6.582952772E0
9.296127333E0,3.007994843E0,2.903961182E-2,-6.601422272E0,7.254491869E0
9.306136333E0,1.888772278E0,-2.344125366E-1,-1.808389435E0,2.625391838E0
9.316145333E0,1.330882416E0,-3.787124634E-2,1.662143555E0,2.129648664E0
9.326153333E0,7.948471069E-1,1.823208618E-1,3.412753143E0,3.508832689E0
9.336162333E0,5.977070618E-1,3.173400879E-2,3.055446167E0,3.113520846E0
9.346170333E0,5.403762817E-1,-3.528163147E-1,1.723366241E0,1.840238322E0
9.356179333E0,4.543052673E-1,-6.572831726E-1,5.096900940E-1,9.477333153E-1
9.366188333E0,2.588117981E-1,-7.213499451E-1,-1.987866211E-1,7.917356950E-1
9.376196333E0,2.784210205E-2,-6.294410706E-1,-3.282673645E-1,7.104440207E-1
9.386205333E0,-6.735992432E-2,-5.352868652E-1,-2.249821472E-1,5.845394376E-1
9.396213333E0,-8.622070312E-2,-4.981640625E-1,-1.269360352E-1,5.212621220E-1
9.406222333E0,-6.182144165E-2,-5.135820007E-1,-1.606159973E-1,5.416510507E-1
9.416231333E0,1.514849854E-1,-5.734574890E-1,-2.092648315E-1,6.289618130E-1
9.426239333E0,7.831713867E-1,-6.527925110E-1,-7.664062500E-2,1.022433014E0
9.436248333E0,1.766476593E0,-6.668632507E-1,4.102967834E-1,1.932224003E0
9.446256333E0,3.077300720E0,-4.593946838E-1,1.191522217E0,3.331748549E0
9.456265333E0,4.967569885E0,-8.996292114E-2,2.349364471E0,5.495849098E0
9.466274333E0,7.691605225E0,1.311273193E-1,4.086352386E0,8.710698085E0
9.476282333E0,1.180355438E1,1.248403931E-1,6.260730743E0,1.336174504E1
9.486291333E0,1.757046204E1,2.571652222E-1,8.047714691E0,1.932751877E1
9.496299333E0,2.442904953E1,4.167333984E-1,8.883277130E0,2.599739872E1
9.506308333E0,3.138164154E1,5.049000549E-1,7.975265350E0,3.238313152E1
9.516317333E0,3.651880875E1,6.480024719E-1,5.245841217E0,3.689935161E1
9.526325333E0,3.764985672E1,8.083190918E-1,1.467398529E0,3.768711118E1
9.536334333E0,3.210119522E1,3.794609070E-1,-1.154399414E0,3.212418658E1
9.546342333E0,2.438683731E1,-7.619155884E-1,-1.094224548E0,2.442326098E1
9.556351333E0,1.910836395E1,-1.395547943E0,-5.273533630E-1,1.916651321E1
9.566360333E0,1.545446228E1,-1.557361450E0,7.214996338E-2,1.553290007E1
9.576368333E0,1.265932480E1,-1.566642151E0,7.601193237E-1,1.277852313E1
9.586377333E0,1.045905029E1,-1.441053314E0,1.257984009E0,1.063253928E1
9.596385333E0,8.821455688E0,-1.276246033E0,1.492396545E0,9.037374168E0
9.606394333E0,7.533833313E0,-1.244961090E0,1.673070831E0,7.817143884E0
9.616403333E0,5.547463989E0,-1.348395996E0,2.246977386E0,6.135261677E0
9.626411333E0,4.255650330E0,-1.708547058E0,1.438059540E0,4.806007492E0
9.636420333E0,4.764292603E0,-1.913321228E0,3.194357300E-1,5.144056892E0
9.646428333E0,4.961133270E0,-1.789528656E0,-5.333409119E-1,5.300915833E0
9.656437333E0,4.405937805E0,-1.372346191E0,-1.068627777E0,4.736833049E0
9.666446333E0,3.650009766E0,-9.327104187E-1,-1.130449219E0,3.933247443E0
9.676454333E0,2.792143707E0,-5.737568665E-1,-1.134041748E0,3.067786516E0
9.686463333E0,1.916165314E0,-2.351609802E-1,-1.074765015E0,2.209549735E0
9.696471333E0,1.143172760E0,1.133143616E-1,-8.503816223E-1,1.429277093E0
9.706480333E0,5.007087708E-1,4.444258118E-1,-4.906796265E-1,8.300542579E-1
9.716489333E0,1.055305481E-1,6.599775696E-1,-1.444496155E-1,6.837929367E-1
9.726497333E0,-1.447489929E-1,8.207432556E-1,2.718347168E-1,8.766218545E-1
9.736506333E0,-4.884342957E-1,1.060095520E0,7.750881958E-1,1.401118226E0
9.746515333E0,-8.080197144E-1,1.237476654E0,7.056326294E-1,1.637730666E0
9.756523333E0,-1.328936462E0,1.362317047E0,-1.214873657E0,2.257852489E0
9.766532333E0,-1.667831726E0,1.280886383E0,-2.600991211E0,3.344770227E0
9.776540625E0,-1.310225372E0,7.836204529E-1,-1.225351868E0,1.957610467E0
9.786549625E0,-3.052153015E-1,3.438349915E-1,1.114881592E0,1.205960134E0
9.796558625E0,5.519023132E-1,1.466949463E-2,2.549348602E0,2.608445831E0
9.806566625E0,1.428479462E0,-1.303788757E-1,3.831133118E0,4.090859713E0
9.816575625E0,3.469934235E0,4.296066284E-2,6.040089569E0,6.965986737E0
9.826583625E0,8.947044525E0,2.302212524E-1,9.184450836E0,1.282406896E1
9.836592625E0,2.173210785E1,1.114731903E0,1.323457855E1,2.546922080E1
9.846601625E0,4.062087845E1,4.432133331E0,1.691287949E1,4.422380653E1
9.856609625E0,5.689952682E1,7.862998810E0,1.111708191E1,5.850617415E1
9.866618625E0,5.695146881E1,4.254003754E0,-4.746629333E-1,5.711209725E1
9.876626625E0,4.103880936E1,-2.248174896E0,-6.144871674E0,4.155716077E1
9.886635625E0,2.705054810E1,-4.610711975E0,-7.875872040E0,2.854855824E1
9.896644625E0,1.910716644E1,-5.448370056E0,-5.433550873E0,2.059834995E1
9.906652625E0,1.428913559E1,-5.285957794E0,1.314266968E-1,1.523607622E1
9.916661625E0,8.978329468E0,-5.462440796E0,2.970422974E0,1.092117540E1
9.926669625E0,4.925507355E0,-5.307812347E0,5.616620178E0,9.164055698E0
9.936678625E0,3.644770660E0,-4.208049316E0,3.778891754E0,6.728451167E0
9.946687625E0,2.973267059E0,-3.433709564E0,1.044078827E0,4.660555651E0
9.956695625E0,2.091450806E0,-2.978805542E0,-7.801776123E-1,3.722381769E0
9.966704625E0,1.187031555E0,-2.368225250E0,-1.733245697E0,3.165702986E0
9.976712625E0,4.442761230E-1,-1.786085815E0,-3.623065796E0,4.063753139E0
9.986721625E0,-5.077441406E-1,-1.212927704E0,-5.065915375E0,5.233784129E0
9.996730625E0,-1.715283051E0,-8.116122437E-1,-4.723128204E0,5.090073714E0
1.000673863E1,-1.897603912E0,-5.051994324E-1,-1.675316162E0,2.581242204E0
1.001674762E1,-1.800605621E0,-3.113525391E-2,1.621577911E0,2.423358193E0
1.002675562E1,-1.702858887E0,4.090992737E-1,2.926264801E0,3.410295631E0
1.003676463E1,-1.648072815E0,6.215075684E-1,2.978955231E0,3.460721013E0
1.004677362E1,-1.529669037E0,7.318281555E-1,2.654579773E0,3.149960886E0
1.005678162E1,-1.389560394E0,7.288343811E-1,2.372715912E0,2.844619209E0
1.006679063E1,-1.228195953E0,6.988966370E-1,2.081870728E0,2.516169218E0
1.007679962E1,-1.019080811E0,6.932084656E-1,1.853296051E0,2.225706613E0
1.008680762E1,-6.939569092E-1,6.692582703E-1,1.854792938E0,2.090392228E0
1.009681663E1,3.032693481E-1,6.737489319E-1,2.485281830E0,2.592785316E0
1.010682462E1,2.025887146E0,5.605842590E-1,3.440744934E0,4.032021719E0
1.011683362E1,2.728076935E0,3.347039795E-1,3.286415863E0,4.284268869E0
1.012684263E1,2.467169495E0,7.426057434E-1,2.833906860E0,3.830067454E0
1.013685063E1,3.801943817E0,1.139131165E0,3.381767578E0,5.214283129E0
1.014685962E1,7.167694702E0,1.615141296E0,4.313879242E0,8.520216128E0
1.015686763E1,1.367107086E1,2.671344910E0,5.341492310E0,1.491863942E1
1.016687663E1,2.395947601E1,3.731440430E0,4.630021820E0,2.468637763E1
1.017688562E1,3.778173248E1,3.060984650E0,-8.083190918E-3,3.790552732E1
1.018689363E1,4.917020004E1,1.635498962E0,-4.483775940E0,4.940129225E1
1.019690263E1,4.939787659E1,9.077124023E-1,-1.150208130E0,4.941960271E1
1.020691062E1,3.647240524E1,6.500981140E-1,2.194286957E0,3.654413588E1
1.021691962E1,2.488320511E1,-9.026229858E-2,2.380948792E0,2.499701904E1
1.022692863E1,1.826935867E1,-8.660989380E-1,2.812201996E0,1.850481218E1
1.023693662E1,1.379845596E1,-1.436862030E0,3.108735352E0,1.421710923E1
1.024694562E1,1.053464310E1,-1.766177216E0,2.825524292E0,1.104905764E1
1.025695363E1,8.123008118E0,-1.925895081E0,2.453697510E0,8.701319682E0
1.026696262E1,6.084846497E0,-2.031425629E0,2.431842957E0,6.860459688E0
1.027697162E1,4.294419708E0,-2.104623413E0,2.379302216E0,5.341587720E0
1.028697963E1,3.468587036E0,-2.214794312E0,1.822011108E0,4.500681543E0
1.029698862E1,3.395389252E0,-2.373763733E0,6.312373352E-1,4.190690039E0
1.030699762E1,3.423680420E0,-2.502046967E0,-9.586065674E-1,4.347499648E0
1.031700563E1,3.147355042E0,-2.389930115E0,-2.241588593E0,4.543383005E0
1.032701462E1,2.536175995E0,-1.958976288E0,-2.882555695E0,4.310325290E0
1.033702262E1,1.902094574E0,-1.298100586E0,-2.480791168E0,3.384871300E0
1.034703163E1,1.416354675E0,-6.900650024E-1,-1.455124054E0,2.144676266E0
1.035704063E1,8.330177307E-1,-1.354682922E-1,-5.236111450E-1,9.931962692E-1
1.036704862E1,9.639953613E-2,5.498066711E-1,7.604187012E-2,5.633494583E-1
1.037705763E1,-5.270539856E-1,1.384171600E0,-2.424957275E-1,1.500840132E0
1.038706563E1,-7.300318909E-1,2.140698395E0,-1.767225037E0,2.870299725E0
1.039707462E1,-3.219804382E-1,2.097438354E0,-2.945874023E0,3.630577477E0
1.040708363E1,3.734733582E-1,1.245260468E0,-2.199226685E0,2.554751258E0
1.041709163E1,1.108145599E0,-4.311035156E-2,-4.936734009E-1,1.213902220E0
1.042710062E1,1.735341339E0,-1.173858948E0,1.222657471E0,2.425746418E0
1.043710863E1,2.249671783E0,-1.771266632E0,2.577340393E0,3.852413804E0
1.044711763E1,2.607278137E0,-2.130220184E0,3.328777771E0,4.734606506E0
1.045712662E1,3.239413605E0,-2.286794586E0,3.943399658E0,5.592283151E0
1.046713462E1,4.390519867E0,-1.985171814E0,5.065316620E0,6.991066034E0
1.047714363E1,6.446943512E0,-1.245410156E0,6.762637024E0,9.425889169E0
1.048715162E1,1.048270111E1,-4.439767456E-1,8.851094055E0,1.372683517E1
1.049716062E1,1.827474747E1,2.963836670E-1,1.000115250E1,2.083452158E1
1.050716963E1,3.105187729E1,8.364605713E-1,8.092172241E0,3.209987541E1
1.051717762E1,4.473911453E1,3.438349915E-1,6.131250000E-1,4.474463671E1
1.052718662E1,5.021757202E1,-2.176174622E0,-7.184310150E0,5.077553139E1
1.053719463E1,3.881099213E1,-3.189267883E0,-6.640491028E0,3.950393222E1
1.054720362E1,2.465448074E1,-9.415420532E-1,-2.542762299E0,2.480313614E1
1.055721262E1,1.703068451E1,2.978805542E-2,-2.534230042E-1,1.703259597E1
1.056722063E1,1.216789673E1,3.174897766E-1,1.409319305E0,1.225335429E1
1.057722962E1,8.771160278E0,4.343966675E-1,2.345771942E0,9.089807429E0
1.058723862E1,6.132896576E0,5.230123901E-1,2.695594482E0,6.719538078E0
1.059724663E1,4.156556396E0,5.204676819E-1,2.584824829E0,4.922313184E0
1.060725563E1,2.699785767E0,4.510121155E-1,2.183209991E0,3.501237064E0
1.061726362E1,1.272054749E0,5.137316895E-1,2.229613495E0,2.617865518E0
1.062727263E1,-1.333726501E-1,7.177574158E-1,2.730322266E0,2.826238427E0
1.063728163E1,-5.566923523E-1,6.189628601E-1,2.085014191E0,2.245062487E0
1.064728962E1,-1.932481384E-1,2.874023438E-1,1.050814819E0,1.106416167E0
1.065729863E1,1.553768921E-1,-5.628295898E-2,4.406835938E-1,4.706503797E-1
1.066730663E1,3.827540588E-1,-4.092489624E-1,-1.661544800E-2,5.605902745E-1
1.067731562E1,5.777984619E-1,-7.734416199E-1,-5.475613403E-1,1.109903790E0
1.068732462E1,9.119036865E-1,-1.251697083E0,-1.321002960E0,2.035525176E0
1.069733263E1,1.371597748E0,-1.744023285E0,-2.023492126E0,3.002901594E0
1.070734162E1,1.856289825E0,-2.065255280E0,-2.266287231E0,3.584291994E0
1.071734962E1,2.192341003E0,-2.152823181E0,-1.825603638E0,3.574050275E0
1.072735863E1,2.276765442E0,-1.935475159E0,-9.659413147E-1,3.140504353E0
1.073736762E1,2.197131042E0,-1.383273468E0,-1.895059204E-1,2.603217778E0
1.074737562E1,2.137704620E0,-7.957452393E-1,4.770579529E-1,2.330359590E0
1.075738463E1,2.461631012E0,-5.218148804E-1,9.880952454E-1,2.703377558E0
1.076739262E1,3.129542084E0,-4.876858521E-1,1.312470703E0,3.428476410E0
1.077740183E1,3.853137360E0,-5.484594727E-1,1.670975189E0,4.235520439E0
1.078741083E1,4.669539642E0,-7.011419678E-1,2.233206024E0,5.223352341E0
1.079741883E1,5.826034698E0,-9.901908875E-1,3.097957764E0,6.672368441E0
1.080742783E1,7.626041565E0,-1.405427399E0,4.349355469E0,8.890929598E0
1.081743683E1,1.059167450E1,-1.717378693E0,5.872587891E0,1.223193553E1
1.082744483E1,1.592388611E1,-1.560654602E0,7.758965149E0,1.778221954E1
1.083745383E1,2.512180893E1,-3.137475586E-1,9.372459869E0,2.681504662E1
1.084746183E1,3.841491577E1,2.243235168E0,8.906778259E0,3.949770318E1
1.085747083E1,5.036366821E1,4.276007996E0,3.371139679E0,5.065716043E1
1.086747983E1,5.029481140E1,9.729766846E-1,-4.641697540E0,5.051791854E1
1.087748783E1,3.484439072E1,-2.493963776E0,-6.361920319E0,3.550810400E1
1.088749683E1,2.292318100E1,-2.149679718E0,-3.549269257E0,2.329572197E1
1.089750483E1,1.641636200E1,-2.007176056E0,-1.014141083E0,1.656967650E1
1.090751383E1,1.204006256E1,-2.092648315E0,7.815248108E-1,1.224553243E1
1.091752283E1,8.741821289E0,-2.107617188E0,2.334395599E0,9.290365573E0
1.092753083E1,5.955216064E0,-1.886077881E0,2.767894135E0,6.832505111E0
1.093753983E1,2.426304474E0,-1.308578796E0,3.550766144E0,4.495249946E0
1.094754783E1,7.833210754E-1,-1.303040314E0,3.265609131E0,3.602181140E0
1.095755683E1,7.641609192E-1,-1.498234406E0,1.796863403E0,2.461171740E0
1.096756583E1,4.825964355E-1,-1.412911835E0,5.544470215E-1,1.592680342E0
1.097757383E1,4.730163574E-2,-1.106049957E0,-6.735992432E-2,1.109108341E0
1.098758283E1,-5.049000549E-1,-8.391549683E-1,-7.382647705E-1,1.226433854E0
1.099759083E1,-1.822909241E0,-8.505313110E-1,-3.962559814E0,4.443903902E0
1.100759983E1,-2.687062225E0,-6.363267517E-1,-5.482648773E0,6.138782673E0
1.101760883E1,-2.846181335E0,-3.323089600E-1,-4.663701782E0,5.473690871E0
1.102761683E1,-2.642454987E0,-1.769320679E-1,-3.101400604E0,4.078303449E0
1.103762583E1,-2.331401825E0,-1.541793823E-1,-1.476529541E0,2.763936547E0
1.104763483E1,-2.067201233E0,-1.481918335E-1,1.706451416E-2,2.072576405E0
1.105764283E1,-1.884431305E0,-1.788780212E-1,1.328786774E0,2.312737119E0
1.106765183E1,-1.745520172E0,-3.456312561E-1,2.189197540E0,2.821150033E0
1.107765983E1,-1.558259583E0,-8.451425171E-1,2.515818329E0,3.077625816E0
1.108766883E1,-1.309925995E0,-1.466500397E0,2.962938538E0,3.556056004E0
1.109767783E1,-9.904902649E-1,-1.897005157E0,3.452121277E0,4.061630318E0
1.110768583E1,-4.933740234E-1,-2.029928741E0,3.913910980E0,4.436522037E0
1.111769483E1,6.526428223E-2,-1.867516479E0,4.311933289E0,4.699430382E0
1.112770283E1,5.730084229E-1,-1.746567993E0,4.704866180E0,5.051198292E0
1.113771183E1,1.371897125E0,-2.090852051E0,5.445825348E0,5.992560199E0
1.114772083E1,3.200195160E0,-3.404969330E0,7.012766876E0,8.426978371E0
1.115772883E1,8.208929443E0,-5.889353027E0,8.675509186E0,1.331673614E1
1.116773783E1,2.035512131E1,-6.987768860E0,9.668993225E0,2.359341660E1
1.117774583E1,4.070575195E1,-3.938160553E0,6.777456207E0,4.145360374E1
1.118775483E1,6.464442123E1,5.776787109E0,-5.694907379E0,6.515139627E1
1.119776383E1,6.909092468E1,1.085422852E1,-1.392509262E1,7.131113766E1
1.120777183E1,5.107394119E1,2.833158417E0,-7.665409698E0,5.172361899E1
1.121778083E1,3.328523300E1,-3.730242920E-1,-2.048789520E0,3.335031367E1
1.122778983E1,2.219494537E1,-3.737727356E-1,1.114432526E0,2.222604927E1
1.123779783E1,1.473505829E1,-5.692662048E-1,2.705174561E0,1.499213048E1
1.124780683E1,7.189848633E0,7.059320068E-1,1.791324921E0,7.443192080E0
1.125781483E1,2.767744446E-1,2.428100739E0,-6.414161682E-1,2.526596919E0
1.126782383E1,2.259850616E0,-4.161346436E-1,-5.215155029E-1,2.356283359E0
1.127783283E1,2.782413940E0,-2.056124268E0,-2.655028839E0,4.361038004E0
1.128784083E1,3.656895447E-1,-3.068469086E0,-8.438252563E0,8.986286090E0
1.129784983E1,-2.259102173E0,-3.472628632E0,-1.051189041E1,1.129878455E1
1.130785783E1,-3.203937378E0,-2.623594208E0,-7.837402039E0,8.864159972E0
1.131786683E1,-3.553460541E0,-1.645827484E0,-4.654421082E0,6.082718597E0
1.132787583E1,-4.255500641E0,-7.801776123E-1,-1.335522766E0,4.527867475E0
1.133788383E1,-4.379293213E0,-1.772314453E-1,1.819915466E0,4.745704619E0
1.134789283E1,-3.927532654E0,3.736230469E-1,3.105891266E0,5.021122134E0
1.135790083E1,-3.470383301E0,7.036866760E-1,2.489622803E0,4.328620669E0
1.136790983E1,-2.786156158E0,4.742138672E-1,8.457412720E-1,2.950054784E0
1.137791883E1,-2.192341003E0,-2.859054565E-2,-8.619076538E-1,2.355856808E0
1.138792683E1,-1.730850677E0,-3.085084534E-1,-1.407523041E0,2.252141790E0
1.139793583E1,-1.424737244E0,-2.793191528E-1,-2.992277527E-1,1.482373991E0
1.140794383E1,-1.179846497E0,-1.695973206E-1,1.025816803E0,1.572609653E0
1.141795283E1,-8.604107666E-1,-3.851490784E-1,1.252445526E0,1.567566999E0
1.142796183E1,-3.543132019E-1,-8.396040344E-1,1.518292694E0,1.770786685E0
1.143796983E1,2.856060791E-1,-1.072669373E0,2.180814972E0,2.447068523E0
1.144797883E1,1.311123505E0,-1.100810852E0,2.865191803E0,3.337686840E0
1.145798683E1,3.203039246E0,-1.436562653E0,4.747527466E0,5.904421200E0
1.146799583E1,7.094945984E0,-2.612217865E0,7.426656189E0,1.059797919E1
1.147800483E1,1.421728500E1,-4.399351501E0,9.239985352E0,1.751750027E1
1.148801283E1,2.369317978E1,-5.801934814E0,9.285939789E0,2.610091748E1
1.149802183E1,3.390943497E1,-5.317542114E0,7.044650574E0,3.503930844E1
1.150803083E1,4.175162704E1,-2.199825439E0,2.192041626E0,4.186696358E1
1.151803883E1,4.241414932E1,9.385482788E-1,-2.152523804E0,4.247910421E1
1.152804783E1,3.509736465E1,2.912942505E-1,-2.766546936E0,3.520743728E1
1.153805583E1,2.762744843E1,-7.282356262E-1,-9.711804199E-1,2.765410322E1
1.154806483E1,2.219374786E1,-2.252815247E-1,7.391629028E-1,2.220719608E1
1.155807383E1,1.764291138E1,2.826123047E-1,1.829495544E0,1.773976453E1
1.156808183E1,1.385818176E1,5.218148804E-1,2.207010498E0,1.404252071E1
1.157809083E1,1.079540085E1,5.665718079E-1,2.101330261E0,1.101259606E1
1.158809883E1,8.540190582E0,5.575904846E-1,1.924098816E0,8.771996271E0
1.159810783E1,6.196514282E0,1.010099487E0,1.013392639E0,6.359564047E0
1.160811683E1,3.002007294E0,1.900597687E0,-5.116360474E-1,3.589720157E0
1.161812483E1,3.822301483E0,1.317260742E-1,3.070115662E-1,3.836873270E0
1.162813383E1,5.034630432E0,-1.374890900E0,-5.285508728E-1,5.245683425E0
1.163814283E1,4.378245392E0,-1.469344482E0,-1.427581329E0,4.833838472E0
1.164815083E1,3.355871429E0,-1.089434509E0,-2.085912323E0,4.098752349E0
1.165815983E1,2.609822845E0,-6.607260132E-1,-1.500330048E0,3.082000065E0
1.166816783E1,2.150877228E0,-2.194436646E-1,-8.247848511E-2,2.163615278E0
1.167817683E1,1.862427063E0,2.005828857E-1,1.153950348E0,2.200106694E0
1.168818583E1,1.630708923E0,5.303471375E-1,1.717528381E0,2.427011211E0
1.169819383E1,1.451681213E0,7.783813477E-1,1.744771729E0,2.399475829E0
1.170820283E1,1.393302612E0,8.849597168E-1,1.679208069E0,2.354609439E0
1.171821083E1,1.469194794E0,8.081694031E-1,1.613345032E0,2.326919276E0
1.172821983E1,1.630708923E0,5.694158936E-1,1.586251373E0,2.345131014E0
1.173822883E1,1.728605347E0,1.927990723E-1,1.548679504E0,2.328874435E0
1.174823683E1,1.769170990E0,-3.100053406E-1,1.481918335E0,2.328551321E0
1.175824583E1,1.809586945E0,-7.607180786E-1,1.498384094E0,2.469504363E0
1.176825383E1,1.979184265E0,-1.070723419E0,1.648072815E0,2.789222651E0
1.177825908E1,2.297123108E0,-1.226699066E0,1.834135895E0,3.185218933E0
1.178826808E1,2.799777832E0,-1.254990234E0,2.099234619E0,3.717599008E0
1.179827608E1,3.802692261E0,-1.153052216E0,2.633473663E0,4.767093599E0
1.180828508E1,5.478607178E0,-1.008901978E0,3.409609680E0,6.531344270E0
1.181829408E1,8.073910217E0,-9.936337280E-1,4.219725037E0,9.164137361E0
1.182830208E1,1.226624222E1,-1.053958282E0,4.925806732E0,1.326028273E1
1.183831108E1,1.860301483E1,-1.088087311E0,5.206622772E0,1.934851456E1
1.184831908E1,2.680116669E1,-8.708889771E-1,4.813091125E0,2.724384021E1
1.185832808E1,3.500964706E1,-5.096900940E-1,3.206482086E0,3.515987342E1
1.186833708E1,3.934463242E1,-1.086740112E0,6.400689697E-1,3.936484208E1
1.187834508E1,3.569641891E1,-3.188669128E0,-1.172362061E0,3.585772395E1
1.188835408E1,2.715503082E1,-4.141737213E0,-9.373507690E-1,2.748505617E1
1.189836208E1,2.105671234E1,-3.647315369E0,-3.028202820E-1,2.137240614E1
1.190837108E1,1.695359482E1,-3.270698547E0,3.879931641E-1,1.727056412E1
1.191838008E1,1.385488861E1,-3.180735626E0,9.822573853E-1,1.424920514E1
1.192838808E1,1.148157394E1,-3.320544891E0,1.369502106E0,1.203029902E1
1.193839708E1,9.584119720E0,-3.480562134E0,1.583556976E0,1.031878463E1
1.194840508E1,7.373816071E0,-3.738026733E0,2.026635590E0,8.511948021E0
1.195841408E1,4.671186218E0,-4.449048157E0,1.375040588E0,6.595812824E0
1.196842308E1,4.262985077E0,-4.370012512E0,-5.548960876E-1,6.130086524E0
1.197843108E1,4.260440369E0,-3.846700745E0,-2.042652283E0,6.092691286E0
1.198844008E1,3.619323578E0,-3.151995392E0,-1.801803131E0,5.126506865E0
1.199844908E1,3.029699707E0,-2.408491516E0,-1.165177002E0,4.041973422E0
1.200845708E1,2.503543854E0,-1.786385193E0,-5.996530151E-1,3.133446605E0
1.201846608E1,1.940414886E0,-1.273851013E0,7.873626709E-2,2.322521418E0
1.202847408E1,1.339714050E0,-7.782316589E-1,8.454418945E-1,1.765007153E0
1.203848308E1,7.204518127E-1,-3.064128113E-1,1.179996185E0,1.416096968E0
1.204849208E1,2.393522644E-1,1.284329224E-1,1.485510864E0,1.510141401E0
1.205850008E1,-9.175918579E-2,5.035528564E-1,1.713786163E0,1.788588337E0
1.206850908E1,-3.438349915E-1,8.364605713E-1,1.919458466E0,2.121841085E0
1.207851708E1,-5.257067871E-1,1.084494781E0,2.146985321E0,2.462121550E0
1.208852608E1,-6.703060913E-1,1.282233582E0,2.370021515E0,2.776767040E0
1.209853508E1,-7.455995178E-1,1.500030670E0,2.581831055E0,3.077639070E0
1.210854308E1,-5.605842590E-1,1.632355499E0,2.798730011E0,3.288119350E0
1.211855208E1,-3.008743286E-2,1.609004059E0,3.068918152E0,3.465264483E0
1.212856008E1,7.999365234E-1,1.497785339E0,3.586841125E0,3.968461745E0
1.213856908E1,1.843566284E0,1.490899658E0,4.270619202E0,4.884639884E0
1.214857808E1,3.304677887E0,1.493444366E0,5.147046661E0,6.296297432E0
1.215858608E1,5.652994537E0,1.602866821E0,6.222260742E0,8.558157397E0
1.216859508E1,9.531878357E0,1.827100525E0,7.020101624E0,1.197818134E1
1.217860408E1,1.537243286E1,2.138752441E0,7.215595093E0,1.711580459E1
1.218861208E1,2.347987335E1,2.102378082E0,6.434968414E0,2.443631037E1
1.219862108E1,3.355377457E1,1.431622925E0,4.350552979E0,3.386491759E1
1.220862908E1,4.184069183E1,-3.014730835E-1,8.075706482E-1,4.184957048E1
1.221863808E1,4.300841354E1,-2.885998535E0,-3.125650177E0,4.321830992E1
1.222864708E1,3.402050400E1,-4.274960175E0,-3.984414368E0,3.451877076E1
1.223865508E1,2.410078217E1,-4.052223358E0,-2.608475647E0,2.457788356E1
1.224866408E1,1.829375793E1,-3.775598602E0,-9.627978516E-1,1.870410928E1
1.225867208E1,1.465108292E1,-3.826043701E0,1.186582489E0,1.518883863E1
1.226868108E1,1.196342194E1,-3.853586426E0,2.930007019E0,1.290575584E1
1.227869008E1,8.974587250E0,-4.229454803E0,3.814966736E0,1.062946261E1
1.228869808E1,6.586752777E0,-4.953499146E0,3.962110748E0,9.144440251E0
1.229870708E1,6.672524414E0,-4.453389130E0,2.012714539E0,8.270808704E0
1.230871608E1,6.435417480E0,-3.885769501E0,2.704875183E-1,7.522430874E0
1.231872408E1,5.637726288E0,-3.451971588E0,-8.170010376E-1,6.660897555E0
1.232873308E1,4.849615173E0,-2.927013245E0,-1.388213196E0,5.832093084E0
1.233874108E1,4.071084137E0,-2.296674042E0,-1.357077942E0,4.867247502E0
1.234875008E1,3.244053955E0,-1.752854919E0,-1.129850464E0,3.856546188E0
1.235875908E1,2.523302765E0,-1.221609650E0,-5.367837524E-1,2.854386760E0
1.236876708E1,1.920206909E0,-7.828720093E-1,4.110452271E-1,2.114010723E0
1.237877608E1,1.322948914E0,-4.981640625E-1,1.205892334E0,1.858100531E0
1.238878408E1,7.403604126E-1,-2.918930054E-1,1.686842194E0,1.865146550E0
1.239879308E1,2.583627319E-1,-1.258882141E-1,1.979783020E0,2.000534916E0
1.240880208E1,-1.487905884E-1,4.685256958E-2,2.104024658E0,2.109799413E0
1.241881008E1,-4.405339050E-1,1.381626892E-1,2.078577576E0,2.129235494E0
1.242881908E1,-6.020480347E-1,1.315763855E-1,1.940414886E0,2.035923405E0
1.243882708E1,-6.767427063E-1,9.520202637E-2,1.742825775E0,1.872027190E0
1.244883608E1,-6.987469482E-1,6.960525513E-2,1.567240906E0,1.717363167E0
1.245884508E1,-6.251000977E-1,1.185534668E-1,1.514400787E0,1.642624364E0
1.246885308E1,-2.386038208E-1,2.314187622E-1,1.781894531E0,1.812631939E0
1.247886208E1,4.571493530E-1,4.263134766E-1,2.394570465E0,2.474812402E0
1.248887108E1,1.294957123E0,6.625222778E-1,3.103945312E0,3.427874884E0
1.249887908E1,2.652933197E0,7.961943054E-1,4.100423126E0,4.948277451E0
1.250888808E1,5.098397827E0,8.378077698E-1,5.694458313E0,7.689111635E0
1.251889608E1,9.447453918E0,1.197509766E0,7.417525177E0,1.207096081E1
1.252890508E1,1.660736481E1,2.372266846E0,8.228987732E0,1.868551457E1
1.253891408E1,2.693438965E1,3.962859192E0,7.873477020E0,2.834002892E1
1.254892208E1,3.897520065E1,5.156626740E0,4.753664703E0,3.960119182E1
1.255893108E1,4.697666153E1,4.095333710E0,-5.525010681E-1,4.715807189E1
1.256893908E1,4.403512848E1,8.936416626E-2,-5.483546906E0,4.437532888E1
1.257894808E1,3.144031952E1,-1.621428223E0,-5.015170898E0,3.187906304E1
1.258895708E1,2.222278748E1,-1.382674713E0,-2.585722961E0,2.241539729E1
1.259896508E1,1.704430618E1,-1.705852661E0,-2.739303589E-2,1.712947918E1
1.260897408E1,1.356359436E1,-2.145338745E0,1.559457092E0,1.382047310E1
1.261898308E1,1.091260712E1,-2.567161560E0,2.525997162E0,1.149156100E1
1.262899108E1,8.271349640E0,-2.998863831E0,3.722908173E0,9.553452486E0
1.263900008E1,5.385650482E0,-3.796255646E0,4.679868164E0,8.081952368E0
1.264900808E1,5.091212769E0,-3.847898254E0,2.274370422E0,6.774919132E0
1.265901708E1,5.280718689E0,-3.658542023E0,-2.311193848E-1,6.428400717E0
1.266902608E1,4.824168091E0,-3.671115875E0,-2.330054626E0,6.494524163E0
1.267903408E1,4.125870209E0,-3.525618439E0,-3.755989380E0,6.600018680E0
1.268904308E1,3.485202484E0,-2.932252350E0,-3.254083099E0,5.597659959E0
1.269905108E1,2.865940247E0,-2.274669800E0,-2.019300842E0,4.179152077E0
1.270906008E1,2.245779877E0,-1.694326630E0,-1.046473846E0,3.001562509E0
1.271906908E1,1.608255615E0,-1.262774048E0,-2.118095398E-1,2.055710996E0
1.272907708E1,9.493258667E-1,-8.816665649E-1,8.502319336E-1,1.549661213E0
1.273908608E1,3.659889221E-1,-5.816903687E-1,1.723665619E0,1.855622467E0
1.274909508E1,-8.217910767E-2,-3.050656128E-1,2.277663574E0,2.299471633E0
1.275910308E1,-3.980223083E-1,-1.013392639E-1,2.471660156E0,2.505552900E0
1.276911208E1,-6.370751953E-1,3.876937866E-2,2.477048950E0,2.557956092E0
1.277912371E1,-7.825726318E-1,7.723937988E-2,2.400857391E0,2.526361427E0
1.278913271E1,-8.473878479E-1,5.044509888E-2,2.229613495E0,2.385746678E0
1.279914171E1,-8.589138794E-1,-8.382568359E-3,2.003583527E0,2.179942721E0
1.280914971E1,-7.255412292E-1,-5.433700562E-2,1.819466400E0,1.959546010E0
1.281915871E1,-2.471360779E-1,-1.309776306E-1,1.985770569E0,2.005371819E0
1.282916671E1,5.501060486E-1,-9.714797974E-2,2.455044708E0,2.517796440E0
1.283917571E1,1.522783356E0,4.191284180E-3,3.102298737E0,3.455885439E0
1.284918471E1,3.005300446E0,-1.062789917E-2,4.296964417E0,5.243648245E0
1.285919271E1,5.757926331E0,-2.514770508E-1,5.989794159E0,8.312315586E0
1.286920171E1,1.067415298E1,-4.076023865E-1,7.672894135E0,1.315207155E1
1.287920971E1,1.845302673E1,9.909393311E-2,8.532706146E0,2.033054572E1
1.288921871E1,2.927387466E1,1.344354401E0,7.308551788E0,3.020235017E1
1.289922771E1,4.094705017E1,3.068918152E0,3.383863220E0,4.120108866E1
1.290923571E1,4.760056412E1,2.671793976E0,-2.907703400E0,4.776407569E1
1.291924471E1,4.265290283E1,-7.228468323E-1,-7.385791168E0,4.329367781E1
1.292925371E1,2.934991653E1,-1.178648987E0,-7.623796234E0,3.034681339E1
1.293926171E1,2.080927689E1,-8.321195984E-1,-3.943549347E0,2.119599040E1
1.294927071E1,1.611219452E1,-1.224453735E0,1.263672180E0,1.620799082E1
1.295927871E1,1.271201523E1,-1.466949463E0,3.564836884E0,1.328364912E1
1.296928771E1,9.852511597E0,-1.578018494E0,4.696483612E0,1.102810435E1
1.297929671E1,6.773713989E0,-1.560504913E0,6.025869141E0,9.199428009E0
1.298930471E1,5.892197113E0,-1.656156006E0,4.931644592E0,7.860149993E0
1.299931371E1,5.898783417E0,-1.584604797E0,2.859204254E0,6.744009722E0
1.300932171E1,5.348827057E0,-1.504371643E0,1.398691406E0,5.729696552E0
1.301933071E1,4.595443726E0,-1.339863739E0,4.215234375E-1,4.805311632E0
1.302933971E1,3.937711487E0,-1.141077118E0,-3.221301270E-1,4.112346843E0
1.303934771E1,3.388054504E0,-9.268725586E-1,-1.017733612E0,3.657018973E0
1.304935671E1,2.826721802E0,-7.533833313E-1,-1.356928253E0,3.224778577E0
1.305936571E1,2.162253571E0,-5.980064392E-1,-1.455872498E0,2.674418990E0
1.306937371E1,1.439107361E0,-4.400848389E-1,-1.309476929E0,1.994851997E0
1.307938271E1,8.190966797E-1,-2.791694641E-1,-9.345066833E-1,1.273639549E0
1.308939071E1,3.153941345E-1,-9.505233765E-2,-3.468287659E-1,4.783289661E-1
1.309939971E1,-5.044509888E-2,2.514770508E-2,2.782713318E-1,2.839226112E-1
1.310940871E1,-3.727249146E-1,9.819580078E-2,6.337820435E-1,7.417856536E-1
1.311941671E1,-6.321354675E-1,1.164578247E-1,8.684939575E-1,1.080481110E0
1.312942571E1,-8.517288208E-1,1.362167358E-1,1.086440735E0,1.387209593E0
1.313943371E1,-1.013242950E0,7.649093628E-2,1.304537201E0,1.653580796E0
1.314944271E1,-1.007854156E0,-1.692979431E-1,1.340911560E0,1.685964296E0
1.315945171E1,-5.724096680E-1,-7.228468323E-1,1.336121521E0,1.623385687E0
1.316945971E1,4.580474854E-2,-1.284179535E0,1.563199310E0,2.023563005E0
1.317946871E1,7.306306458E-1,-1.409468994E0,1.972448273E0,2.531990556E0
1.318947671E1,1.762734375E0,-1.190175018E0,2.722388763E0,3.454728590E0
1.319948571E1,3.398083649E0,-1.070723419E0,4.266427917E0,5.558401596E0
1.320949471E1,6.544690247E0,-1.347048798E0,6.651268616E0,9.427984147E0
1.321950271E1,1.228195953E1,-1.713935852E0,9.300609283E0,1.550114316E1
1.322951171E1,2.088442062E1,-9.976753235E-1,1.062191162E1,2.345163933E1
1.323952071E1,3.198788086E1,1.707798615E0,9.501790924E0,3.341294852E1
1.324952871E1,4.190236359E1,4.088897095E0,5.090614014E0,4.240803585E1
1.325953771E1,4.469450729E1,1.979932709E0,-2.350262604E0,4.480003181E1
1.326954571E1,3.777589462E1,-2.405348053E0,-1.022987686E1,3.921038503E1
1.327955471E1,2.625674881E1,-1.679806824E0,-8.145012360E0,2.754232807E1
1.328956371E1,2.010199768E1,-1.248104553E0,4.236190796E-2,2.014075148E1
1.329957171E1,1.638851990E1,-1.260528717E0,3.973636780E0,1.691042005E1
1.330958071E1,1.331735641E1,-9.192384338E-1,5.385351105E0,1.439440821E1
1.331958871E1,1.077863571E1,-6.355783081E-1,5.697003021E0,1.220814445E1
1.332959771E1,8.723110199E0,-4.730163574E-1,5.361700287E0,1.025008419E1
1.333960671E1,7.141050110E0,-3.847000122E-1,4.698579254E0,8.556824047E0
1.334961471E1,6.085744629E0,-4.038601685E-1,3.773802338E0,7.172236388E0
1.335962371E1,5.505850525E0,-4.704716492E-1,2.668949890E0,6.136695128E0
1.336963271E1,5.095853119E0,-5.721102905E-1,1.593286743E0,5.369691969E0
1.337964071E1,4.632416840E0,-6.786886597E-1,6.010002136E-1,4.720286573E0
1.338964971E1,4.039649506E0,-6.791377258E-1,-7.095245361E-2,4.096953799E0
1.339965771E1,3.327580261E0,-6.153703308E-1,-5.053491211E-1,3.421527257E0
1.340966671E1,2.529290314E0,-5.218148804E-1,-8.304730225E-1,2.712800343E0
1.341967571E1,1.722767487E0,-4.011657715E-1,-9.728269958E-1,2.018725874E0
1.342968371E1,9.626481628E-1,-2.803669739E-1,-8.939410400E-1,1.343289883E0
1.343969271E1,3.845503235E-1,-1.790277100E-1,-7.231462097E-1,8.383736117E-1
1.344970071E1,4.146377563E-2,-2.978805542E-2,-5.703140259E-1,5.725946743E-1
1.345970971E1,-1.691482544E-1,1.029858398E-1,-3.478765869E-1,4.002940605E-1
1.346971871E1,-2.915936279E-1,1.881587219E-1,-5.373825073E-2,3.511671227E-1
1.347972671E1,-4.176315308E-1,2.474354553E-1,1.089733887E-1,4.975093964E-1
1.348973571E1,-5.231620789E-1,2.856060791E-1,1.504371643E-1,6.147363122E-1
1.349974471E1,-5.496569824E-1,3.162922668E-1,1.872605896E-1,6.612337898E-1
1.350975271E1,-3.519181824E-1,2.656974792E-1,3.195854187E-1,5.445882825E-1
1.351976171E1,2.189945984E-1,6.541397095E-2,5.628295898E-1,6.074658582E-1
1.352976971E1,9.038204956E-1,-4.056564331E-2,7.671546936E-1,1.186197026E0
1.353977871E1,1.664388885E0,-6.496490479E-2,1.048719177E0,1.968304528E0
1.354978771E1,2.890339508E0,6.691085815E-2,1.656455383E0,3.332024005E0
1.355979571E1,5.107079773E0,1.902543640E-1,2.969973907E0,5.910939480E0
1.356980471E1,8.679850159E0,1.074765015E-1,4.733007660E0,9.886997091E0
1.357981271E1,1.384036880E1,6.080355835E-1,6.451284485E0,1.528216567E1
1.358982171E1,2.161924255E1,1.985022125E0,7.733967133E0,2.304660949E1
1.359983071E1,3.278108139E1,3.152743835E0,6.874903564E0,3.364228574E1
1.360983871E1,4.483356812E1,3.609144745E0,2.814147949E0,4.506655283E1
1.361984771E1,4.956807266E1,3.453618164E0,9.276210022E-1,4.969689916E1
1.362985571E1,4.139476913E1,1.433419189E0,9.964778137E-1,4.143156490E1
1.363986471E1,2.865491180E1,-5.718109131E-1,1.490300903E0,2.869933684E1
1.364987371E1,2.099174744E1,-1.626218262E0,1.804048462E0,2.113179209E1
1.365988171E1,1.607207794E1,-2.372715912E0,2.141895905E0,1.638686023E1
1.366989071E1,1.237895782E1,-2.651735687E0,2.229763184E0,1.285465452E1
1.367989971E1,9.585466919E0,-2.706521759E0,2.078278198E0,1.017475682E1
1.368990771E1,7.491770782E0,-2.654579773E0,1.814676361E0,8.152697316E0
1.369991671E1,5.923781433E0,-2.495760040E0,1.527872772E0,6.607147634E0
1.370992471E1,4.663851471E0,-2.309696960E0,1.285077667E0,5.360749500E0
1.371993371E1,3.627257080E0,-2.148332520E0,1.061742096E0,4.347369644E0
1.372994271E1,2.719993744E0,-1.986069946E0,8.364605713E-1,3.470231417E0
1.373995071E1,1.918560333E0,-1.773362274E0,6.520440674E-1,2.692740049E0
1.374995971E1,1.177451477E0,-1.553619232E0,5.843847656E-1,2.035099568E0
1.375996771E1,5.089416504E-1,-1.300196228E0,5.785469055E-1,1.511373004E0
1.376997671E1,-8.083190918E-3,-9.765692139E-1,6.179150391E-1,1.155669400E0
1.377998133E1,-3.794609070E-1,-6.870712280E-1,6.785389709E-1,1.037531969E0
1.378998933E1,-7.011419678E-1,-4.393363953E-1,7.617658997E-1,1.124679427E0
1.379999833E1,-9.386979675E-1,-2.263293457E-1,8.885522461E-1,1.312213375E0
1.381000733E1,-1.114731903E0,-7.798782349E-2,1.040785675E0,1.527070443E0
1.382001533E1,-1.209335175E0,1.945953369E-3,1.128652954E0,1.654192505E0
1.383002433E1,-1.261277161E0,5.628295898E-2,1.140178986E0,1.701174878E0
1.384003233E1,-1.361119537E0,1.029858398E-1,7.226971436E-1,1.544520521E0
1.385004133E1,-1.651964722E0,3.246748352E-1,-1.174607391E0,2.052828223E0
1.386005033E1,-1.563199310E0,4.743635559E-1,-2.022294617E0,2.599670822E0
1.387005833E1,-8.168513489E-1,5.583389282E-2,-8.735833740E-1,1.197293390E0
1.388006733E1,-7.589218140E-2,-5.258564758E-1,6.442602539E-1,8.350783982E-1
1.389007533E1,2.372566223E-1,-4.415817261E-1,9.948312378E-1,1.113990268E0
1.390008433E1,6.116281128E-1,4.370910645E-2,9.328601074E-1,1.116345562E0
1.391009333E1,1.440753937E0,5.060975647E-1,1.446891174E0,2.103663643E0
1.392010133E1,4.798870697E0,-4.430786133E-1,3.096311188E0,5.728230232E0
1.393011033E1,8.509205017E0,-1.371298370E0,5.881419525E0,1.043446812E1
1.394011833E1,1.616862717E1,-1.811832275E0,9.180109863E0,1.868105077E1
1.395012733E1,3.197860016E1,-1.058898010E0,1.122979752E1,3.390959282E1
1.396013633E1,5.338663193E1,2.134411469E0,6.847061462E0,5.386622719E1
1.397014433E1,6.645221191E1,5.913452911E0,-6.058501282E0,6.698933371E1
1.398015333E1,5.344710617E1,3.198398895E0,-6.525230713E0,5.393886863E1
1.399016233E1,3.394925217E1,-5.069956970E-1,-3.004252625E-1,3.395436677E1
1.400017033E1,2.306134369E1,-1.559008026E0,1.992356873E0,2.319968889E1
1.401017933E1,1.630559235E1,-1.960772552E0,3.390299835E0,1.676935013E1
1.402018733E1,1.134505783E1,-1.736538849E0,3.825444946E0,1.209793096E1
1.403019633E1,7.896080017E0,-1.364861755E0,3.574416962E0,8.774245487E0
1.404020533E1,5.466033325E0,-1.079255676E0,3.145708466E0,6.398264990E0
1.405021333E1,3.740721130E0,-9.306147766E-1,2.669249268E0,4.688702389E0
1.406022233E1,2.474504242E0,-8.925938416E-1,2.173779602E0,3.412508281E0
1.407023033E1,1.562001801E0,-9.511221313E-1,1.757944336E0,2.536700854E0
1.408023933E1,9.015751648E-1,-1.025667114E0,1.398691406E0,1.954780923E0
1.409024833E1,4.306544495E-1,-1.042581940E0,1.104702759E0,1.578863053E0
1.410025633E1,9.684860229E-2,-9.416917419E-1,8.349636841E-1,1.262270709E0
1.411026533E1,-1.670526123E-1,-7.770341492E-1,6.327342224E-1,1.015894306E0
1.412027433E1,-3.929328918E-1,-5.807922363E-1,5.032534790E-1,8.631222065E-1
1.413028233E1,-5.953120422E-1,-3.709286499E-1,4.279600525E-1,8.216655630E-1
1.414029133E1,-7.246430969E-1,-1.574725342E-1,4.137396240E-1,8.491676474E-1
1.415029933E1,-8.177494812E-1,-2.604583740E-2,4.715194702E-1,9.443109713E-1
1.416030833E1,-8.849597168E-1,5.658233643E-2,5.840853882E-1,1.061843210E0
1.417031733E1,-1.048719177E0,1.194515991E-1,6.171665955E-1,1.222691786E0
1.418032533E1,-1.211430817E0,1.796264648E-1,5.315446472E-1,1.335054307E0
1.419033433E1,-1.322050781E0,2.395019531E-1,4.049079895E-1,1.403256902E0
1.420034233E1,-1.362017670E0,2.891986084E-1,1.612147522E-1,1.401684046E0
1.421035133E1,-1.453627167E0,3.312611389E-1,-4.400848389E-1,1.554490446E0
1.422036033E1,-1.053808594E0,2.631527710E-1,-4.020639038E-1,1.158195716E0
1.423036833E1,-2.269281006E-1,-4.191284180E-3,1.663041687E-1,2.813734284E-1
1.424037733E1,3.989204407E-1,2.701881409E-1,4.314028931E-1,6.467206550E-1
1.425038533E1,9.711804199E-1,7.584727478E-1,6.595285034E-1,1.397658815E0
1.426039433E1,1.452279968E0,1.149160309E0,1.107696533E0,2.157933764E0
1.427040333E1,2.363285522E0,1.739382935E0,1.908830566E0,3.500600746E0
1.428041133E1,6.986421661E0,1.245559845E0,3.872596893E0,8.084461247E0
1.429042033E1,1.826471832E1,-1.020877075E0,9.029972076E0,2.040055198E1
1.430042933E1,3.440385681E1,-2.449206848E0,1.320015015E1,3.693058274E1
1.431043733E1,5.357808380E1,-2.384990387E0,1.446711548E1,5.554814734E1
1.432044633E1,5.963314224E1,-2.092648315E-1,8.697064362E0,6.026437068E1
1.433045433E1,4.651876373E1,-4.620890808E-1,-1.084943848E0,4.653370831E1
1.434046333E1,3.152594147E1,-1.850751343E0,-2.991828461E0,3.172162202E1
1.435047233E1,2.262110916E1,-1.789079590E0,-1.733994141E0,2.275790239E1
1.436048033E1,1.675929886E1,-1.786983948E0,6.571334839E-2,1.685442755E1
1.437048933E1,1.256412277E1,-1.653311920E0,1.499880981E0,1.276088807E1
1.438049733E1,9.358239441E0,-1.328337708E0,2.295626221E0,9.726819945E0
1.439050633E1,7.039261780E0,-9.984237671E-1,2.676883392E0,7.596957359E0
1.440051533E1,5.441484375E0,-7.417076111E-1,2.856360168E0,6.190208058E0
1.441052333E1,4.360282745E0,-6.162684631E-1,2.918480988E0,5.282933249E0
1.442053233E1,3.634142761E0,-5.914201355E-1,2.871778107E0,4.669462590E0
1.443054133E1,3.140169983E0,-5.623805237E-1,2.593207397E0,4.111163337E0
1.444054933E1,2.838846588E0,-5.879772949E-1,2.113155670E0,3.587505280E0
1.445055833E1,2.507286072E0,-6.331832886E-1,1.610950012E0,3.046730127E0
1.446056633E1,2.045346680E0,-6.201603699E-1,1.147513733E0,2.425866792E0
1.447057533E1,1.570084991E0,-5.614823914E-1,7.643106079E-1,1.834284618E0
1.448058433E1,1.017883301E0,-4.656816101E-1,4.391867065E-1,1.202427020E0
1.449059233E1,5.285508728E-1,-3.427871704E-1,2.260299683E-1,6.692971058E-1
1.450060133E1,1.240919495E-1,-1.454974365E-1,8.487350464E-2,2.092171784E-1
1.451060933E1,-1.607656860E-1,4.385879517E-2,1.945953369E-2,1.677732791E-1
1.452061833E1,-3.769161987E-1,2.342628479E-1,5.179229736E-2,4.467967601E-1
1.453062733E1,-5.331912231E-1,3.613485718E-1,1.142124939E-1,6.541484270E-1
1.454063533E1,-6.415658569E-1,5.144801331E-1,9.220825195E-2,8.275257808E-1
1.455064433E1,-9.071136475E-1,8.294252014E-1,-6.830296326E-1,1.406175954E0
1.456065333E1,-1.539548492E0,1.751657410E0,-3.024011536E0,3.818790255E0
1.457066133E1,-1.683998108E0,2.016606445E0,-3.130140839E0,4.086604073E0
1.458067033E1,-9.949809265E-1,1.051563263E0,-5.140310669E-1,1.536229240E0
1.459067833E1,-1.646575928E-1,3.315605164E-1,6.086343384E-1,7.123764852E-1
1.460068733E1,4.168830872E-1,2.186952209E-1,1.085392914E0,1.183087860E0
1.461069633E1,1.088237000E0,4.930746460E-1,1.495689697E0,1.914280555E0
1.462070433E1,2.087858276E0,8.446934509E-1,1.838776245E0,2.907534572E0
1.463071333E1,5.407505035E0,2.368075562E-1,3.602408752E0,6.501887214E0
1.464072133E1,1.364487534E1,-9.770182800E-1,7.807613983E0,1.575106421E1
1.465073033E1,2.810405731E1,-1.955683136E0,1.206311462E1,3.064606775E1
1.466073933E1,4.795832016E1,-7.107220459E-1,1.350925735E1,4.982976653E1
1.467074733E1,6.136055008E1,2.070494385E0,8.641380157E0,6.200062503E1
1.468075633E1,5.362194260E1,6.036946106E-1,-6.810836792E-1,5.362966576E1
1.469076433E1,3.531052139E1,-2.783162384E0,-3.203488312E0,3.556460672E1
1.470077333E1,2.417278244E1,-2.988535309E0,-1.658850403E0,2.441324515E1
1.471078233E1,1.756806702E1,-2.372117157E0,2.773731995E-1,1.772966030E1
1.472079033E1,1.287757095E1,-1.605561218E0,1.766476593E0,1.309695003E1
1.473079933E1,9.540709991E0,-1.044078827E0,2.602937164E0,9.944371756E0
1.474080833E1,7.157815247E0,-6.505471802E-1,2.888842621E0,7.746156623E0
1.475081633E1,5.436694336E0,-4.242178345E-1,2.855012970E0,6.155380178E0
1.476082533E1,4.236939240E0,-4.076023865E-1,2.810256042E0,5.100522802E0
1.477083333E1,3.361709290E0,-4.900808716E-1,2.910547485E0,4.473539457E0
1.478084258E1,2.772983551E0,-6.951544189E-1,2.876867523E0,4.055742125E0
1.479085158E1,2.520009613E0,-9.105564880E-1,2.265838165E0,3.509071695E0
1.480085958E1,2.361489258E0,-1.041085052E0,1.466949463E0,2.968573787E0
1.481086858E1,2.077230377E0,-1.075663147E0,8.265811157E-1,2.480962230E0
1.482087658E1,1.612746277E0,-9.770182800E-1,3.770658875E-1,1.922938885E0
1.483088558E1,1.112187195E0,-8.009843445E-1,9.924362183E-2,1.374185422E0
1.484089458E1,6.252497864E-1,-5.472619629E-1,-6.451583862E-2,8.334238086E-1
1.485090258E1,2.215393066E-1,-2.547702026E-1,-1.675016785E-1,3.768876926E-1
1.486091158E1,-7.649093628E-2,2.844085693E-3,-1.782792664E-1,1.940166203E-1
1.487092058E1,-2.814147949E-1,2.146536255E-1,-1.333726501E-1,3.782310531E-1
1.488092858E1,-5.032534790E-1,4.388873291E-1,-1.603166199E-1,6.867223386E-1
1.489093758E1,-8.035290527E-1,7.466473389E-1,-7.406597900E-1,1.323524881E0
1.490094558E1,-1.311871948E0,1.106199646E0,-1.924098816E0,2.578146993E0
1.491095458E1,-1.504671021E0,1.114731903E0,-1.841021576E0,2.626027901E0
1.492096358E1,-1.393601990E0,8.427474976E-1,-4.604425049E-1,1.692441181E0
1.493097158E1,-9.683363342E-1,4.827461243E-1,5.279521179E-1,1.203932106E0
1.494098058E1,-2.891986084E-1,1.580712891E-1,8.777746582E-1,9.376090433E-1
1.495098858E1,3.329077148E-1,3.953279114E-1,1.252295837E0,1.354753324E0
1.496099758E1,1.029409332E0,1.016536102E0,1.756148071E0,2.275320916E0
1.497100658E1,2.644700317E0,1.830243988E0,2.878364410E0,4.316157377E0
1.498101458E1,7.104526062E0,1.683848419E0,5.464386749E0,9.119712639E0
1.499102358E1,1.470003113E1,6.605763245E-1,8.731792145E0,1.711056604E1
1.500103158E1,2.547387680E1,-2.754272461E-2,1.132260452E1,2.787688166E1
1.501104058E1,3.851341095E1,-1.318757629E-1,1.243973145E1,4.047279497E1
1.502104958E1,4.789200806E1,7.328759766E-1,9.824370117E0,4.889478286E1
1.503105758E1,4.694747223E1,1.819915466E0,1.721719666E0,4.701426974E1
1.504106658E1,3.586167526E1,3.317102051E-1,-3.524570618E0,3.603598732E1
1.505107558E1,2.620525589E1,-1.545835419E0,-2.616109772E0,2.638084672E1
1.506108358E1,2.050989944E1,-2.431842957E0,-4.224215698E-1,2.065788652E1
1.507109258E1,1.646141830E1,-2.812501373E0,1.490300903E0,1.676631902E1
1.508110058E1,1.346749420E1,-2.803370361E0,2.741698608E0,1.402673151E1
1.509110958E1,1.116737732E1,-2.584824829E0,3.261417847E0,1.191757030E1
1.510111858E1,9.300609283E0,-2.338886261E0,3.348836060E0,1.015807191E1
1.511112658E1,7.796537018E0,-2.112257538E0,3.100951538E0,8.652370878E0
1.512113558E1,6.573280792E0,-1.952839050E0,2.719394989E0,7.376768251E0
1.513114358E1,5.549260254E0,-1.801653442E0,2.236199799E0,6.248266482E0
1.514115258E1,4.613855438E0,-1.641636200E0,1.661245422E0,5.171302328E0
1.515116158E1,3.695664825E0,-1.432221680E0,1.139131165E0,4.123932256E0
1.516116958E1,2.783910828E0,-1.177451477E0,7.132667542E-1,3.105688481E0
1.517117858E1,1.900148621E0,-9.144483948E-1,3.619473267E-1,2.139576246E0
1.518118758E1,1.096320190E0,-6.628216553E-1,1.263372803E-1,1.287327315E0
1.519119558E1,4.083508301E-1,-4.143383789E-1,1.960922241E-2,5.820749215E-1
1.520120458E1,-3.068618774E-2,-1.901046753E-1,-2.469863892E-2,1.941428661E-1
1.521121258E1,-3.212319946E-1,-1.242416382E-2,5.388793945E-3,3.215173297E-1
1.522122158E1,-5.460644531E-1,1.166075134E-1,1.112187195E-1,5.693446256E-1
1.523123058E1,-7.378157043E-1,1.857637024E-1,1.573228455E-1,7.769367055E-1
1.524123858E1,-1.066382446E0,1.803749084E-1,-2.463876343E-1,1.109240053E0
1.525124758E1,-2.304008789E0,4.096980286E-1,-3.170556793E0,3.940652148E0
1.526125558E1,-3.162024536E0,5.068460083E-1,-4.707560577E0,5.693541836E0
1.527126458E1,-3.000360718E0,3.890409851E-1,-3.014581146E0,4.270973755E0
1.528127358E1,-2.477647705E0,3.620970154E-1,-1.911524963E-1,2.511253009E0
1.529128158E1,-1.682201843E0,1.636097717E-1,1.733245697E0,2.420890713E0
1.530129058E1,-1.012045441E0,-9.595046997E-2,2.118095398E0,2.349419201E0
1.531129858E1,-4.433779907E-1,-5.553451538E-2,2.348616028E0,2.390745777E0
1.532130758E1,1.883084106E-1,2.061213684E-1,2.742297363E0,2.756472547E0
1.533131658E1,9.357041931E-1,9.557624817E-1,3.630699921E0,3.869238449E0
1.534132458E1,2.230811005E0,2.474354553E0,5.406756592E0,6.350745235E0
1.535133358E1,6.085894318E0,3.424428864E0,8.559350739E0,1.104659711E1
1.536134258E1,1.611458954E1,2.702180786E0,1.317844528E1,2.099174116E1
1.537135058E1,3.104963196E1,1.507215729E0,1.557151886E1,3.476813978E1
1.538135958E1,4.950924500E1,4.450245667E-1,1.300390823E1,5.119047779E1
1.539136758E1,6.043846756E1,-2.863545227E-1,3.462898865E0,6.053826912E1
1.540137658E1,5.336552582E1,-1.165626068E0,-8.134833527E0,5.399456960E1
1.541138558E1,3.562127518E1,-1.741628265E0,-1.051443512E1,3.718147200E1
1.542139358E1,2.430046692E1,-1.790726166E0,-6.430028687E0,2.520048931E1
1.543140258E1,1.834944214E1,-2.179318085E0,-9.541159058E-1,1.850302114E1
1.544141058E1,1.406594971E1,-2.187550964E0,2.012115784E0,1.437654097E1
1.545141958E1,1.063209045E1,-1.914219360E0,3.507206726E0,1.135808444E1
1.546142858E1,7.720495148E0,-1.516945496E0,4.710404663E0,9.170337020E0
1.547143658E1,5.060077515E0,-1.158890076E0,6.353837128E0,8.204794751E0
1.548144558E1,3.821553040E0,-1.075513458E0,5.663173370E0,6.916106524E0
1.549145358E1,3.894601135E0,-1.187181244E0,3.496279449E0,5.366683082E0
1.550146258E1,4.125421143E0,-1.454674988E0,1.467099152E0,4.613844259E0
1.551147158E1,4.171076202E0,-1.624721375E0,-5.957611084E-2,4.476733803E0
1.552147958E1,3.832480316E0,-1.630259857E0,-1.089883575E0,4.305055027E0
1.553148858E1,3.153043213E0,-1.387165375E0,-1.503922577E0,3.758682269E0
1.554149758E1,2.432142334E0,-1.123563538E0,-1.543141022E0,3.091762534E0
1.555150558E1,1.686842194E0,-9.231303406E-1,-1.355730743E0,2.352788146E0
1.556151458E1,9.696835327E-1,-6.876699829E-1,-9.178912354E-1,1.501898958E0
1.557152258E1,3.894900513E-1,-4.634362793E-1,-3.586541748E-1,7.036394688E-1
1.558153158E1,-2.544708252E-2,-2.754272461E-1,-3.832031250E-2,2.792421319E-1
1.559154058E1,-3.445834351E-1,-9.969268799E-2,1.670526123E-1,3.957056368E-1
1.560154858E1,-5.637277222E-1,7.214996338E-2,3.201841736E-1,6.523131663E-1
1.561155758E1,-7.002438354E-1,1.814227295E-1,5.146298218E-1,8.877496772E-1
1.562156558E1,-8.494834900E-1,1.673519897E-1,7.708969116E-1,1.159271727E0
1.563157458E1,-1.099014587E0,1.336720276E-1,9.948312378E-1,1.488418780E0
1.564158358E1,-1.437760162E0,1.350192261E-1,1.079854431E0,1.803183315E0
1.565159158E1,-1.703757019E0,1.142124939E-1,1.153501282E0,2.060678937E0
1.566160058E1,-1.824555817E0,7.843688965E-2,1.278191986E0,2.229109918E0
1.567160958E1,-1.493294678E0,5.358856201E-2,1.526076508E0,2.135816058E0
1.568161758E1,-5.372328186E-1,-1.007405090E-1,2.132465515E0,2.201403399E0
1.569162658E1,1.919009399E-1,1.342707825E-1,2.726430359E0,2.736471654E0
1.570163458E1,1.051263885E0,1.107546844E0,3.396736450E0,3.724195790E0
1.571164358E1,2.237996063E0,2.439776459E0,4.515809326E0,5.599434741E0
1.572165258E1,4.662953339E0,3.290607147E0,6.141578522E0,8.383926048E0
1.573166058E1,1.233869156E1,2.696193237E0,8.590935059E0,1.527471547E1
1.574166958E1,2.555845093E1,1.227148132E0,1.232985992E1,2.840362217E1
1.575167758E1,4.265410034E1,-1.597178650E-1,1.329550186E1,4.467849769E1
1.576168658E1,5.663996658E1,-2.290536804E0,8.997489624E0,5.739588132E1
1.577169558E1,5.577701111E1,-2.898422699E0,-7.774832153E-1,5.585767899E1
1.578170358E1,4.168336899E1,-2.275567932E0,-5.757926331E0,4.214065941E1
1.579171258E1,2.919588684E1,-1.494941254E0,-4.613106995E0,2.959586819E1
1.580172158E1,2.145982407E1,-1.495839386E0,-3.020119629E0,2.172286139E1
1.581172958E1,1.591221039E1,-1.774859161E0,-1.757195892E0,1.610702648E1
1.582173858E1,1.153636002E1,-1.864822083E0,-3.210823059E-1,1.169051999E1
1.583174658E1,7.287295990E0,-1.696122894E0,3.364703064E0,8.203824866E0
1.584175558E1,5.280269623E0,-1.647623749E0,5.031187592E0,7.477216052E0
1.585176458E1,5.748945007E0,-1.716330872E0,3.767216034E0,7.084354382E0
1.586177258E1,5.784271545E0,-1.710493011E0,2.216590576E0,6.426263100E0
1.587178158E1,5.342839508E0,-1.570983124E0,1.090182953E0,5.674717689E0
1.588178958E1,4.792284393E0,-1.404229889E0,1.689985657E-1,4.996640051E0
1.589179858E1,4.137994995E0,-1.137484589E0,-4.125421143E-1,4.311271827E0
1.590180758E1,3.301983490E0,-8.095166016E-1,-6.508465576E-1,3.461504491E0
1.591181558E1,2.398911438E0,-4.685256958E-1,-6.453080750E-1,2.527986338E0
1.592182458E1,1.499431915E0,-1.763333130E-1,-3.920347595E-1,1.559833568E0
1.593183258E1,5.987548828E-1,5.777984619E-2,-8.652008057E-2,6.077266200E-1
1.594184158E1,-6.960525513E-2,2.683918762E-1,1.329235840E-1,3.074862110E-1
1.595185058E1,-4.245172119E-1,4.305047607E-1,2.883004761E-1,6.698256316E-1
1.596185858E1,-6.587800598E-1,5.306465149E-1,3.841012573E-1,9.290374949E-1
1.597186758E1,-8.780740356E-1,5.806425476E-1,4.216731262E-1,1.134005293E0
1.598187658E1,-1.159488831E0,6.433621216E-1,3.857478333E-1,1.380988978E0
1.599188458E1,-1.436263275E0,7.093748474E-1,1.926493835E-1,1.613436908E0
1.600189358E1,-1.703008575E0,7.662565613E-1,5.328918457E-2,1.868214940E0
1.601190158E1,-2.047741699E0,8.897497559E-1,1.646575928E-2,2.232749833E0
1.602191058E1,-2.351909180E0,1.283730469E0,4.442761230E-1,2.716030556E0
1.603191958E1,-2.343376923E0,1.707349548E0,8.750802612E-1,3.028567870E0
1.604192758E1,-1.446442108E0,1.539249115E0,9.469308472E-1,2.314770105E0
1.605193658E1,-5.077441406E-1,9.171427917E-1,1.086141357E0,1.509522461E0
1.606194458E1,-5.792953491E-2,9.065148926E-1,1.390308838E0,1.660747948E0
1.607195358E1,4.981640625E-1,1.237776031E0,1.835932159E0,2.269560273E0
1.608196258E1,1.203796692E0,2.158062286E0,2.471510468E0,3.494956838E0
1.609197058E1,2.599793701E0,3.615581360E0,3.305576019E0,5.546006552E0
1.610197958E1,7.783364410E0,5.703739014E0,4.727020111E0,1.074514399E1
1.611198758E1,2.024060944E1,7.031477966E0,8.072862396E0,2.289749026E1
1.612199658E1,3.829845795E1,5.233267365E0,1.026146118E1,3.999320635E1
1.613200558E1,5.927793091E1,-1.937870178E0,9.600884857E0,6.008165630E1
1.614201358E1,6.639607864E1,-9.147777100E0,4.078718262E0,6.714727863E1
1.615202258E1,5.117363388E1,-6.558461609E0,-2.174228668E0,5.163798499E1
1.616203158E1,3.342489258E1,-1.953437805E0,-2.526595917E0,3.357712093E1
1.617203958E1,2.284773788E1,-1.029559021E0,-5.343887329E-1,2.287716524E1
1.618204858E1,1.612357086E1,-1.319206696E0,1.151854706E0,1.621840353E1
1.619205658E1,1.137664215E1,-1.534758453E0,2.266137543E0,1.170123282E1
1.620206558E1,7.597600708E0,-1.656156006E0,3.270997925E0,8.435983443E0
1.621207458E1,4.156556396E0,-1.643582153E0,4.284989319E0,6.191886371E0
1.622208258E1,2.552492065E0,-1.779948578E0,3.245999908E0,4.496659659E0
1.623209158E1,2.503094788E0,-1.853894806E0,1.682052155E0,3.540015384E0
1.624209958E1,2.285597076E0,-1.881886597E0,5.307962036E-1,3.007855676E0
1.625210858E1,1.846859436E0,-1.805994415E0,-3.577560425E-2,2.583367085E0
1.626211758E1,1.439107361E0,-1.602866821E0,-3.189866638E-1,2.177605229E0
1.627212558E1,1.034498749E0,-1.324146423E0,-4.968168640E-1,1.752249528E0
1.628213458E1,6.098318481E-1,-9.913883972E-1,-4.995112610E-1,1.266592806E0
1.629214258E1,2.098635864E-1,-6.274951172E-1,-3.367996216E-1,7.424465180E-1
1.630215158E1,-1.221459961E-1,-2.927911377E-1,-1.236428833E-1,3.404906126E-1
1.631216058E1,-3.709286499E-1,-2.814147949E-2,1.945953369E-2,3.725032612E-1
1.632216858E1,-5.376818848E-1,1.615141296E-1,1.323248291E-1,5.768002112E-1
1.633217758E1,-7.122189331E-1,2.808160400E-1,3.722758484E-1,8.512947576E-1
1.634218658E1,-8.782237244E-1,3.144960022E-1,5.792953491E-1,1.098074563E0
1.635219458E1,-1.043779449E0,3.086581421E-1,6.222560120E-1,1.253773477E0
1.636220358E1,-1.322350159E0,2.588117981E-1,3.073109436E-1,1.382039618E0
1.637221158E1,-1.574276276E0,2.513273621E-1,-2.215393066E-1,1.609531267E0
1.638222058E1,-1.624122620E0,2.794688416E-1,-1.686991882E-1,1.656603916E0
1.639222958E1,-1.259630585E0,1.832189941E-1,6.120771790E-1,1.412401105E0
1.640223758E1,-5.959107971E-1,-6.406677246E-2,1.099912720E0,1.252606171E0
1.641224658E1,-9.430389404E-2,-7.110214233E-2,1.362616425E0,1.367725213E0
1.642225458E1,3.426374817E-1,2.790197754E-1,1.515298920E0,1.578411637E0
1.643226358E1,8.860075378E-1,8.863069153E-1,1.735341339E0,2.140551067E0
1.644227258E1,1.816772003E0,1.860930176E0,2.301464081E0,3.472817091E0
1.645228058E1,4.937931519E0,2.191891937E0,4.143234100E0,6.808373283E0
1.646228958E1,1.363903748E1,8.783734131E-1,8.198151855E0,1.593752104E1
1.647229758E1,2.808489716E1,-6.924600220E-1,1.190728867E1,3.051269363E1
1.648230658E1,4.915343491E1,-1.302740936E0,1.373349106E1,5.105258146E1
1.649231558E1,6.592126602E1,-1.018781433E0,7.115004272E0,6.631194851E1
1.650232358E1,6.169076340E1,2.854563904E-1,-7.489675140E0,6.214440448E1
1.651233258E1,4.093193161E1,1.646575928E-2,-6.417005768E0,4.143188699E1
1.652234158E1,2.737088196E1,-1.794468384E0,9.430389404E-2,2.742980476E1
1.653234958E1,2.031470535E1,-3.213966522E0,2.873873749E0,2.076718529E1
1.654235858E1,1.490660156E1,-3.585044861E0,3.801943817E0,1.579601512E1
1.655236658E1,1.046578629E1,-3.300187225E0,3.525917816E0,1.152631835E1
1.656237558E1,6.682553558E0,-2.763104095E0,3.319347382E0,7.956716241E0
1.657238458E1,3.737427979E0,-2.330653381E0,2.517913971E0,5.073480447E0
1.658239258E1,2.395318909E0,-1.895657959E0,1.594035187E0,3.445579770E0
