"Time (s)","Acceleration x (m/s^2)","Acceleration y (m/s^2)","Acceleration z (m/s^2)","Absolute acceleration (m/s^2)"
1.676999964E-3,-5.270240479E0,2.175126801E0,7.494165802E0,9.416428854E0
1.175599999E-2,-5.422922974E0,2.230062561E0,7.410040741E0,9.449337352E0
2.183500002E-2,-5.617218933E0,2.328857117E0,7.327113190E0,9.521728399E0
3.191299993E-2,-5.668711853E0,2.345771942E0,7.310797119E0,9.543830185E0
4.199199995E-2,-5.703589325E0,2.379152527E0,7.314389648E0,9.575572769E0
5.207099998E-2,-5.627397766E0,2.340981903E0,7.428153076E0,9.608603437E0
6.215000001E-2,-5.456004181E0,2.199376373E0,7.725734253E0,9.710417488E0
7.222899992E-2,-5.380710754E0,2.142344971E0,7.950417023E0,9.836199522E0
8.230799995E-2,-5.430108032E0,2.126477966E0,7.952812042E0,9.861805168E0
9.238599997E-2,-5.366340637E0,2.106569366E0,7.658673706E0,9.585954792E0
1.024650000E-1,-5.220543823E0,2.037263489E0,7.241191864E0,9.156384655E0
1.125439999E-1,-5.101391602E0,1.958976288E0,6.954238586E0,8.844389108E0
1.226229999E-1,-5.221441956E0,1.824406128E0,6.859485626E0,8.811609210E0
1.327020000E-1,-5.410199432E0,1.779349823E0,6.916966095E0,8.959953329E0
1.427800000E-1,-5.631888428E0,1.540147247E0,6.878645782E0,9.022526731E0
1.528590000E-1,-5.683980103E0,1.232087860E0,6.521787872E0,8.738385855E0
1.629379999E-1,-5.450615387E0,7.810757446E-1,5.902825012E0,8.072337365E0
1.730170000E-1,-5.058281250E0,3.318598938E-1,5.348827057E0,7.369280228E0
1.830960000E-1,-5.064568176E0,-2.011816406E-1,5.073399811E0,7.171451074E0
1.931740000E-1,-4.946463776E0,-1.043330383E0,5.453459473E0,7.436145668E0
2.032529999E-1,-4.544848938E0,-1.683399353E0,6.102809143E0,7.793187069E0
2.133320000E-1,-4.556225281E0,-2.434237976E0,5.826483765E0,7.786694831E0
2.234110000E-1,-4.694088593E0,-3.122955780E0,5.029391327E0,7.555269528E0
2.334900000E-1,-5.106780396E0,-3.591631165E0,4.066743164E0,7.451001301E0
2.435689999E-1,-5.653593292E0,-3.966751099E0,3.190166016E0,7.607587699E0
2.536469999E-1,-6.302344208E0,-4.112398224E0,2.311193848E0,7.872291831E0
2.637260000E-1,-6.877897339E0,-4.056863708E0,1.835632782E0,8.193482939E0
2.738050000E-1,-7.374863892E0,-3.998634796E0,1.395098877E0,8.504351741E0
2.838839999E-1,-7.969427490E0,-4.081712036E0,1.280886383E0,9.045043814E0
2.939629999E-1,-8.477321320E0,-4.178560638E0,1.342558136E0,9.546088629E0
3.040410000E-1,-8.611741791E0,-4.205504608E0,1.259031830E0,9.666101946E0
3.141200000E-1,-8.950337677E0,-4.299958191E0,9.095086670E-1,9.971228159E0
3.241990000E-1,-9.250613251E0,-4.220922546E0,3.776646423E-1,1.017510016E1
3.342779999E-1,-9.664053497E0,-4.084256744E0,4.056564331E-2,1.049174574E1
3.443570000E-1,-1.070214478E1,-3.994593201E0,-2.396516418E-1,1.142585273E1
3.544360000E-1,-1.205697739E1,-3.630999298E0,-5.011578369E-1,1.260182601E1
3.645140000E-1,-1.308474014E1,-3.117117920E0,-5.677693176E-1,1.346288271E1
3.745929999E-1,-1.384141663E1,-2.700085144E0,-7.087760925E-1,1.412011464E1
3.846720000E-1,-1.423524765E1,-2.438578949E0,-2.936892700E-1,1.444559436E1
3.947510000E-1,-1.457025101E1,-2.160457306E0,5.990542603E-1,1.474173179E1
4.048301249E-1,-1.518427414E1,-1.657503204E0,1.553918610E0,1.535331108E1
4.149081249E-1,-1.572480011E1,-1.078507233E0,2.595901794E0,1.597407971E1
4.249871250E-1,-1.669717804E1,-3.436853027E-1,3.796854401E0,1.712687880E1
4.350661250E-1,-1.758019180E1,6.390211487E-1,4.552782440E0,1.817138739E1
4.451451249E-1,-1.748049911E1,1.422192535E0,4.650379486E0,1.814432446E1
4.552241249E-1,-1.666095337E1,2.077080688E0,4.302652588E0,1.733246811E1
4.653021250E-1,-1.555325684E1,2.607876892E0,3.661086731E0,1.618976146E1
4.753811250E-1,-1.420066956E1,3.179837494E0,3.142565002E0,1.488778349E1
4.854601250E-1,-1.281754578E1,3.709136810E0,2.866239624E0,1.364780221E1
4.955391249E-1,-1.190130112E1,4.298161926E0,2.722688141E0,1.294326833E1
5.056181250E-1,-1.133083740E1,5.081483002E0,2.608176270E0,1.268904761E1
5.156971250E-1,-1.026834686E1,5.758375397E0,2.359543304E0,1.200688465E1
5.257751250E-1,-8.502469025E0,6.407425690E0,2.466421051E0,1.092841783E1
5.358541249E-1,-6.855144653E0,6.846612396E0,2.437531128E0,9.990528891E0
5.459331250E-1,-6.059848480E0,7.393574982E0,2.060315552E0,9.779141823E0
5.560121250E-1,-5.307662659E0,8.098459167E0,1.743574219E0,9.838514870E0
5.660911250E-1,-4.038751373E0,8.734636230E0,1.148112488E0,9.691416048E0
5.761691249E-1,-3.522175598E0,9.606123962E0,4.978646851E-1,1.024359350E1
5.862481249E-1,-2.977009277E0,1.025831772E1,-9.370513916E-2,1.068196833E1
5.963271250E-1,-2.588417358E0,1.096514786E1,-5.251080322E-1,1.127874596E1
6.064061250E-1,-2.654280396E0,1.152992340E1,-9.479786682E-1,1.186941454E1
6.164851249E-1,-3.084635468E0,1.182960022E1,-9.961784363E-1,1.226567523E1
6.265631249E-1,-3.698508911E0,1.225381805E1,-3.682342529E-1,1.280510139E1
6.366421250E-1,-4.199517059E0,1.267743713E1,2.297721863E-1,1.335687655E1
6.467211250E-1,-4.644691315E0,1.301543427E1,6.069877625E-1,1.383268306E1
6.568001250E-1,-4.844376068E0,1.333427124E1,8.644523621E-1,1.421330528E1
6.668791249E-1,-4.897066498E0,1.360700409E1,7.430548096E-1,1.448046791E1
6.769571250E-1,-5.221591644E0,1.388557480E1,-2.230361938E-2,1.483491504E1
6.870361250E-1,-6.358926544E0,1.435904022E1,-6.116281128E-1,1.571598142E1
6.971151250E-1,-8.149053955E0,1.492441452E1,-6.484515381E-1,1.701663065E1
7.071941249E-1,-9.943522339E0,1.552541473E1,7.457492065E-1,1.845178260E1
7.172731250E-1,-1.165835632E1,1.632954254E1,3.150498505E0,2.031001902E1
7.273521250E-1,-1.412223267E1,1.735221588E1,5.301375732E0,2.299220381E1
7.374301250E-1,-1.761851212E1,1.852981705E1,6.103108521E0,2.628714558E1
7.475091249E-1,-2.107093277E1,2.000993912E1,6.222111053E0,2.971694024E1
7.575881250E-1,-2.520832901E1,2.166594543E1,4.656816101E0,3.356425151E1
7.676671250E-1,-2.955798386E1,2.339919113E1,1.642684021E0,3.773453281E1
7.777461250E-1,-3.468961258E1,2.578552872E1,-1.287472687E0,4.324257506E1
7.878241250E-1,-4.035652817E1,2.848351822E1,-2.846331024E0,4.947789179E1
7.979031249E-1,-4.700285706E1,3.103840530E1,-1.734742584E0,5.635299910E1
8.079821250E-1,-5.565845764E1,3.385764267E1,9.328601074E-1,6.515423319E1
8.180611250E-1,-6.500442261E1,3.571318405E1,3.573069763E0,7.425478639E1
8.281401250E-1,-7.227570190E1,3.514331909E1,5.431305542E0,8.055016476E1
8.382181249E-1,-7.664511566E1,3.264980438E1,6.455026703E0,8.355926550E1
8.482971250E-1,-7.906303757E1,2.968746460E1,7.245981903E0,8.476328048E1
8.583761250E-1,-8.177599594E1,2.522284882E1,5.871091003E0,8.577864142E1
8.684551250E-1,-8.299610870E1,1.888547745E1,3.333867188E0,8.518292076E1
8.785341249E-1,-8.096243774E1,9.994865570E0,1.487157440E0,8.159059566E1
8.886121250E-1,-7.279063110E1,5.352868652E-1,-3.417393494E-1,7.279340145E1
8.986911250E-1,-6.176934998E1,-6.440806274E0,-9.931846619E-1,6.211218075E1
9.087701250E-1,-5.259148544E1,-1.209020828E1,-6.881190491E-1,5.396768464E1
9.188491249E-1,-4.338772476E1,-1.660511948E1,1.327140198E0,4.647564904E1
9.289281250E-1,-3.391242874E1,-2.073922256E1,4.021088104E0,3.995419033E1
9.390071250E-1,-2.398058212E1,-2.436737778E1,5.459147644E0,3.462137651E1
9.490851250E-1,-1.472562790E1,-2.643697403E1,4.134103088E0,3.054256900E1
9.591641249E-1,-7.555089111E0,-2.722897705E1,-7.379653931E-2,2.825777784E1
9.692431249E-1,-1.287622375E0,-2.639895309E1,-4.598587189E0,2.682740576E1
9.793221250E-1,3.801494751E0,-2.496029480E1,-8.293952637E0,2.657550243E1
9.894011250E-1,5.923931122E0,-2.367252274E1,-1.061158310E1,2.660990395E1
9.994791250E-1,5.465584259E0,-2.269475601E1,-1.045725403E1,2.557887260E1
1.009558125E0,4.105811920E0,-2.198927307E1,-8.277935944E0,2.385183526E1
1.019637125E0,3.180885315E0,-2.188748474E1,-5.852080536E0,2.287852413E1
1.029716125E0,3.505410461E0,-2.212683701E1,-4.429588623E0,2.283650748E1
1.039795125E0,5.034181366E0,-2.242337036E1,-3.978277130E0,2.332331900E1
1.049874125E0,6.800208893E0,-2.250450165E1,-4.231550446E0,2.388726553E1
1.059952125E0,7.780969391E0,-2.239103760E1,-4.477039948E0,2.412355563E1
1.070031125E0,8.043972473E0,-2.202459961E1,-4.177812195E0,2.381685529E1
1.080110125E0,7.800428925E0,-2.133588181E1,-3.633244629E0,2.300580384E1
1.090189125E0,6.634204102E0,-2.061363373E1,-3.376977539E0,2.191662695E1
1.100268125E0,4.866979065E0,-1.952659424E1,-3.160377960E0,2.037064939E1
1.110346125E0,2.844534760E0,-1.813808167E1,-2.357747040E0,1.851054714E1
1.120425125E0,3.263214111E-1,-1.678085403E1,-9.047186279E-1,1.680839265E1
1.130504125E0,-2.315085754E0,-1.538036636E1,5.424719238E-1,1.556308348E1
1.140583125E0,-4.385280762E0,-1.389081390E1,1.795965271E0,1.467688283E1
1.150662125E0,-5.795348511E0,-1.246802261E1,2.891986084E0,1.404995501E1
1.160740125E0,-7.889942780E0,-1.082084793E1,4.015998688E0,1.398106550E1
1.170819125E0,-9.892927551E0,-8.828640747E0,5.354814606E0,1.429996337E1
1.180898125E0,-1.204844513E1,-7.012766876E0,6.439459076E0,1.535612459E1
1.190977125E0,-1.570234680E1,-4.722679138E0,7.082372131E0,1.786133781E1
1.201056125E0,-2.102378082E1,-1.508862305E0,8.574319611E0,2.275510893E1
1.211135125E0,-2.496718048E1,4.002377014E0,1.329101120E1,2.856624059E1
1.221213125E0,-3.094784363E1,1.076935501E1,1.884176834E1,3.779894531E1
1.231292125E0,-3.897684723E1,1.736748413E1,1.952315140E1,4.692523378E1
1.241371125E0,-4.205115417E1,2.194421677E1,1.540865753E1,4.987258710E1
1.251450125E0,-3.691593292E1,2.249073029E1,9.028624878E0,4.416033423E1
1.261529125E0,-2.520832901E1,2.004541534E1,2.783461761E0,3.232686479E1
1.271607125E0,-1.213616272E1,1.630678986E1,-1.358275452E0,2.037259810E1
1.281686125E0,-4.320016479E-1,1.320314392E1,-2.876717834E0,1.351980548E1
1.291765125E0,9.792636108E0,1.151809799E1,-4.981640625E0,1.591788449E1
1.301844125E0,1.767000504E1,1.161794037E1,-7.617958374E0,2.247752002E1
1.311923125E0,2.221275833E1,1.336241272E1,-1.001627106E1,2.779004124E1
1.322001125E0,2.314007996E1,1.499312164E1,-1.228585144E1,3.018607531E1
1.332080125E0,2.196487381E1,1.557136917E1,-1.366927460E1,3.019556735E1
1.342159125E0,1.970966354E1,1.475257187E1,-1.302157150E1,2.785086243E1
1.352238125E0,1.774260406E1,1.239018448E1,-1.003258713E1,2.385308104E1
1.362317125E0,1.674747345E1,9.233548737E0,-5.707032166E0,1.995761773E1
1.372395125E0,1.518038223E1,6.842570801E0,-9.550140381E-1,1.667863399E1
1.382474125E0,1.245410156E1,5.476960602E0,3.563339996E0,1.406410804E1
1.392553125E0,7.755222931E0,5.785768433E0,7.237299957E0,1.208292637E1
1.402632000E0,-1.425335999E0,6.782395935E0,1.054841446E1,1.262147079E1
1.412711000E0,-1.254151978E1,6.721023560E0,1.057790314E1,1.773002850E1
1.422789000E0,-1.984513184E1,6.724616089E0,4.752616882E0,2.148574147E1
1.432868000E0,-2.327554825E1,7.767497406E0,-4.484075317E0,2.494377866E1
1.442947000E0,-3.120934982E1,7.464377747E0,-1.155327484E1,3.410599084E1
1.453026000E0,-4.529206467E1,8.104596405E0,-1.158021881E1,4.744635995E1
1.463105000E0,-6.375856339E1,9.755064240E0,-4.199966125E0,6.463710543E1
1.473184000E0,-7.729790817E1,8.533005524E0,6.326444092E0,7.802437238E1
1.483262000E0,-7.529163025E1,3.757486267E0,1.570084991E1,7.700301927E1
1.493341000E0,-6.513974121E1,-1.109043732E0,2.336266708E1,6.921148804E1
1.503420000E0,-5.245167618E1,-5.942791901E0,2.565589828E1,5.869173900E1
1.513499000E0,-4.266412949E1,-1.113938553E1,1.916389847E1,4.807877764E1
1.523578000E0,-3.470398270E1,-1.505569153E1,9.107810211E0,3.891005615E1
1.533656000E0,-2.741518982E1,-1.683399353E1,-1.645378418E0,3.221309115E1
1.543735000E0,-2.049328400E1,-1.605501343E1,-1.219469101E1,2.874801965E1
1.553814000E0,-1.624002869E1,-1.401340897E1,-1.949051926E1,2.898265867E1
1.563893000E0,-1.415082321E1,-1.189097260E1,-2.188733505E1,2.864780031E1
1.573972000E0,-1.242326569E1,-9.136849823E0,-2.170067322E1,2.662214817E1
1.584050000E0,-1.231264572E1,-6.353837128E0,-1.947150879E1,2.389795275E1
1.594129000E0,-1.305450302E1,-4.264182587E0,-1.609198654E1,2.115550361E1
1.604208000E0,-1.299492691E1,-2.663411407E0,-1.203946381E1,1.791397707E1
1.614287000E0,-1.229752716E1,-1.151705017E0,-7.863447876E0,1.464204259E1
1.624366000E0,-1.095287338E1,1.978884888E-1,-4.405788116E0,1.180743681E1
1.634444000E0,-9.152866516E0,1.160686340E0,-1.871857452E0,9.414138759E0
1.644523000E0,-7.268435211E0,2.089205475E0,-3.206332397E-1,7.569526776E0
1.654602000E0,-5.731581116E0,2.533780975E0,-7.843688965E-2,6.267154096E0
1.664681000E0,-4.185446320E0,2.636018372E0,-6.388714600E-1,4.987455312E0
1.674760000E0,-2.529140625E0,2.435734863E0,-1.298250275E0,3.743635987E0
1.684838000E0,-1.270258484E0,1.927242279E0,-1.719174957E0,2.878086509E0
1.694917000E0,-2.113604736E-1,1.335971832E0,-2.149080963E0,2.539299701E0
1.704996000E0,7.298822021E-1,7.583230591E-1,-2.597997437E0,2.803100528E0
1.715075000E0,1.174008636E0,9.475296021E-2,-2.851121063E0,3.084828313E0
1.725154000E0,1.282083893E0,-4.140390015E-1,-2.646945648E0,2.970099101E0
1.735233000E0,1.172811127E0,-8.601113892E-1,-1.993105316E0,2.467335879E0
1.745311000E0,9.924362183E-1,-1.082997894E0,-1.360820160E0,2.002409947E0
1.755390000E0,4.999603271E-1,-1.154698792E0,-9.632469177E-1,1.584655878E0
1.765469000E0,-6.316864014E-1,-9.663903809E-1,-6.475534058E-1,1.323730898E0
1.775548000E0,-1.445543976E0,-6.438111877E-1,-5.083428955E-1,1.662077835E0
1.785627000E0,-2.358345795E0,-5.150788879E-1,-5.426216125E-1,2.474174481E0
1.795705000E0,-3.337908783E0,-5.432203674E-1,-5.266049194E-1,3.422577414E0
1.805784000E0,-3.860172729E0,-9.102571106E-1,8.921447754E-2,3.967046853E0
1.815863000E0,-4.589456177E0,-1.568588104E0,1.347647552E0,5.033858417E0
1.825942000E0,-5.684578857E0,-2.146236877E0,2.543361053E0,6.587067251E0
1.836021000E0,-6.901697845E0,-2.550396423E0,2.887495422E0,7.904149852E0
1.846099000E0,-8.422834625E0,-3.028352509E0,1.623823242E0,9.096805151E0
1.856178000E0,-1.043704605E1,-3.341201935E0,-1.977388000E-1,1.096059584E1
1.866257000E0,-1.187345901E1,-3.831432495E0,-1.670675812E0,1.258769485E1
1.876336000E0,-1.282727554E1,-4.175866241E0,-2.468816071E0,1.371393122E1
1.886415000E0,-1.398377060E1,-4.578678589E0,-3.141367493E0,1.504587410E1
1.896493000E0,-1.575473785E1,-4.756359100E0,-3.234623566E0,1.677192614E1
1.906572000E0,-1.800949905E1,-4.652475128E0,-2.465223541E0,1.876339277E1
1.916651000E0,-2.087933121E1,-4.280199280E0,-6.649172974E-1,2.132389956E1
1.926730000E0,-2.429597626E1,-3.562890930E0,2.778522034E0,2.471252393E1
1.936809000E0,-2.620615402E1,-2.768492889E0,7.369924164E0,2.736316582E1
1.946887000E0,-2.627695679E1,-2.062860260E0,1.101349731E1,2.856625585E1
1.956966000E0,-2.497436554E1,-8.448431396E-1,1.210936844E1,2.776813818E1
1.967045000E0,-2.455089615E1,1.210981750E-1,1.001761826E1,2.651629390E1
1.977124000E0,-2.532912781E1,1.762285309E0,6.796167297E0,2.628418260E1
1.987203000E0,-2.693648529E1,3.666924591E0,2.952909393E0,2.734483954E1
1.997281000E0,-2.891028076E1,5.495971069E0,-1.317260742E-1,2.942834320E1
2.007360000E0,-3.049054459E1,6.693181458E0,-1.469194794E0,3.125108831E1
2.017439000E0,-3.023547501E1,6.473139038E0,-6.026467896E-1,3.092650418E1
2.027518000E0,-2.724409561E1,5.612129517E0,2.310744781E0,2.791193803E1
2.037597000E0,-2.356295059E1,4.571942596E0,5.189408569E0,2.455697988E1
2.047675000E0,-2.086256607E1,4.042194214E0,7.378456421E0,2.249505760E1
2.057754000E0,-1.913186508E1,3.688928833E0,8.467741241E0,2.124474286E1
2.067833000E0,-1.729293915E1,3.286116486E0,8.480764160E0,1.953887578E1
2.077912000E0,-1.467203934E1,2.644999695E0,7.656128998E0,1.675950694E1
2.087991000E0,-1.115136063E1,2.264191589E0,5.521717529E0,1.264787618E1
2.098069000E0,-8.785979462E0,1.462009735E0,3.619772644E0,9.614242641E0
2.108148000E0,-6.577322388E0,5.614823914E-1,2.651735687E0,7.113939445E0
2.118227000E0,-3.736679535E0,-8.369096375E-1,1.792971497E0,4.228231128E0
2.128306000E0,-6.239025879E-1,-2.279160461E0,2.083367615E0,3.150277363E0
2.138385000E0,2.292782135E0,-3.212020569E0,3.043022003E0,4.983363218E0
2.148463000E0,4.090244293E0,-3.935615845E0,3.774101715E0,6.816378379E0
2.158542000E0,5.026846619E0,-4.347409515E0,3.601959686E0,7.559316768E0
2.168621000E0,5.461392975E0,-4.579427032E0,2.503992920E0,7.554332910E0
2.178700000E0,5.512436829E0,-4.535268860E0,1.106798401E0,7.223615862E0
2.188779000E0,4.823719025E0,-4.099674683E0,-4.128414917E-1,6.343976342E0
2.198857000E0,3.939208374E0,-3.699556732E0,-1.685045929E0,5.660694517E0
2.208936000E0,2.727927246E0,-3.149151306E0,-2.243534546E0,4.732038490E0
2.219015000E0,1.847009125E0,-2.807861023E0,-2.211650848E0,4.023297864E0
2.229094000E0,1.406624908E0,-2.596201172E0,-1.588796082E0,3.353077265E0
2.239173000E0,9.669891357E-1,-2.256407776E0,-1.306782532E-1,2.458357347E0
2.249251000E0,2.993774414E-3,-1.883383484E0,1.452729034E0,2.378563423E0
2.259330000E0,-1.085243225E0,-1.629062347E0,2.424657898E0,3.116177612E0
2.269409000E0,-2.002386017E0,-1.653910675E0,2.822829895E0,3.835797036E0
2.279488000E0,-3.356619873E0,-1.582658844E0,2.722538452E0,4.602599441E0
2.289567000E0,-4.602179718E0,-1.578916626E0,2.287692719E0,5.376483409E0
2.299645000E0,-4.395160217E0,-1.791923676E0,1.790127411E0,5.072768469E0
2.309724000E0,-3.080294495E0,-2.187700653E0,1.620679779E0,4.111064493E0
2.319803000E0,-1.918111267E0,-2.493814087E0,2.025887146E0,3.741988544E0
2.329882000E0,-1.467997284E0,-2.564467163E0,2.780767365E0,4.057607052E0
2.339961000E0,-1.668430481E0,-2.454595642E0,3.557502136E0,4.632981922E0
2.350039000E0,-2.570454712E0,-1.952240295E0,4.370461578E0,5.433177156E0
2.360118000E0,-3.980073395E0,-1.147214355E0,4.837640076E0,6.368661281E0
2.370197000E0,-5.027295685E0,-1.351689148E-1,4.864733734E0,6.996971262E0
2.380276000E0,-5.284161530E0,6.258485413E-1,4.319567413E0,6.853664137E0
2.390355000E0,-4.823719025E0,1.142274628E0,3.502416687E0,6.069594649E0
2.400433000E0,-4.288581848E0,1.582509155E0,3.081791382E0,5.513048849E0
2.410512625E0,-4.068090363E0,1.913919983E0,3.406166840E0,5.640427416E0
2.420591625E0,-5.036127319E0,1.854044495E0,3.840114441E0,6.598980094E0
2.430670625E0,-6.946903839E0,2.670895844E0,4.011957092E0,8.455114267E0
2.440749625E0,-1.055694672E1,4.622387695E0,4.753664703E0,1.246647184E1
2.450827625E0,-1.525642410E1,7.398215332E0,5.840853882E0,1.793342244E1
2.460906625E0,-2.069506439E1,1.099643280E1,7.178322601E0,2.450990697E1
2.470985625E0,-2.630854111E1,1.489702148E1,8.625213776E0,3.143970256E1
2.481064625E0,-3.035223221E1,1.733006195E1,8.997639313E0,3.609080992E1
2.491143625E0,-3.124138321E1,1.745834518E1,8.328979797E0,3.674492817E1
2.501221625E0,-2.886926605E1,1.622835297E1,7.915988617E0,3.405079791E1
2.511300625E0,-2.452170685E1,1.437894882E1,8.113877106E0,2.956185511E1
2.521379625E0,-2.117182297E1,1.191282715E1,8.635991364E0,2.578258880E1
2.531458625E0,-1.913126633E1,9.296118622E0,9.164841614E0,2.316068856E1
2.541537625E0,-1.678863785E1,6.621929626E0,9.540260925E0,2.041384068E1
2.551615625E0,-1.371537872E1,3.727398834E0,9.367669830E0,1.702228991E1
2.561694625E0,-1.118713623E1,6.944059753E-1,8.402327271E0,1.400833039E1
2.571773625E0,-9.172775116E0,-2.151925049E0,6.311325531E0,1.134034456E1
2.581852625E0,-7.509883118E0,-4.460424500E0,2.948418732E0,9.218834209E0
2.591931625E0,-6.319259033E0,-6.244564362E0,-7.900570679E-1,8.919182079E0
2.602009625E0,-5.214406586E0,-7.457342377E0,-3.557053070E0,9.770087917E0
2.612088625E0,-4.414619751E0,-7.966433716E0,-4.569996643E0,1.019008356E1
2.622167625E0,-4.133204956E0,-8.083041229E0,-4.312232666E0,1.005058651E1
2.632246625E0,-4.372257843E0,-8.026309204E0,-3.570525055E0,9.812590242E0
2.642325625E0,-4.835245056E0,-7.787705383E0,-2.673889618E0,9.548698109E0
2.652403625E0,-5.335355072E0,-7.391778717E0,-1.513203278E0,9.240897711E0
2.662482625E0,-5.758375397E0,-6.796766052E0,-4.137396240E-1,8.917740547E0
2.672561625E0,-6.279142456E0,-6.039191437E0,5.420228577E-1,8.728874611E0
2.682640625E0,-6.676865387E0,-4.939578094E0,1.097368011E0,8.377599877E0
2.692719625E0,-7.669151917E0,-3.135679321E0,1.464255066E0,8.413823080E0
2.702797625E0,-9.050329742E0,-9.385482788E-1,1.381776581E0,9.203186831E0
2.712876625E0,-9.789792023E0,1.482068024E0,7.599696350E-1,9.930463600E0
2.722955625E0,-9.553732910E0,3.984114990E0,-3.465293884E-1,1.035698158E1
2.733034625E0,-9.302405548E0,6.046226807E0,-1.319955139E0,1.117290871E1
2.743113625E0,-9.060508575E0,7.804919586E0,-1.638492737E0,1.207038706E1
2.753191625E0,-8.584797821E0,9.051227875E0,-6.125262451E-1,1.248994268E1
2.763270625E0,-8.245752869E0,1.013856674E1,1.238075409E0,1.312691154E1
2.773349625E0,-7.635771332E0,1.082533859E1,3.413202209E0,1.368001860E1
2.783428625E0,-6.657106476E0,1.128548172E1,4.963528290E0,1.401127322E1
2.793507625E0,-5.654790802E0,1.154758667E1,5.234913940E0,1.388264171E1
2.803585625E0,-4.724325714E0,1.181448166E1,4.921016693E0,1.364249375E1
2.813664625E0,-4.204756165E0,1.211026657E1,3.991749115E0,1.342656292E1
2.823743625E0,-3.979923706E0,1.250245102E1,2.733016663E0,1.340225557E1
2.833822625E0,-4.401147766E0,1.325987595E1,2.132315826E0,1.413298208E1
2.843901625E0,-5.342839508E0,1.398496811E1,1.748364258E0,1.507255932E1
2.853979625E0,-6.149062958E0,1.441113190E1,1.265767822E0,1.571921964E1
2.864058625E0,-5.757626953E0,1.467353622E1,1.324745178E0,1.581827687E1
2.874137625E0,-4.816983032E0,1.477367798E1,1.289418640E0,1.559254588E1
2.884216625E0,-4.246519318E0,1.499416946E1,1.252595215E0,1.563416256E1
2.894294625E0,-4.824467468E0,1.564351913E1,1.501826935E0,1.643930234E1
2.904373625E0,-6.672225037E0,1.674507843E1,1.745669861E0,1.810976537E1
2.914452625E0,-9.950707397E0,1.788959839E1,1.215023346E0,2.050684252E1
2.924531625E0,-1.351853806E1,1.913590668E1,9.580078125E-3,2.342933817E1
2.934610625E0,-1.582688782E1,2.016935760E1,-1.416654053E0,2.567684313E1
2.944688625E0,-1.745071106E1,2.098620895E1,-2.409389648E0,2.739988031E1
2.954767625E0,-1.931283875E1,2.145578247E1,-2.610720978E0,2.898537917E1
2.964846625E0,-2.165546722E1,2.320863739E1,-1.368603973E0,3.177220778E1
2.974925625E0,-2.677586929E1,2.575259720E1,-5.239105225E-2,3.715031876E1
2.985004625E0,-3.505739777E1,2.881223465E1,9.969268799E-1,4.538898398E1
2.995082625E0,-4.384053314E1,3.155004135E1,5.786965942E-1,5.401603785E1
3.005161625E0,-5.027475311E1,3.291924408E1,-1.450483704E0,6.011099179E1
3.015240625E0,-5.520235611E1,3.391721878E1,-4.601730652E0,6.495270414E1
3.025319625E0,-6.249444214E1,3.494393372E1,-8.457412720E0,7.209827759E1
3.035398625E0,-7.340809708E1,3.471984970E1,-1.229004272E1,8.212954298E1
3.045476625E0,-8.274747574E1,3.188444595E1,-1.395203659E1,8.976871370E1
3.055555625E0,-8.752524033E1,2.739558060E1,-1.207179657E1,9.250358805E1
3.065634625E0,-9.074339813E1,2.112781448E1,-8.917555847E0,9.359632285E1
3.075713625E0,-9.181816315E1,1.325239151E1,-5.390889587E0,9.292611396E1
3.085792625E0,-8.864161880E1,4.487368469E0,-1.837578735E0,8.877415027E1
3.095870625E0,-8.072039108E1,-4.508474579E0,-4.685256958E-2,8.084621249E1
3.105949625E0,-6.917579819E1,-1.206176743E1,2.604583740E-2,7.021949848E1
3.116028625E0,-5.721492096E1,-1.771595947E1,-4.321513367E-1,5.989648700E1
3.126107625E0,-4.652100906E1,-2.181563416E1,1.986369324E-1,5.138254212E1
3.136186625E0,-3.596975052E1,-2.460867599E1,1.359922028E0,4.360343191E1
3.146264625E0,-2.536774750E1,-2.650298676E1,1.827250214E0,3.673240754E1
3.156343625E0,-1.607896362E1,-2.769361084E1,1.253792725E0,3.204748272E1
3.166422625E0,-8.255482635E0,-2.779001038E1,-1.779798889E-1,2.899084937E1
3.176501625E0,-3.169209595E0,-2.707958771E1,-2.532134399E0,2.738173962E1
3.186579625E0,-8.090675354E-1,-2.618130569E1,-4.601431274E0,2.659489665E1
3.196658625E0,1.434467010E0,-2.538092010E1,-6.144572296E0,2.615348102E1
3.206737625E0,4.272565155E0,-2.507076508E1,-7.216343536E0,2.643621926E1
3.216816625E0,7.776927795E0,-2.474489273E1,-6.579118652E0,2.675958005E1
3.226895625E0,1.132484985E1,-2.438414291E1,-5.448070679E0,2.743210025E1
3.236973625E0,1.381567017E1,-2.393343018E1,-4.661007385E0,2.802511038E1
3.247052625E0,1.519445297E1,-2.324710739E1,-4.507127380E0,2.813562867E1
3.257131625E0,1.428853683E1,-2.243280075E1,-4.661606140E0,2.700228520E1
3.267210625E0,1.193138855E1,-2.131821854E1,-4.586761780E0,2.485684730E1
3.277289625E0,9.641600189E0,-1.954485626E1,-4.308789825E0,2.221547952E1
3.287367625E0,7.666607208E0,-1.741912674E1,-3.924389191E0,1.943202699E1
3.297446625E0,6.178701324E0,-1.544353500E1,-3.371888123E0,1.697199909E1
3.307525625E0,4.824916534E0,-1.359113708E1,-2.312541046E0,1.460639151E1
3.317604625E0,2.950664062E0,-1.209724365E1,-5.572911072E-1,1.246436103E1
3.327683625E0,6.550378418E-1,-1.066621948E1,1.547032928E0,1.079771381E1
3.337761625E0,-2.013462982E0,-9.166039124E0,3.407514038E0,9.984060212E0
3.347840625E0,-4.306544495E0,-7.662116547E0,4.625082092E0,9.932056173E0
3.357919625E0,-5.978717194E0,-5.920039215E0,5.720504150E0,1.017428579E1
3.367998625E0,-7.565118256E0,-4.219275970E0,6.421197052E0,1.078262841E1
3.378077625E0,-9.071735229E0,-2.102677460E0,7.059619446E0,1.168571176E1
3.388155625E0,-1.061981598E1,2.921923828E-1,6.783443756E0,1.260479976E1
3.398234625E0,-1.250349884E1,2.879861298E0,5.410498810E0,1.392496254E1
3.408313292E0,-1.389021515E1,5.451363831E0,4.097728729E0,1.547406945E1
3.418392292E0,-1.345866257E1,7.550299072E0,3.617377625E0,1.585017461E1
3.428471292E0,-1.118219650E1,8.329428864E0,3.443139954E0,1.436231585E1
3.438549292E0,-8.573571167E0,8.380622406E0,4.637506256E0,1.285485973E1
3.448628292E0,-5.556744690E0,8.881630554E0,6.105353851E0,1.212584506E1
3.458707292E0,-1.547182617E0,9.026678925E0,4.333638153E0,1.013188660E1
3.468786292E0,2.503244476E0,9.092392273E0,4.572990417E-1,9.441766390E0
3.478865292E0,6.093827820E0,9.130862274E0,-3.513942719E0,1.152628200E1
3.488943292E0,9.120833130E0,9.431586914E0,-5.609584808E0,1.426926314E1
3.499022292E0,9.990225220E0,9.507329407E0,-5.571114807E0,1.487384391E1
3.509101292E0,7.738457794E0,9.586215363E0,-4.480183411E0,1.310920659E1
3.519180292E0,4.002227325E0,9.554631042E0,-1.403780823E0,1.045367871E1
3.529258292E0,8.207432556E-1,9.773925018E0,2.165247345E0,1.004447738E1
3.539337292E0,-3.276686096E-1,9.405092010E0,2.773133240E0,9.810881225E0
3.549416292E0,-3.475772095E-1,8.780740356E0,7.393125916E-1,8.818661703E0
3.559495292E0,-3.381468201E-1,8.429271240E0,-3.082539825E0,8.981592770E0
3.569574292E0,-2.359094238E0,8.726553040E0,-6.652316437E0,1.122369670E1
3.579652292E0,-8.825497284E0,8.738677826E0,-7.742349701E0,1.463550038E1
3.589731292E0,-1.687919952E1,8.807085571E0,-7.382647705E0,2.041998090E1
3.599810292E0,-2.549573135E1,9.188492432E0,-5.469476166E0,2.764734852E1
3.609889292E0,-3.114273834E1,9.993518372E0,-9.762698364E-1,3.272145571E1
3.619968292E0,-3.507401321E1,1.000654129E1,3.573219452E0,3.664812640E1
3.630046292E0,-4.185386444E1,1.062610291E1,5.890999603E0,4.358169235E1
3.640125292E0,-4.737124100E1,1.174367889E1,5.451513519E0,4.910873107E1
3.650204292E0,-4.714940231E1,1.230516129E1,5.313350830E0,4.901749514E1
3.660283292E0,-4.260545151E1,1.076770844E1,6.546935577E0,4.443006199E1
3.670362292E0,-3.819831619E1,8.143515472E0,7.651788025E0,3.979922190E1
3.680440292E0,-3.545347412E1,5.051844635E0,6.378835144E0,3.637525944E1
3.690519292E0,-3.236913803E1,2.659968567E0,3.207230530E0,3.263622002E1
3.700598292E0,-2.696163300E1,7.780819702E-1,-3.068618774E-2,2.697287539E1
3.710677292E0,-2.106165207E1,-6.394702148E-1,-2.483934631E0,2.121725810E1
3.720755292E0,-1.640872787E1,-1.124910736E0,-4.831203461E0,1.714212068E1
3.730834292E0,-1.332753525E1,-1.033301239E0,-6.748117218E0,1.497424433E1
3.740913292E0,-1.130374374E1,-3.071612549E-1,-7.025191040E0,1.331248586E1
3.750992292E0,-9.948312378E0,6.499484253E-1,-5.758076019E0,1.151289675E1
3.761071292E0,-9.283694458E0,1.494492188E0,-4.151167603E0,1.027874906E1
3.771149292E0,-9.031169586E0,2.135608978E0,-2.445913696E0,9.597152891E0
3.781228292E0,-8.437504120E0,2.728076935E0,-1.087787933E0,8.934045115E0
3.791307292E0,-6.818321228E0,3.296744385E0,-3.987707520E-1,7.583999342E0
3.801386292E0,-5.119953003E0,3.709735565E0,-3.760180664E-1,6.333833460E0
3.811465292E0,-4.080215149E0,4.313280487E0,1.951940918E-1,5.940592980E0
3.821543292E0,-3.255879364E0,4.938679962E0,1.200054474E0,6.035846332E0
3.831622292E0,-2.368524628E0,5.350473633E0,2.408641205E0,6.327640118E0
3.841701292E0,-1.643731842E0,5.675597534E0,3.779789886E0,7.014347676E0
3.851780292E0,-1.047072601E0,5.832471313E0,5.530698853E0,8.105720971E0
3.861859292E0,-5.441184998E-1,6.069578247E0,7.432344360E0,9.611221969E0
3.871937292E0,-8.303233337E-1,6.179300079E0,8.709787903E0,1.071137674E1
3.882016292E0,-2.110311584E0,6.413263550E0,9.050180054E0,1.129110815E1
3.892095292E0,-3.012934570E0,6.660399628E0,8.595276031E0,1.128350424E1
3.902174292E0,-2.643502808E0,6.429429932E0,7.496411133E0,1.022359312E1
3.912252292E0,-1.877246246E0,6.180048523E0,6.475384369E0,9.145909246E0
3.922331292E0,-1.345102844E0,5.979016571E0,6.166277161E0,8.693728477E0
3.932410292E0,-1.363514557E0,5.830824738E0,6.336024170E0,8.717963716E0
3.942489292E0,-1.722917175E0,5.671555939E0,6.717880096E0,8.959068219E0
3.952568292E0,-2.223925323E0,5.448519745E0,7.372618561E0,9.433330043E0
3.962646292E0,-3.103795624E0,5.289400635E0,7.421566772E0,9.627614435E0
3.972725292E0,-4.121678925E0,5.347479858E0,7.106322327E0,9.802223983E0
3.982804292E0,-5.212909698E0,5.144651642E0,7.004084930E0,1.013405515E1
3.992883292E0,-5.669310608E0,4.923860779E0,6.682553558E0,1.005196547E1
4.002962292E0,-5.423671417E0,4.941374359E0,6.158792725E0,9.579359061E0
4.013040292E0,-5.018014984E0,4.846920776E0,6.088888092E0,9.260003974E0
4.023119292E0,-4.575385437E0,4.942272491E0,6.631659393E0,9.451937134E0
4.033198292E0,-5.087021484E0,5.468877411E0,7.860454102E0,1.084311516E1
4.043277292E0,-7.210805054E0,6.284980316E0,9.459578705E0,1.345289249E1
4.053355292E0,-1.013482452E1,7.505542145E0,1.074480606E1,1.656800194E1
4.063434292E0,-1.359996872E1,9.382489014E0,1.123997635E1,1.998317586E1
4.073513292E0,-1.680510361E1,1.186372925E1,1.053075119E1,2.310965814E1
4.083592292E0,-2.106823837E1,1.413525558E1,9.149124298E0,2.697003141E1
4.093671292E0,-2.627231644E1,1.635858215E1,7.637417908E0,3.187738969E1
4.103749292E0,-3.011916687E1,1.735880219E1,5.654042358E0,3.522017066E1
4.113828292E0,-3.075459549E1,1.700972809E1,3.979624329E0,3.536966784E1
4.123907292E0,-2.892659683E1,1.562046707E1,3.153641968E0,3.302563328E1
4.133986292E0,-2.706686417E1,1.311527664E1,4.064198456E0,3.035034310E1
4.144065292E0,-2.484817795E1,1.012539413E1,5.987249451E0,2.749186625E1
4.154143292E0,-2.210034210E1,7.257058868E0,7.337741089E0,2.439123754E1
4.164222292E0,-1.923859314E1,4.812192993E0,7.957602081E0,2.136829657E1
4.174301292E0,-1.720088058E1,2.775977325E0,8.683442688E0,1.946737065E1
4.184380292E0,-1.608195740E1,1.382225647E0,8.979976044E0,1.847105496E1
4.194458292E0,-1.526929733E1,5.418731689E-1,7.701484680E0,1.711017048E1
4.204537292E0,-1.421084839E1,1.417552185E-1,5.163362732E0,1.512047027E1
4.214616292E0,-1.317994217E1,-3.674858093E-1,2.210752716E0,1.336911923E1
4.224695292E0,-1.173589508E1,-8.428971863E-1,5.852828979E-2,1.176627106E1
4.234774292E0,-9.557774506E0,-1.222358093E0,-1.062640228E0,9.694040286E0
4.244852292E0,-7.306905212E0,-1.720671844E0,-1.445244598E0,7.644626042E0
4.254931292E0,-5.445376282E0,-2.451901245E0,-1.081501007E0,6.069068050E0
4.265010292E0,-3.682342529E0,-3.125051422E0,-1.817221069E-1,4.833075193E0
4.275089292E0,-2.280357971E0,-3.626209259E0,1.263372803E0,4.466042645E0
4.285168292E0,-1.397793274E0,-3.871399384E0,3.167712708E0,5.193838948E0
4.295246292E0,-1.121916962E0,-3.902684326E0,4.275259552E0,5.896396090E0
4.305325292E0,-1.440005493E0,-3.851041718E0,4.599185944E0,6.169007171E0
4.315404292E0,-1.941313019E0,-3.632346497E0,4.478387146E0,6.084290323E0
4.325483292E0,-2.523302765E0,-3.431464233E0,3.803590393E0,5.710455630E0
4.335561292E0,-2.686762848E0,-3.232677612E0,2.443518677E0,4.862065679E0
4.345640292E0,-2.268083496E0,-2.999163208E0,8.201445007E-1,3.848612698E0
4.355719292E0,-1.088686066E0,-2.885699158E0,-1.009500732E0,3.245240932E0
4.365798292E0,4.815486145E-1,-2.497556305E0,-2.415077820E0,3.507460255E0
4.375877292E0,1.773062897E0,-2.030228119E0,-3.589685211E0,4.489033099E0
4.385955292E0,2.583028564E0,-1.350192261E0,-4.181853790E0,5.097348019E0
4.396034292E0,2.765648804E0,-5.381309509E-1,-3.817661133E0,4.744779737E0
4.406113125E0,2.112407227E0,3.855981445E-1,-2.797532501E0,3.526632716E0
4.416192125E0,9.213340759E-1,1.488055573E0,-1.602866821E0,2.373256816E0
4.426271125E0,-3.155438232E-1,2.442470856E0,-8.143066406E-1,2.593901905E0
4.436349125E0,-6.526428223E-1,3.208877106E0,-4.643344116E-1,3.307331459E0
4.446428125E0,-3.939807129E-1,3.504512329E0,-5.542973328E-1,3.569884172E0
4.456507125E0,1.428030396E-1,3.678001556E0,-7.280859375E-1,3.752092388E0
4.466586125E0,8.723858643E-1,3.531905365E0,-1.165775757E0,3.820267755E0
4.476664125E0,1.362167358E0,3.375181274E0,-1.482068024E0,3.929869486E0
4.486743125E0,1.090033264E0,3.206482086E0,-1.656006317E0,3.769888169E0
4.496822125E0,4.469705200E-1,3.133284302E0,-1.392105103E0,3.457630660E0
4.506901125E0,-3.079096985E-1,3.044518890E0,-4.942721558E-1,3.099711054E0
4.516980125E0,-8.649014282E-1,2.915936279E0,9.198371887E-1,3.177552410E0
4.527058125E0,-9.521699524E-1,2.691103821E0,2.287243652E0,3.657888861E0
4.537137125E0,-8.517288208E-1,2.453098755E0,3.183579712E0,4.108322683E0
4.547216125E0,-6.598278809E-1,2.344424744E0,3.595074005E0,4.342379223E0
4.557295125E0,-1.115330658E0,2.533331909E0,3.677253113E0,4.602599645E0
4.567373125E0,-2.951711884E0,2.767145691E0,2.734214172E0,4.883198282E0
4.577452125E0,-6.302493896E0,3.429518280E0,1.091081085E0,7.257649956E0
4.587531125E0,-1.047087570E1,4.281845856E0,-9.366023254E-1,1.135124072E1
4.597610125E0,-1.441023376E1,5.852978668E0,-1.802551575E0,1.565763036E1
4.607689125E0,-1.861124771E1,8.566685486E0,-1.252894592E-1,2.048859046E1
4.617767125E0,-2.392190414E1,1.196177536E1,2.487377472E0,2.686128467E1
4.627846125E0,-2.931219498E1,1.469763611E1,4.178560638E0,3.305579602E1
4.637925125E0,-3.418665848E1,1.555490341E1,5.332211609E0,3.793567080E1
4.648004125E0,-3.736859161E1,1.393901367E1,5.583239594E0,4.027257511E1
4.658083125E0,-3.805102249E1,1.093865295E1,4.548591156E0,3.985252969E1
4.668161125E0,-3.644845505E1,8.331374817E0,2.759810944E0,3.749024191E1
4.678240125E0,-3.449067627E1,6.568939819E0,1.500330048E0,3.514269071E1
4.688319125E0,-3.274051575E1,4.920717316E0,1.952988739E0,3.316578049E1
4.698398125E0,-3.015763687E1,2.277962952E0,3.679498444E0,3.046655356E1
4.708476125E0,-2.592653549E1,-6.882687378E-1,5.660778351E0,2.654624960E1
4.718555125E0,-2.143707138E1,-3.148402863E0,7.206314392E0,2.283399740E1
4.728634125E0,-1.814017731E1,-4.817581787E0,7.811505890E0,2.032965202E1
4.738713125E0,-1.565953583E1,-5.981261902E0,7.163054352E0,1.822925955E1
4.748792125E0,-1.362167358E1,-6.912325745E0,5.412444763E0,1.620570260E1
4.758870125E0,-1.191582092E1,-7.784412231E0,2.941832428E0,1.453403729E1
4.768949125E0,-1.038151154E1,-8.649313660E0,1.152603149E-2,1.351245875E1
4.779028125E0,-8.664282532E0,-9.479337616E0,-2.932402039E0,1.317295013E1
4.789107125E0,-6.701564026E0,-1.036534515E1,-5.370232544E0,1.346071091E1
4.799186125E0,-4.741240540E0,-1.115210907E1,-6.507268066E0,1.375476049E1
4.809264125E0,-3.117117920E0,-1.158171570E1,-6.136339417E0,1.347246169E1
4.819343125E0,-2.253114624E0,-1.192465256E1,-5.261558533E0,1.322716380E1
4.829422125E0,-2.372117157E0,-1.196881073E1,-3.921545105E0,1.281631328E1
4.839501125E0,-2.762804718E0,-1.154519165E1,-2.696193237E0,1.217349572E1
4.849579125E0,-3.590433655E0,-1.116243759E1,-2.220332794E0,1.193403136E1
4.859658125E0,-4.755011902E0,-1.065080154E1,-2.290686493E0,1.188683963E1
4.869737125E0,-5.620063019E0,-1.014799713E1,-2.601739655E0,1.188848196E1
4.879816125E0,-6.858288116E0,-9.680519257E0,-2.938988342E0,1.222236562E1
4.889895125E0,-8.010741577E0,-8.961564331E0,-2.712958374E0,1.232240882E1
4.899973125E0,-8.550070038E0,-8.271050262E0,-1.801952820E0,1.203166672E1
4.910052125E0,-9.167835388E0,-7.425308990E0,-8.057743835E-1,1.182512967E1
4.920131125E0,-1.027657974E1,-6.352489929E0,1.974394226E-1,1.208309571E1
4.930210125E0,-1.170146667E1,-5.052144012E0,7.325765991E-1,1.276656375E1
4.940288125E0,-1.339684113E1,-3.422033844E0,9.996212769E-1,1.386307724E1
4.950367125E0,-1.507320511E1,-1.283131714E0,1.167422333E0,1.517269963E1
4.960446125E0,-1.634406235E1,1.059047699E0,1.008901978E0,1.640938266E1
4.970525125E0,-1.680779800E1,3.583847351E0,1.140478363E0,1.722343539E1
4.980604125E0,-1.560070816E1,5.832770691E0,1.703307953E0,1.674229874E1
4.990682125E0,-1.289673111E1,7.599396973E0,2.824326782E0,1.523329674E1
5.000761125E0,-9.752369843E0,8.976084137E0,3.452420654E0,1.369664238E1
5.010840125E0,-7.020700378E0,9.874216461E0,3.285218353E0,1.255320852E1
5.020919125E0,-5.305567017E0,1.038749908E1,2.768193512E0,1.198799708E1
5.030997125E0,-3.887865143E0,1.080093933E1,2.115850067E0,1.167272921E1
5.041076125E0,-2.895578613E0,1.116483261E1,1.299447784E0,1.160717137E1
5.051155125E0,-2.705473938E0,1.165491348E1,4.808001709E-1,1.197446309E1
5.061234125E0,-2.399510193E0,1.189651108E1,-4.676275635E-1,1.214509368E1
5.071313125E0,-1.475930786E0,1.187121368E1,-1.081051941E0,1.201135959E1
5.081391125E0,2.273771667E-1,1.173739197E1,-8.921447754E-1,1.177344439E1
5.091470125E0,1.433269501E0,1.145238464E1,-6.653663635E-1,1.156088612E1
5.101549125E0,1.573378143E0,1.163141235E1,3.023712158E-2,1.173738414E1
5.111628125E0,5.357359314E-1,1.187839874E1,2.106120300E-1,1.189233901E1
5.121706125E0,-1.107546844E0,1.202165085E1,1.995350647E-1,1.207421067E1
5.131785125E0,-2.757715302E0,1.263956589E1,5.560935974E-1,1.294885553E1
5.141864125E0,-4.852908325E0,1.328667023E1,6.194119263E-1,1.415874274E1
5.151943125E0,-7.621550903E0,1.445858322E1,6.815327454E-1,1.635858043E1
5.162022125E0,-9.640851746E0,1.563588501E1,6.884184265E-1,1.838207938E1
5.172100125E0,-1.090108109E1,1.671244629E1,1.198258209E0,1.998937849E1
5.182179125E0,-1.234931946E1,1.753962616E1,1.646575928E0,2.151407421E1
5.192258125E0,-1.502844818E1,1.815544556E1,1.502874756E0,2.361637336E1
5.202337125E0,-1.839734253E1,1.892215118E1,1.839824066E0,2.645552816E1
5.212415125E0,-2.206860809E1,2.001442978E1,2.779719543E0,2.992202706E1
5.222494125E0,-2.609373779E1,2.090507767E1,3.710334320E0,3.364033301E1
5.232573125E0,-3.084755219E1,2.123304565E1,3.987408142E0,3.766049823E1
5.242652125E0,-3.610237473E1,2.142913788E1,3.970493317E0,4.217053744E1
5.252731125E0,-4.133519302E1,2.180605408E1,2.778671722E0,4.681691140E1
5.262809125E0,-4.727618866E1,2.226769409E1,-4.769082642E-1,5.226007707E1
5.272888125E0,-5.432203674E1,2.263413208E1,-5.716312866E0,5.912583060E1
5.282967125E0,-6.010421265E1,2.246752853E1,-1.049781967E1,6.501930816E1
5.293046125E0,-6.411676849E1,2.120969421E1,-1.255544083E1,6.869097630E1
5.303124125E0,-6.579702438E1,1.827340027E1,-9.962383118E0,6.901025034E1
5.313203125E0,-6.564763504E1,1.486962845E1,-4.681365051E0,6.747320220E1
5.323282125E0,-6.568550629E1,1.241278748E1,-4.381388855E-1,6.684949510E1
5.333361125E0,-6.797095367E1,9.951605530E0,6.659651184E-1,6.869882463E1
5.343440125E0,-7.124314911E1,7.214996338E0,-7.524851990E-1,7.161151235E1
5.353518125E0,-7.243018066E1,3.996389465E0,-2.870131531E0,7.259710638E1
5.363597125E0,-6.982679443E1,-2.875520325E-1,-4.685107269E0,6.998438495E1
5.373676125E0,-6.316115570E1,-4.642146606E0,-4.861739960E0,6.351785284E1
5.383755125E0,-5.535878082E1,-8.436605988E0,-2.790946198E0,5.606746218E1
5.393833125E0,-4.840439255E1,-1.170356232E1,-9.295669556E-2,4.979926937E1
5.403912125E0,-4.183335709E1,-1.399844009E1,2.318827972E0,4.417423518E1
5.413990875E0,-3.538461731E1,-1.566028427E1,4.880900116E0,3.900177985E1
5.424069875E0,-2.941278580E1,-1.694461349E1,6.591093750E0,3.457852530E1
5.434148875E0,-2.391157562E1,-1.795875458E1,7.325915680E0,3.078878619E1
5.444226875E0,-1.871228760E1,-1.897259628E1,6.504573669E0,2.743024964E1
5.454305875E0,-1.393018204E1,-1.989901978E1,4.098477173E0,2.463368577E1
5.464384875E0,-9.419312439E0,-2.066812042E1,1.266516266E0,2.274859802E1
5.474463875E0,-4.775219879E0,-2.096914444E1,-1.212927704E0,2.154017031E1
5.484541875E0,-4.550537109E-2,-2.082289856E1,-3.212170258E0,2.106924804E1
5.494620875E0,3.756438446E0,-2.048475174E1,-4.296964417E0,2.126498970E1
5.504699875E0,6.852150879E0,-1.988210495E1,-4.309687958E0,2.146679946E1
5.514778875E0,9.052874451E0,-1.929203201E1,-3.155438232E0,2.154283699E1
5.524857875E0,1.041174866E1,-1.869028336E1,-1.224304047E0,2.142965521E1
5.534935875E0,1.093865295E1,-1.802027664E1,6.947053528E-1,2.109187318E1
5.545014875E0,1.100182159E1,-1.711301331E1,2.010319519E0,2.044349988E1
5.555093875E0,1.090871521E1,-1.596340393E1,2.320474548E0,1.947344178E1
5.565172875E0,1.027583130E1,-1.484672607E1,1.626817017E0,1.812910692E1
5.575250875E0,9.445358276E0,-1.366672989E1,1.838177490E-1,1.661409305E1
5.585329875E0,8.966803436E0,-1.249167343E1,-1.535057831E0,1.545321557E1
5.595408875E0,8.883127441E0,-1.098535583E1,-2.709814911E0,1.438509968E1
5.605487875E0,8.280031586E0,-9.419162750E0,-3.018023987E0,1.289914799E1
5.615566875E0,7.023843842E0,-8.002209320E0,-2.568508759E0,1.095294360E1
5.625644875E0,5.975124664E0,-6.536008301E0,-1.507215729E0,8.982940416E0
5.635723875E0,4.589007111E0,-5.008135529E0,-2.709365845E-1,6.798074313E0
5.645802875E0,3.040926361E0,-3.520379333E0,4.649331665E-1,4.675090014E0
5.655881875E0,1.447489929E0,-2.050735474E0,9.693841553E-1,2.690808191E0
5.665959875E0,3.143463135E-3,-8.493338013E-1,1.208736420E0,1.477302108E0
5.676038875E0,-1.037043457E0,2.610571289E-1,1.233285370E0,1.632361100E0
5.686117875E0,-1.028062134E0,1.363514557E0,1.225651245E0,2.101976373E0
5.696196875E0,-3.269201660E-1,1.945803680E0,1.015039215E0,2.218858573E0
5.706275875E0,3.200344849E-1,2.326462097E0,9.132508850E-1,2.519697430E0
5.716353875E0,6.563850403E-1,2.556383972E0,1.440304871E0,3.006728863E0
5.726432875E0,9.250762939E-1,2.890339508E0,2.525697784E0,3.948287973E0
5.736511875E0,5.060975647E-1,3.650159454E0,4.285139008E0,5.651744430E0
5.746590875E0,-4.724176025E-1,4.723577271E0,5.355712738E0,7.156746436E0
5.756668875E0,-2.424508209E0,5.387297058E0,4.297563171E0,7.305495114E0
5.766747875E0,-4.061354370E0,6.278543701E0,2.084265747E0,7.762658954E0
5.776826875E0,-3.703448639E0,6.304290161E0,-6.366261292E-1,7.339271019E0
5.786905875E0,-1.308878174E0,5.461692352E0,-2.685715027E0,6.225456660E0
5.796984875E0,1.991758118E0,4.597539368E0,-3.615431671E0,6.178658010E0
5.807062875E0,4.159999237E0,3.617976379E0,-3.797902222E0,6.694729869E0
5.817141875E0,2.726580048E0,3.403771820E0,-3.036136322E0,5.313946285E0
5.827220875E0,-1.462758179E0,4.819827118E0,-1.235231323E0,5.186153812E0
5.837299875E0,-6.861730957E0,7.009773102E0,5.141807556E-1,9.822660155E0
5.847377875E0,-1.007420059E1,8.529862061E0,6.200106812E-1,1.321485821E1
5.857456875E0,-1.051218979E1,8.490942993E0,-1.549278259E0,1.360156278E1
5.867535875E0,-1.002001328E1,7.194938049E0,-3.403023376E0,1.279642011E1
5.877614875E0,-9.868228912E0,4.203708344E0,-4.437522125E0,1.160795884E1
5.887692875E0,-1.217747681E1,5.864804077E-1,-5.376519470E0,1.332448356E1
5.897771875E0,-1.733140915E1,-1.923799438E0,-5.895340576E0,1.840743838E1
5.907850875E0,-2.377760422E1,-1.426683197E0,-4.057462463E0,2.416346186E1
5.917929875E0,-3.080025055E1,5.598358154E-1,-1.527124329E0,3.084316713E1
5.928008875E0,-3.877237244E1,2.638114014E0,2.446961517E0,3.893897958E1
5.938086875E0,-4.656456848E1,3.337459717E0,5.617368622E0,4.702076675E1
5.948165875E0,-4.829182663E1,3.136727142E0,6.837930450E0,4.887429661E1
5.958244875E0,-4.556315094E1,2.490670624E0,6.849606171E0,4.614240207E1
5.968323875E0,-4.200295441E1,1.631307678E0,7.454348602E0,4.269047501E1
5.978401875E0,-3.707789612E1,6.737489319E-1,7.195387115E0,3.777562592E1
5.988480875E0,-3.145364182E1,-5.975573730E-1,6.415957947E0,3.210690229E1
5.998559875E0,-2.555590622E1,-1.711690521E0,5.802832947E0,2.626227517E1
6.008638875E0,-1.970951385E1,-2.488275604E0,4.811444550E0,2.044031435E1
6.018717875E0,-1.524175461E1,-3.043022003E0,3.109034729E0,1.585046256E1
6.028795875E0,-1.261292130E1,-3.004252625E0,1.134191437E0,1.301528746E1
6.038874875E0,-1.163680115E1,-2.501148834E0,-5.709127808E-1,1.191624219E1
6.048953875E0,-1.126527374E1,-1.626966705E0,-1.659000092E0,1.150242124E1
6.059032875E0,-1.070394104E1,-8.520281982E-1,-2.647694092E0,1.105941182E1
6.069110875E0,-1.015278717E1,-3.121009827E-1,-3.229085083E0,1.065849355E1
6.079189875E0,-9.822124786E0,1.175056458E-1,-3.211122437E0,1.033437227E1
6.089268875E0,-9.508826294E0,4.728666687E-1,-2.529440002E0,9.850860221E0
6.099347875E0,-8.927135925E0,5.854325867E-1,-1.699266357E0,9.106261214E0
6.109426875E0,-8.029302979E0,5.411247253E-1,-1.074615326E0,8.118948232E0
6.119504875E0,-7.015012207E0,4.653822327E-1,-4.107458496E-1,7.042420680E0
6.129583875E0,-6.053262177E0,1.808239746E-1,2.020797729E-2,6.055996091E0
6.139662875E0,-5.080135803E0,1.930984497E-2,1.354682922E-1,5.081978385E0
6.149741875E0,-4.162693634E0,3.727249146E-2,1.676513672E-2,4.162894258E0
6.159819875E0,-3.451073456E0,-2.903961182E-2,-1.428030396E-1,3.454148810E0
6.169898875E0,-3.126398621E0,1.196012878E-1,1.522334290E-1,3.132386921E0
6.179977875E0,-3.670517120E0,2.025288391E-1,3.770658875E-1,3.695388010E0
6.190056875E0,-4.683610382E0,4.174818420E-1,8.014334106E-1,4.769988764E0
6.200134875E0,-5.348377991E0,4.710704041E-1,1.671124878E0,5.623140832E0
6.210213875E0,-5.028343506E0,7.499404907E-1,2.524649963E0,5.676311002E0
6.220292875E0,-3.934118958E0,5.950126648E-1,2.524649963E0,4.712238267E0
6.230371875E0,-2.937192078E0,3.936813354E-1,2.186054077E0,3.682514728E0
6.240450875E0,-2.141446838E0,1.164578247E-1,1.397194519E0,2.559591669E0
6.250528875E0,-1.462758179E0,-1.267863464E-1,1.924996948E-1,1.480808023E0
6.260607875E0,-1.356928253E0,-2.965333557E-1,-1.259929962E0,1.875262602E0
6.270686875E0,-2.376907196E0,-2.812651062E-1,-2.510130157E0,3.468364353E0
6.280765875E0,-3.989054718E0,-8.711883545E-2,-3.319197693E0,5.190107953E0
6.290843875E0,-5.758225708E0,-1.005908203E-1,-3.620521088E0,6.802606468E0
6.300922875E0,-7.367229767E0,-9.056167603E-2,-2.170336761E0,7.680796672E0
6.311001875E0,-9.491911469E0,-1.784289551E-1,-2.953358459E-1,9.498181062E0
6.321080875E0,-1.224483673E1,-2.426454163E-1,1.020278320E0,1.228966522E1
6.331159875E0,-1.578123276E1,-1.477427673E-1,8.505313110E-1,1.580482644E1
6.341237875E0,-2.013103729E1,1.395098877E-1,-7.080276489E-2,2.013164520E1
6.351316875E0,-2.430525696E1,4.498146057E-1,-1.350641327E0,2.434691112E1
6.361395875E0,-2.784180267E1,5.270539856E-1,-2.534529419E0,2.796189553E1
6.371474875E0,-3.110621429E1,6.878196716E-1,-2.474653931E0,3.121207420E1
6.381552875E0,-3.387335999E1,4.236190796E-1,-9.319619751E-1,3.388882593E1
6.391631875E0,-3.570046051E1,-5.312452698E-1,1.283131714E0,3.572746184E1
6.401710875E0,-3.580464386E1,-1.298998718E0,4.321213989E0,3.608784851E1
6.411789875E0,-3.430955292E1,-1.539847870E0,7.304061127E0,3.511218965E1
6.421867875E0,-3.206227615E1,-1.674717407E0,8.935069427E0,3.332611133E1
6.431946875E0,-2.939467346E1,-1.410067749E0,9.415121155E0,3.089789031E1
6.442025875E0,-2.593357086E1,-1.266216888E0,8.611592102E0,2.735530883E1
6.452104875E0,-2.160891403E1,-1.036594391E0,6.998097382E0,2.273748140E1
6.462182875E0,-1.706720856E1,-6.741979980E-1,5.414839783E0,1.791827672E1
6.472261875E0,-1.280557068E1,-2.079176331E-1,4.073329468E0,1.343941528E1
6.482340875E0,-9.220825195E0,3.751199341E-1,3.360811157E0,9.821373829E0
6.492419875E0,-6.507567444E0,1.057850189E0,2.914439392E0,7.208428263E0
6.502498875E0,-4.740791473E0,1.744622040E0,2.425855408E0,5.603890106E0
6.512576875E0,-3.421734467E0,2.355202332E0,2.334096222E0,4.764792751E0
6.522655875E0,-1.865271149E0,2.708617401E0,2.486479340E0,4.122914526E0
6.532734875E0,-1.246907043E-1,2.720891876E0,2.510878601E0,3.704498849E0
6.542813875E0,1.100062408E0,2.453697510E0,2.254162445E0,3.508848401E0
6.552891875E0,1.709894257E0,2.281854858E0,1.820065155E0,3.382785410E0
6.562970875E0,2.010319519E0,1.782942352E0,1.394949188E0,3.027565233E0
6.573049875E0,2.494263153E0,1.275946655E0,7.246430969E-1,2.893872174E0
6.583128875E0,3.452270966E0,7.801776123E-1,-7.388635254E-1,3.615628747E0
6.593206875E0,3.642225952E0,2.802172852E-1,-2.118095398E0,4.222636585E0
6.603285875E0,3.148702240E0,-3.266207886E-1,-2.902314606E0,4.294698710E0
6.613364875E0,2.740351410E0,-9.660910034E-1,-3.062930603E0,4.221895493E0
6.623443875E0,2.575095062E0,-1.433718567E0,-2.943628693E0,4.165526784E0
6.633522875E0,2.177821198E0,-1.830543365E0,-2.349065094E0,3.689430986E0
6.643600875E0,1.534309387E0,-2.141895905E0,-1.419498138E0,2.992791060E0
6.653679875E0,9.934840393E-1,-2.365830231E0,-5.935157776E-1,2.633709209E0
6.663758875E0,1.745370483E-1,-2.723436584E0,3.647914124E-1,2.753296712E0
6.673837875E0,-5.315446472E-1,-3.019221497E0,9.728269958E-1,3.216306969E0
6.683915875E0,-1.007105713E0,-3.236419830E0,8.490344238E-1,3.494214459E0
6.693994875E0,-9.801617432E-1,-3.276536407E0,3.588038635E-1,3.438771305E0
6.704073875E0,-1.159638519E0,-3.373834076E0,-1.869612122E-1,3.572460267E0
6.714152875E0,-1.414857788E0,-3.324436798E0,-6.981481934E-1,3.679825198E0
6.724231875E0,-1.640289001E0,-3.523971863E0,-1.179247742E0,4.061963926E0
6.734309875E0,-2.022593994E0,-3.666026459E0,-9.834548950E-1,4.300909205E0
6.744388875E0,-2.839894409E0,-3.712579651E0,-7.433541870E-1,4.732950810E0
6.754467875E0,-3.883075104E0,-3.584745483E0,-4.664300537E-1,5.305302012E0
6.764546875E0,-4.828209686E0,-3.188968506E0,-1.893562317E-1,5.789385519E0
6.774624875E0,-5.854625244E0,-2.961441650E0,4.105961609E-1,6.573839259E0
6.784703875E0,-6.964716797E0,-2.699636078E0,1.034498749E0,7.540921872E0
6.794782875E0,-7.688910828E0,-2.790796509E0,1.177301788E0,8.264014422E0
6.804861875E0,-8.305778046E0,-3.220103760E0,6.807843018E-1,8.934119119E0
6.814939875E0,-8.936716003E0,-3.708987122E0,-5.590873718E-1,9.691958372E0
6.825018875E0,-9.686207428E0,-3.782035217E0,-1.737287292E0,1.054251260E1
6.835097875E0,-1.051174072E1,-3.003055115E0,-2.247276764E0,1.116088195E1
6.845176875E0,-1.133832184E1,-1.367705841E0,-1.252595215E0,1.148900153E1
6.855254875E0,-1.299043625E1,7.402107239E-1,5.213658142E-1,1.302194948E1
6.865333875E0,-1.686662567E1,3.441792755E0,2.873274994E0,1.745235537E1
6.875412875E0,-2.210558121E1,6.118975525E0,5.640121307E0,2.362010902E1
6.885491875E0,-2.651301590E1,8.829239502E0,7.916737061E0,2.904428012E1
6.895570875E0,-2.856210480E1,1.078866486E1,8.651259613E0,3.173378976E1
6.905648875E0,-2.826317642E1,1.182436111E1,8.352630615E0,3.175514282E1
6.915727875E0,-2.702525070E1,1.262444733E1,7.970774689E0,3.087513716E1
6.925806875E0,-2.637455383E1,1.352377716E1,8.623118134E0,3.086855690E1
6.935885875E0,-2.657633423E1,1.450917801E1,1.002405487E1,3.189513229E1
6.945963875E0,-2.664653824E1,1.511871048E1,1.125000549E1,3.263703464E1
6.956042875E0,-2.557431793E1,1.462518677E1,1.224812988E1,3.190546209E1
6.966121875E0,-2.241603561E1,1.320044952E1,1.233599716E1,2.879075105E1
6.976200875E0,-1.799782333E1,1.133667526E1,1.127275818E1,2.407315783E1
6.986278875E0,-1.391042313E1,9.346713409E0,9.474996643E0,1.925192158E1
6.996357875E0,-1.093311447E1,7.651189270E0,7.436385956E0,1.527656785E1
7.006436875E0,-9.020092621E0,6.503675537E0,5.464985504E0,1.239055822E1
7.016515875E0,-7.588170319E0,5.551505585E0,3.842808838E0,1.015710209E1
7.026593875E0,-6.481371918E0,4.497846680E0,2.475851440E0,8.268533549E0
7.036672875E0,-5.992338867E0,3.297043762E0,1.525028687E0,7.007448549E0
7.046751875E0,-5.712121582E0,2.074086914E0,1.090931396E0,6.174163976E0
7.056830875E0,-5.492528229E0,7.515870667E-1,1.377884674E0,5.712382659E0
7.066909875E0,-5.370831299E0,-6.738986206E-1,2.189347229E0,5.838939071E0
7.076987875E0,-4.857698364E0,-1.919458466E0,3.084336090E0,6.065862125E0
7.087066875E0,-3.607797546E0,-3.039728851E0,3.621119843E0,5.947155920E0
7.097145875E0,-1.952389984E0,-4.081113281E0,3.551514587E0,5.751570927E0
7.107224875E0,-6.930587769E-1,-5.070256348E0,3.468736725E0,6.182229724E0
7.117302875E0,1.401086426E-1,-5.770949249E0,3.429967346E0,6.714771900E0
7.127381875E0,3.975732422E-1,-6.299649811E0,3.341651001E0,7.142148391E0
7.137460875E0,3.842509460E-1,-6.296506348E0,3.560046844E0,7.243450456E0
7.147539875E0,4.176315308E-1,-5.845793610E0,3.351380768E0,6.751257074E0
7.157617875E0,5.733078003E-1,-5.254972229E0,2.524500275E0,5.858030095E0
7.167696875E0,8.099656677E-1,-4.266128540E0,1.693278809E0,4.660803603E0
7.177775875E0,8.196954346E-1,-3.161874847E0,1.012644196E0,3.419766282E0
7.187854875E0,6.900650024E-1,-1.703607330E0,5.942642212E-1,1.931739529E0
7.197932875E0,1.099164276E0,6.945556641E-2,9.220825195E-1,1.436392131E0
7.208011875E0,4.715194702E-1,2.072590027E0,1.181493073E0,2.431848250E0
7.218090875E0,-2.248025208E0,4.372557220E0,1.504970398E0,5.141771084E0
7.228169875E0,-5.958209839E0,7.231611786E0,1.675016785E0,9.518516415E0
7.238248875E0,-8.348888397E0,9.504784698E0,2.012115784E0,1.280989772E1
7.248326875E0,-8.605305176E0,1.153636002E1,3.584895172E0,1.483207177E1
7.258405875E0,-7.060367889E0,1.319341415E1,4.775968323E0,1.570747737E1
7.268484875E0,-5.238057404E0,1.421593781E1,4.468807068E0,1.579558070E1
7.278563875E0,-4.479135590E0,1.547437088E1,4.366869049E0,1.669096627E1
7.288641875E0,-5.789959717E0,1.674178528E1,3.785328369E0,1.811462720E1
7.298720875E0,-7.968828735E0,1.762884064E1,3.123704224E0,1.959683091E1
7.308799875E0,-8.608149261E0,1.789049652E1,2.873873749E0,2.006063932E1
7.318878875E0,-7.486082611E0,1.773212585E1,2.623294830E0,1.942553464E1
7.328956875E0,-6.065686340E0,1.761791336E1,2.131717072E0,1.875440321E1
7.339035875E0,-5.479954376E0,1.772673706E1,2.712958374E0,1.875172658E1
7.349114875E0,-6.100264435E0,1.809631851E1,3.422632599E0,1.940114388E1
7.359193875E0,-7.767198029E0,1.883024231E1,4.099375305E0,2.077768679E1
7.369271875E0,-1.065184937E1,1.999092865E1,4.761897583E0,2.314680954E1
7.379350875E0,-1.427760956E1,2.117810989E1,4.222419434E0,2.588805321E1
7.389429875E0,-1.790516602E1,2.240435989E1,2.964136047E0,2.883290507E1
7.399508875E0,-2.100656662E1,2.284085220E1,1.185534668E0,3.105456268E1
7.409587375E0,-2.343781082E1,2.312630859E1,-5.438191223E-1,3.293103194E1
7.419666375E0,-2.489368332E1,2.529200500E1,-1.768572235E0,3.553180032E1
7.429745375E0,-3.108495850E1,2.907553711E1,-1.777703247E0,4.260072454E1
7.439824375E0,-4.278567673E1,3.277733917E1,-1.617686005E0,5.392202708E1
7.449902375E0,-5.560651566E1,3.617542282E1,-3.289559326E0,6.641962812E1
7.459981375E0,-6.694977722E1,3.685905121E1,-6.730004883E0,7.672128317E1
7.470060375E0,-7.217750610E1,3.262705170E1,-1.015697845E1,7.985788064E1
7.480139375E0,-6.993891129E1,2.606754227E1,-1.123922791E1,7.548038365E1
7.490218375E0,-6.593294174E1,1.878144379E1,-1.019978943E1,6.931039707E1
7.500296375E0,-6.259458389E1,1.260289215E1,-7.857610016E0,6.433239354E1
7.510375375E0,-5.933855484E1,6.633455658E0,-5.830525360E0,5.999218158E1
7.520454375E0,-5.369109879E1,-1.904040527E-1,-3.265908508E0,5.379067299E1
7.530533375E0,-4.567062744E1,-6.178102570E0,-2.029779053E-1,4.608705200E1
7.540611375E0,-3.738685364E1,-1.066981201E1,2.182611237E0,3.894079487E1
7.550690375E0,-2.955798386E1,-1.377555359E1,3.275638275E0,3.277453421E1
7.560769375E0,-2.171160049E1,-1.527588364E1,3.458707581E0,2.677141900E1
7.570848375E0,-1.419872360E1,-1.546000076E1,2.937192078E0,2.119534083E1
7.580926375E0,-7.671546936E0,-1.466994370E1,1.529519348E0,1.662526120E1
7.591005375E0,-2.785407715E0,-1.345147751E1,-5.697152710E-1,1.374864789E1
7.601084375E0,3.457809448E-2,-1.249032623E1,-2.742297363E0,1.278787081E1
7.611163375E0,9.541159058E-1,-1.187705154E1,-4.564009094E0,1.275950115E1
7.621241375E0,7.059320068E-1,-1.130284561E1,-5.863756256E0,1.275289365E1
7.631320375E0,5.837860107E-3,-1.067250641E1,-6.369105377E0,1.242851280E1
7.641399375E0,-4.195774841E-1,-1.034932846E1,-6.406826935E0,1.217916566E1
7.651478375E0,-1.380130005E-1,-1.001193008E1,-6.058052216E0,1.170289658E1
7.661557375E0,6.613247681E-1,-9.773176575E0,-5.782175903E0,1.137479182E1
7.671635375E0,1.606010284E0,-9.789642334E0,-5.321284332E0,1.125755004E1
7.681714375E0,2.725681915E0,-9.753267975E0,-4.524191895E0,1.109161352E1
7.691793375E0,3.966152344E0,-9.736951904E0,-3.685336304E0,1.114092907E1
7.701872375E0,5.275030518E0,-9.734556885E0,-2.787653046E0,1.141746707E1
7.711950375E0,6.594536591E0,-9.757608948E0,-1.703307953E0,1.189958416E1
7.722029375E0,7.721243591E0,-9.719288635E0,-8.096662903E-1,1.243936227E1
7.732108375E0,8.826096039E0,-9.672136688E0,-2.160008240E-1,1.309568081E1
7.742187375E0,9.103918304E0,-9.884544983E0,1.627116394E-1,1.343919764E1
7.752265375E0,8.342451782E0,-9.869127045E0,1.987866211E-1,1.292422866E1
7.762344375E0,6.877597961E0,-9.448801117E0,3.459306335E-1,1.169191448E1
7.772423375E0,4.745431824E0,-8.753796387E0,4.866380310E-1,9.969197106E0
7.782502375E0,2.235151978E0,-7.755821686E0,7.682025146E-1,8.107947304E0
7.792580375E0,-1.531315613E-1,-6.990912323E0,1.373394012E0,7.126185199E0
7.802659375E0,-2.095342712E0,-6.212830353E0,2.272574158E0,6.939331047E0
7.812738375E0,-3.838617554E0,-5.718707886E0,3.817212067E0,7.874624599E0
7.822817375E0,-5.238057404E0,-4.931045837E0,5.112767944E0,8.825692860E0
7.832896375E0,-5.827681274E0,-3.510649567E0,5.736820221E0,8.899305347E0
7.842974375E0,-6.128256226E0,-2.176623688E0,5.138065338E0,8.288119839E0
7.853053375E0,-6.525230713E0,-7.839198303E-1,4.042942657E0,7.716122827E0
7.863132375E0,-5.730982361E0,4.406835938E-1,3.379222870E0,6.667646365E0
7.873211375E0,-4.212689667E0,1.865271149E0,2.948718109E0,5.470002667E0
7.883289375E0,-2.882705383E0,2.958896942E0,2.077679443E0,4.624047287E0
7.893368375E0,-2.733316040E-1,3.820505219E0,2.445913696E-1,3.838071811E0
7.903447375E0,2.973267059E0,4.359384613E0,-1.681453400E0,5.538216026E0
7.913526375E0,5.788612518E0,4.206253052E0,-4.017345886E0,8.206075042E0
7.923604375E0,7.797285461E0,4.341721344E0,-5.774841156E0,1.063000448E1
7.933683375E0,7.326514435E0,4.762196960E0,-6.443650360E0,1.085711581E1
7.943762375E0,3.983965302E0,5.524262238E0,-5.488486633E0,8.747167445E0
7.953841375E0,1.466949463E-2,7.504045258E0,-2.473157043E0,7.901102213E0
7.963919375E0,-2.602488098E0,8.663833466E0,-7.426057434E-1,9.076696421E0
7.973998375E0,-3.690874786E0,9.043144684E0,-3.396437073E-1,9.773248196E0
7.984077375E0,-2.983445892E0,8.598269806E0,-1.003962250E0,9.156371183E0
7.994156375E0,-2.151026917E0,6.937623138E0,-2.639610901E0,7.728200134E0
8.004234375E0,-3.364852753E0,4.816983032E0,-4.404141541E0,7.343161600E0
8.014313375E0,-8.155490570E0,2.596500549E0,-5.508993988E0,1.017854883E1
8.024392375E0,-1.588122482E1,8.530760193E-1,-5.418582001E0,1.680184726E1
8.034471375E0,-2.310984283E1,9.472302246E-1,-3.909270630E0,2.345729050E1
8.044549375E0,-2.852992172E1,1.386267242E0,-1.738185425E0,2.861641939E1
8.054628375E0,-3.601256149E1,1.344055023E0,1.280437317E0,3.606037422E1
8.064707375E0,-4.595638321E1,2.231110382E0,4.702620850E0,4.625020707E1
8.074786375E0,-5.191908371E1,4.842130737E0,7.794441376E0,5.272372141E1
8.084864375E0,-5.166491226E1,5.804629211E0,1.017015106E1,5.297536080E1
8.094943375E0,-4.743620590E1,4.300407257E0,1.250275040E1,4.924434892E1
8.105022375E0,-4.165193436E1,1.950593719E0,1.430694855E1,4.408375243E1
8.115101375E0,-3.694631973E1,1.261875916E-1,1.430126038E1,3.961783075E1
8.125179375E0,-3.233246429E1,-1.095571747E0,1.195174622E1,3.448815394E1
8.135258375E0,-2.721760071E1,-2.009271698E0,7.067702637E0,2.819197371E1
8.145337375E0,-2.281794983E1,-2.674188995E0,9.898915100E-1,2.299543447E1
8.155416375E0,-1.906136169E1,-2.609373779E0,-4.474644928E0,1.975264004E1
8.165495375E0,-1.616757935E1,-1.990710297E0,-8.099956055E0,1.819238405E1
8.175573375E0,-1.407987076E1,-1.008602600E0,-9.150770874E0,1.682250419E1
8.185652375E0,-1.234108658E1,-1.025367737E-1,-8.102800140E0,1.476374959E1
8.195731375E0,-1.020622604E1,3.484753418E-1,-6.383924561E0,1.204337901E1
8.205810375E0,-7.964936829E0,6.532415771E-1,-4.392166443E0,9.119104633E0
8.215888375E0,-6.110592957E0,8.346643066E-1,-2.424208832E0,6.626673317E0
8.225967375E0,-4.487667847E0,8.370593262E-1,-8.373587036E-1,4.641228352E0
8.236046375E0,-3.103795624E0,9.876461792E-1,4.475692749E-1,3.287751588E0
8.246125375E0,-2.835703125E0,1.551074524E0,1.553020477E0,3.585933211E0
8.256203375E0,-3.375929718E0,2.562670898E0,2.376607819E0,4.859264175E0
8.266282375E0,-3.617377625E0,3.261268158E0,1.980531464E0,5.257736752E0
8.276361375E0,-3.469185791E0,3.823049927E0,6.779402161E-1,5.206780553E0
8.286440375E0,-2.947370911E0,4.334536285E0,-5.831872559E-1,5.274021944E0
8.296518375E0,-1.978585510E0,4.582420807E0,-1.550775146E0,5.226689643E0
8.306597375E0,-7.310797119E-1,4.671335907E0,-1.761836243E0,5.045782759E0
8.316676375E0,5.038522339E-1,4.506678314E0,-1.726509705E0,4.852303810E0
8.326755375E0,1.737586670E0,4.252806244E0,-1.512454834E0,4.836640157E0
8.336833375E0,2.708168335E0,3.903732147E0,-1.288969574E0,4.922879541E0
8.346912375E0,3.039279785E0,3.216211853E0,-9.422904968E-1,4.524284659E0
8.356991375E0,2.204166412E0,2.749931488E0,8.981323242E-4,3.524269225E0
8.367070375E0,4.004173279E-1,3.476221161E0,1.324445801E0,3.741470871E0
8.377148375E0,-2.257305908E-1,3.637735291E0,2.045646057E0,4.179562194E0
8.387227375E0,-8.132588196E-1,3.621419220E0,1.620230713E0,4.049841310E0
8.397306375E0,-7.138655090E-1,3.278482361E0,7.304809570E-1,3.433897637E0
8.407385375E0,9.714797974E-2,2.906505890E0,2.603086853E-1,2.919755954E0
8.417463500E0,1.625619507E-1,2.381248169E0,-1.657054138E-1,2.392535792E0
8.427542500E0,-1.393601990E0,2.024689636E0,-2.098635864E-1,2.466888192E0
8.437621500E0,-5.396128693E0,2.771336975E0,1.172212372E0,6.178397474E0
8.447700500E0,-1.026460464E1,4.309388580E0,3.653452606E0,1.171668274E1
8.457778500E0,-1.415426605E1,5.507946167E0,5.579048309E0,1.618043567E1
8.467857500E0,-1.735805374E1,6.028413849E0,6.359824677E0,1.944456667E1
8.477936500E0,-2.064267334E1,6.046975250E0,6.700516205E0,2.252959808E1
8.488015500E0,-2.315909042E1,5.880371704E0,6.619384918E0,2.479392057E1
8.498094500E0,-2.523736862E1,6.142776031E0,6.952891388E0,2.688868109E1
8.508172500E0,-2.858515686E1,6.658603363E0,9.247769165E0,3.077286834E1
8.518251500E0,-3.349300095E1,7.658074951E0,1.385114639E1,3.704431779E1
8.528330500E0,-3.787813202E1,8.461005249E0,1.806563232E1,4.281014560E1
8.538409500E0,-4.031880661E1,7.563172302E0,1.975397141E1,4.553050766E1
8.548487500E0,-3.821942230E1,4.530179443E0,1.897020126E1,4.290821953E1
8.558566500E0,-3.333792343E1,5.664221191E-1,1.738589584E1,3.760328905E1
8.568645500E0,-2.943224533E1,-2.696642303E0,1.670047119E1,3.394752838E1
8.578724500E0,-2.714066071E1,-4.863835602E0,1.663176407E1,3.220074434E1
8.588802500E0,-2.575484253E1,-5.933810577E0,1.678908691E1,3.131126732E1
8.598881500E0,-2.441812225E1,-6.242618408E0,1.664778076E1,3.020535686E1
8.608960500E0,-2.326716568E1,-6.992109833E0,1.594244751E1,2.905877202E1
8.619039500E0,-2.159634018E1,-8.214318237E0,1.466650085E1,2.736755708E1
8.629117500E0,-1.910462173E1,-9.413175201E0,1.293909302E1,2.492016387E1
8.639196500E0,-1.555879532E1,-1.041668839E1,1.071262299E1,2.157182885E1
8.649275500E0,-1.225441681E1,-1.114866623E1,8.471633148E0,1.860731196E1
8.659354500E0,-9.308542786E0,-1.151660110E1,6.764433289E0,1.628000699E1
8.669432500E0,-6.639892273E0,-1.130134872E1,5.909261627E0,1.437803969E1
8.679511500E0,-4.196523285E0,-1.065813629E1,5.451363831E0,1.268558412E1
8.689590500E0,-2.531385956E0,-9.909093933E0,5.313500519E0,1.152524816E1
8.699669500E0,-1.844763794E0,-9.245673523E0,5.630541229E0,1.098128530E1
8.709747500E0,-1.572180634E0,-8.584498444E0,5.921835480E0,1.054672939E1
8.719826500E0,-1.330433350E0,-7.954458618E0,5.825136566E0,9.948652211E0
8.729905500E0,-1.116079102E0,-7.203919373E0,5.424270172E0,9.086517143E0
8.739984500E0,-6.514453125E-1,-6.608457642E0,4.911286926E0,8.259348199E0
8.750062500E0,-9.580078125E-2,-6.070027313E0,3.961362305E0,7.248917208E0
8.760141500E0,4.912783813E-1,-5.928421783E0,2.709365845E0,6.536681312E0
8.770220500E0,1.615290985E0,-6.151607666E0,1.070573730E0,6.449617815E0
8.780299500E0,2.984344025E0,-6.392456818E0,-4.843927002E-1,7.071382447E0
8.790377500E0,4.576582947E0,-6.370901642E0,-1.548978882E0,7.995801072E0
8.800456500E0,6.165678406E0,-6.080056458E0,-2.002086639E0,8.887689668E0
8.810535500E0,7.257058868E0,-5.600154419E0,-1.928140411E0,9.367195865E0
8.820614500E0,7.632328491E0,-4.843178558E0,-1.257534943E0,9.126347072E0
8.830692500E0,6.783294067E0,-3.991000671E0,-2.604583740E-2,7.870314044E0
8.840771500E0,5.201383667E0,-2.987487488E0,1.188827820E0,6.114964033E0
8.850850500E0,3.893852692E0,-1.881587219E0,1.769021301E0,4.672461408E0
8.860929500E0,3.056493988E0,-1.073268127E0,1.603166199E0,3.614443503E0
8.871007500E0,2.311792603E0,-6.340814209E-1,9.539662170E-1,2.580018571E0
8.881086500E0,1.847907257E0,-1.378633118E-1,5.098397827E-1,1.921901175E0
8.891165500E0,1.382525024E0,3.951782227E-2,1.172062683E-1,1.388046977E0
8.901244500E0,6.346801758E-1,3.926335144E-1,2.275268555E-2,7.466576772E-1
8.911323500E0,1.667532349E-1,7.391629028E-1,1.704954529E-1,7.766834218E-1
8.921401500E0,-7.903564453E-2,6.761439514E-1,1.282832336E-1,6.927292864E-1
8.931480500E0,-3.766168213E-1,7.988887024E-1,5.707630920E-1,1.051586371E0
8.941559500E0,-1.291813660E0,9.717791748E-1,1.700763245E0,2.346429822E0
8.951638500E0,-2.722538452E0,1.086141357E0,3.296145630E0,4.410951676E0
8.961716500E0,-4.233496399E0,1.463955688E0,4.342020721E0,6.238493565E0
8.971795500E0,-5.961203613E0,2.102078705E0,4.686454468E0,7.868769845E0
8.981874500E0,-7.256160736E0,2.845881958E0,3.743565216E0,8.646686838E0
8.991953500E0,-8.254285126E0,3.721261597E0,1.549877014E0,9.186029042E0
9.002031500E0,-1.005429199E1,5.102140045E0,3.158432007E-1,1.127920110E1
9.012110500E0,-1.441696976E1,7.505991211E0,1.230890350E0,1.630042981E1
9.022189500E0,-2.211052094E1,9.805958405E0,4.902305603E0,2.467923330E1
9.032268500E0,-2.895099609E1,1.220861206E1,1.010773087E1,3.300570567E1
9.042346500E0,-3.239503418E1,1.418959259E1,1.418719757E1,3.810589656E1
9.052425500E0,-3.253484344E1,1.411205383E1,1.542647049E1,3.867353220E1
9.062504500E0,-3.238949570E1,1.274539581E1,1.497426086E1,3.789133192E1
9.072583500E0,-3.232093826E1,1.091335556E1,1.608046051E1,3.771373211E1
9.082661500E0,-3.124347885E1,8.451724548E0,1.758363464E1,3.683437017E1
9.092740500E0,-2.883199356E1,6.099665680E0,1.886601791E1,3.499166195E1
9.102819500E0,-2.565320389E1,4.014202423E0,1.979408798E1,3.264975666E1
9.112898500E0,-2.200169724E1,1.877545624E0,2.011127838E1,2.986743004E1
9.122976500E0,-1.847847382E1,1.354682922E-1,1.915207306E1,2.661342234E1
9.133055500E0,-1.557047104E1,-1.344204712E0,1.698907104E1,2.308408520E1
9.143134500E0,-1.357916199E1,-2.561623077E0,1.461755264E1,2.011537716E1
9.153213500E0,-1.149145340E1,-3.269650726E0,1.249571503E1,1.728834900E1
9.163291500E0,-9.704469452E0,-3.844904480E0,1.025981461E1,1.463638663E1
9.173370500E0,-8.362809448E0,-4.425247650E0,7.655081177E0,1.217044233E1
9.183449500E0,-6.618337097E0,-5.134173431E0,5.007985840E0,9.759203089E0
9.193528500E0,-4.686005402E0,-5.468727722E0,2.447260895E0,7.606228725E0
9.203606500E0,-2.961291962E0,-5.158572693E0,1.972897339E-1,5.951390220E0
9.213685500E0,-1.823208618E0,-5.152884521E0,-1.891616364E0,5.783988332E0
9.223764500E0,-1.322499847E0,-5.204527130E0,-2.959046631E0,6.131236862E0
9.233843500E0,-1.044677582E0,-4.768633575E0,-3.491489410E0,6.001809371E0
9.243921500E0,-1.080902252E0,-4.051624603E0,-4.468657379E0,6.128042948E0
9.254000500E0,-1.595232697E0,-3.834725647E0,-5.380411377E0,6.796963640E0
9.264079500E0,-2.234702911E0,-4.090693359E0,-5.014721832E0,6.846539587E0
9.274158500E0,-2.963836670E0,-4.730912018E0,-3.722010040E0,6.709635986E0
9.284236500E0,-3.361559601E0,-4.986280975E0,-1.325792999E0,6.157987333E0
9.294315500E0,-3.060984650E0,-5.438041534E0,4.909790039E-1,6.259631230E0
9.304394500E0,-2.598147125E0,-6.720574493E0,8.502319336E-1,7.255300431E0
9.314473500E0,-2.602787476E0,-7.958649902E0,1.044228516E0,8.438306945E0
9.324551500E0,-2.878214722E0,-9.224717102E0,6.045927429E-1,9.682203157E0
9.334630500E0,-2.961890717E0,-1.008422974E1,1.348695374E-1,1.051107396E1
9.344709500E0,-3.490291901E0,-1.087009552E1,-3.397933960E-1,1.142175878E1
9.354788500E0,-4.857848053E0,-1.142005188E1,-3.793112183E-1,1.241612458E1
9.364866500E0,-6.257736969E0,-1.184037781E1,-3.001258850E-1,1.339566699E1
9.374945500E0,-7.018904114E0,-1.227267883E1,-7.125183105E-2,1.413820135E1
9.385024500E0,-7.158414001E0,-1.245410156E1,3.260220337E-1,1.436850121E1
9.395103500E0,-6.909331970E0,-1.213002548E1,7.905061340E-1,1.398217746E1
9.405181500E0,-6.937922516E0,-1.136466705E1,1.040336609E0,1.335562527E1
9.415259917E0,-7.280859375E0,-1.020592667E1,1.052910461E0,1.258095675E1
9.425338917E0,-7.880362701E0,-8.793014832E0,8.767268372E-1,1.184001166E1
9.435417917E0,-9.194479980E0,-7.056775360E0,1.035097504E0,1.163649292E1
9.445495917E0,-1.070064789E1,-4.606670380E0,1.408570862E0,1.173496268E1
9.455574917E0,-1.119387222E1,-2.053429871E0,1.603166199E0,1.149301925E1
9.465653917E0,-9.586664429E0,4.460723877E-2,1.596280518E0,9.718756925E0
9.475732917E0,-7.083120575E0,1.843266907E0,1.740580444E0,7.523154275E0
9.485810917E0,-4.816084900E0,3.866459656E0,1.794468384E0,6.431508440E0
9.495889917E0,-3.518433380E0,6.084696808E0,1.126557312E0,7.118429607E0
9.505968917E0,-3.586392059E0,8.359366608E0,-3.412902832E-2,9.096284015E0
9.516047917E0,-5.596561890E0,1.093535980E1,-1.728006592E0,1.240522494E1
9.526125917E0,-8.379125519E0,1.397733398E1,-3.114872589E0,1.659150509E1
9.536204917E0,-1.088476501E1,1.647264496E1,-3.403472443E0,2.003521315E1
9.546283917E0,-1.169248535E1,1.872171799E1,-2.595602417E0,2.222507795E1
9.556362917E0,-1.130988098E1,2.041394897E1,-8.255332947E-1,2.335217818E1
9.566440917E0,-1.121168518E1,2.166355042E1,1.518442383E0,2.444006891E1
9.576519917E0,-1.192854446E1,2.274654831E1,3.644471283E0,2.594181574E1
9.586598917E0,-1.359233459E1,2.352193588E1,6.665189667E0,2.797244681E1
9.596677917E0,-1.630304764E1,2.451377335E1,9.628277893E0,3.097447628E1
9.606755917E0,-1.984348526E1,2.505714340E1,1.045800247E1,3.363025659E1
9.616834917E0,-2.316597610E1,2.524964310E1,1.018916153E1,3.574948864E1
9.626913917E0,-2.502421188E1,2.462124985E1,9.579629059E0,3.638937231E1
9.636992917E0,-2.604838211E1,2.336536148E1,8.832382965E0,3.608973977E1
9.647070917E0,-2.866359375E1,2.247935394E1,8.709488525E0,3.745368007E1
9.657149917E0,-3.396856201E1,2.209570175E1,9.172924805E0,4.154787348E1
9.667228917E0,-4.151167603E1,2.204061630E1,1.018961060E1,4.809195543E1
9.677307917E0,-4.994678513E1,2.209076202E1,1.218136871E1,5.595595460E1
9.687385917E0,-5.837890045E1,2.104982666E1,1.469000198E1,6.377293610E1
9.697464917E0,-6.383640152E1,1.810335388E1,1.685899155E1,6.846198344E1
9.707543917E0,-6.496206070E1,1.412193329E1,1.789932816E1,6.884681749E1
9.717622917E0,-6.441360123E1,9.173523560E0,1.902603516E1,6.778831442E1
9.727700917E0,-6.495502533E1,4.070934448E0,2.111389343E1,6.842166557E1
9.737779917E0,-6.502792374E1,-3.989204407E-1,2.184647003E1,6.860071615E1
9.747858917E0,-6.290129608E1,-4.815037079E0,2.265284317E1,6.702916481E1
9.757937917E0,-5.797518997E1,-1.011970596E1,2.232008514E1,6.294217427E1
9.768015917E0,-5.122827026E1,-1.492022324E1,2.041993652E1,5.713074954E1
9.778094917E0,-4.464555908E1,-2.015139496E1,1.740535538E1,5.198318055E1
9.788173917E0,-3.468557098E1,-2.104758133E1,1.213346832E1,4.234749778E1
9.798252917E0,-2.539768524E1,-2.132944519E1,5.555846558E0,3.362818875E1
9.808330917E0,-1.745580048E1,-2.070494385E1,-1.734293518E0,2.713682819E1
9.818409917E0,-1.012943573E1,-1.893233002E1,-8.712631989E0,2.317215019E1
9.828488917E0,-4.336931305E0,-1.702200256E1,-1.422671539E1,2.260435744E1
9.838567917E0,-9.171427917E-1,-1.544368469E1,-1.628972534E1,2.246561149E1
9.848645917E0,3.971241760E-1,-1.397329239E1,-1.485286331E1,2.039652314E1
9.858724917E0,1.749861145E-1,-1.272294250E1,-1.204739731E1,1.752266156E1
9.868803917E0,5.578898621E-1,-1.183379150E1,-8.374185791E0,1.450782031E1
9.878882917E0,2.229763184E0,-1.061846878E1,-5.428910522E0,1.213246853E1
9.888960917E0,3.669768677E0,-9.451794891E0,-5.475014648E0,1.152299502E1
9.899039917E0,4.237987061E0,-8.261470184E0,-7.696245575E0,1.206004228E1
9.909118917E0,4.395758972E0,-7.218888245E0,-1.127575195E1,1.409175740E1
9.919197917E0,4.358636169E0,-6.414311371E0,-1.401026550E1,1.601338937E1
9.929275917E0,4.841531982E0,-5.431754608E0,-1.494477219E1,1.662199163E1
9.939354917E0,5.627098389E0,-4.736300812E0,-1.436263275E1,1.613635650E1
9.949433917E0,6.270759888E0,-4.323159943E0,-1.266426453E1,1.477821834E1
9.959512917E0,5.946833496E0,-4.216581573E0,-1.008707382E1,1.244561959E1
9.969590917E0,5.111271057E0,-3.881278839E0,-6.502627716E0,9.136387933E0
9.979669917E0,3.743415527E0,-3.222049713E0,-3.173550568E0,5.870791034E0
9.989748917E0,1.905836792E0,-1.979633331E0,-4.884342957E-1,2.791008790E0