"Time (s)","Acceleration x (m/s^2)","Acceleration y (m/s^2)","Acceleration z (m/s^2)","Absolute acceleration (m/s^2)"
6.520750001E-3,2.036515045E0,9.619146881E0,8.547225952E-2,9.832735416E0
1.659875002E-2,2.374063110E0,9.633816376E0,-2.844085693E-3,9.922026089E0
2.667775005E-2,2.160008240E0,9.538614349E0,1.806742859E-1,9.781791375E0
3.675575007E-2,1.670975189E0,9.311237183E0,3.848497009E-1,9.467808894E0
4.683474998E-2,1.532213745E0,9.513167267E0,2.963836670E-1,9.640325393E0
5.691275001E-2,1.322948914E0,9.567803650E0,2.944377136E-1,9.663320034E0
6.699175003E-2,1.285526733E0,9.559870148E0,3.965254211E-1,9.654062804E0
7.707075006E-2,1.227297821E0,9.519154816E0,4.623884583E-1,9.609077554E0
8.714875008E-2,1.102607117E0,9.604327698E0,4.315525818E-1,9.677039352E0
9.722775000E-2,1.010398865E0,9.572144623E0,3.921844482E-1,9.633310292E0
1.073057500E-1,1.043480072E0,9.536219330E0,3.929328918E-1,9.601183574E0
1.173847500E-1,1.054856415E0,9.604178009E0,4.299060059E-1,9.671492980E0
1.274594167E-1,1.130000153E0,9.695787506E0,5.086422729E-1,9.774656652E0
1.375384167E-1,1.162931671E0,9.771979065E0,4.448748779E-1,9.850984650E0
1.476164167E-1,9.729766846E-1,9.795929260E0,3.656895447E-1,9.850920898E0
1.576954167E-1,8.613088989E-1,9.742640076E0,2.273771667E-1,9.783281098E0
1.677734167E-1,8.818162537E-1,9.711504822E0,2.742297363E-1,9.755312796E0
1.778524166E-1,1.067579956E0,9.770182800E0,3.945794678E-1,9.836253955E0
1.879304167E-1,1.307231598E0,9.921967163E0,5.313949585E-1,1.002180959E1
1.980094167E-1,1.300645294E0,9.980944519E0,6.059399414E-1,1.008355567E1
2.080874167E-1,1.337618408E0,9.823771362E0,5.526507568E-1,9.929810151E0
2.181664167E-1,1.311722260E0,9.602830811E0,2.894979858E-1,9.696328374E0
2.282444166E-1,1.156195679E0,9.389225006E0,1.787283325E-1,9.461832723E0
2.383234167E-1,1.377585297E0,9.770781555E0,-3.113525391E-2,9.867465878E0
2.484024167E-1,1.298849030E0,9.826016693E0,8.652008057E-2,9.911866554E0
2.584804167E-1,1.396595764E0,9.787397003E0,2.580633545E-1,9.889904778E0
2.685594168E-1,1.496737518E0,9.606423340E0,2.923420715E-1,9.726718690E0
2.786374167E-1,1.279988251E0,9.623338165E0,2.374063110E-1,9.710992180E0
2.887164167E-1,1.215771790E0,9.941127319E0,-5.957611084E-2,1.001537132E1
2.987944167E-1,1.059496765E0,9.854158173E0,7.813751221E-2,9.911259867E0
3.088734167E-1,7.881111145E-1,9.944270782E0,2.691403198E-1,9.979081974E0
3.189514166E-1,1.053658905E0,1.006521927E1,-1.026864624E-1,1.012074012E1
3.290304167E-1,1.131347351E0,9.623936920E0,7.679031372E-2,9.690511102E0
3.391084167E-1,1.300196228E0,9.845625916E0,1.496887207E-2,9.931116955E0
3.491874167E-1,1.488654327E0,1.017688705E1,3.323089600E-2,1.028524312E1
3.592654167E-1,1.174308014E0,1.006072861E1,1.610650635E-1,1.013031102E1
3.693444167E-1,1.022523651E0,9.975855103E0,-9.565109253E-2,1.002857860E1
3.794224167E-1,8.352630615E-1,9.427096252E0,1.637594604E-1,9.465443745E0
3.895014167E-1,9.789642334E-1,9.127120056E0,4.034111023E-1,9.188331296E0
3.995794167E-1,8.207432556E-1,8.951235809E0,2.351609802E-1,8.991859802E0
4.096584168E-1,7.478448486E-1,8.974736938E0,-2.032772827E-1,9.008135028E0
4.197364167E-1,5.706134033E-1,9.004974060E0,-1.140628052E-1,9.023755748E0
4.298154167E-1,4.227209473E-1,9.126521301E0,1.932481384E-1,9.138349353E0
4.398944167E-1,6.074368286E-1,9.594597931E0,5.827381897E-1,9.631452266E0
4.499724167E-1,1.152453461E0,9.170230408E0,6.673123169E-1,9.266422203E0
4.600514167E-1,1.130449219E0,7.836204529E0,1.147962799E0,8.000114714E0
4.701294167E-1,2.399510193E0,1.174293045E1,-6.511459351E-2,1.198575424E1
4.802084167E-1,2.174378357E0,1.192255692E1,-9.867480469E-1,1.215931562E1
4.902864167E-1,6.252497864E-1,9.067244568E0,2.799179077E-2,9.088819774E0
5.003654168E-1,6.394702148E-1,9.287286987E0,2.758763123E-1,9.313362952E0
5.104434167E-1,1.014739838E0,1.042507095E1,2.061213684E-1,1.047636804E1
5.205224167E-1,8.964857483E-1,9.976004791E0,1.856140137E-2,1.001622198E1
5.306004167E-1,1.255139923E0,1.012913635E1,-1.414558411E-1,1.020758489E1
5.406794167E-1,1.382974091E0,1.036519547E1,2.177970886E-1,1.045931785E1
5.507574168E-1,9.613009644E-1,9.701475677E0,-4.924758911E-2,9.749110482E0
5.608364167E-1,-6.234535217E-1,6.617289276E0,2.571652222E-1,6.651567154E0
5.709144167E-1,-4.759801941E0,-2.221380615E0,2.004032593E0,5.621956331E0
5.809934167E-1,-3.182831268E0,4.880451050E0,1.333576813E0,5.977260614E0
5.910714167E-1,3.745511169E0,1.404080200E1,-3.415447540E0,1.492776797E1
6.011504167E-1,2.021845551E0,1.251517456E1,-2.840792542E0,1.299182651E1
6.112284167E-1,6.123765564E0,1.556358536E1,2.013313293E-1,1.672621380E1
6.213074167E-1,2.560425568E0,1.416369644E1,6.831793213E-1,1.440946945E1
6.313864167E-1,-1.575773163E0,7.960146790E0,-1.445993042E-1,8.115904566E0
6.414644168E-1,-1.132694550E0,9.159602509E0,6.735992432E-2,9.229618216E0
6.515434167E-1,1.069974976E0,1.154444321E1,1.465751953E0,1.168620743E1
6.616214167E-1,1.327589264E0,1.095736404E1,6.092330933E-1,1.105429713E1
6.717004167E-1,1.923649750E0,1.034648438E1,6.349795532E-1,1.054292968E1
6.817784167E-1,2.572849731E0,1.028256729E1,4.751119995E-1,1.061020628E1
6.918574166E-1,2.173330536E0,8.816066895E0,-4.013154602E-1,9.088864352E0
7.019354167E-1,2.233505402E0,7.880811768E0,-3.435356140E-1,8.198399674E0
7.120144167E-1,1.851948853E0,8.075107727E0,-2.987786865E-1,8.290135588E0
7.220924167E-1,2.038161621E0,8.077652435E0,-2.345622253E-1,8.334122095E0
7.321714167E-1,2.444117432E0,8.416697388E0,-1.682501221E-1,8.766003253E0
7.422494167E-1,1.511856079E0,9.067094879E0,-1.076112213E0,9.255049208E0
7.523284167E-1,1.554217987E0,1.010309052E1,-1.365759888E0,1.031277516E1
7.624064167E-1,7.110214233E-1,9.724078674E0,-9.605525208E-1,9.797240360E0
7.724854167E-1,1.165775757E0,9.411678314E0,-2.421963501E-1,9.486694940E0
7.825634168E-1,1.507215729E0,9.772278442E0,-2.308200073E-1,9.890520870E0
7.926424167E-1,1.560953979E0,1.018826340E1,-2.427951050E-1,1.031000668E1
8.027204167E-1,1.113384705E0,1.070783295E1,-8.340655518E-1,1.079782280E1
8.127994167E-1,1.230141907E0,1.091994186E1,-4.670288086E-1,1.099893155E1
8.228784167E-1,1.204844513E0,1.037911652E1,-3.622467041E-2,1.044887660E1
8.329564166E-1,1.341360626E0,9.444460144E0,4.270619202E-1,9.548793517E0
8.430354167E-1,4.311035156E-1,9.415270844E0,3.341052246E-1,9.431055169E0
8.531134167E-1,-1.722917175E-1,1.022658371E1,-2.091001740E0,1.043958750E1
8.631924167E-1,1.380279694E0,1.081231567E1,-1.228944397E0,1.096912242E1
8.732704167E-1,1.159638519E0,1.023870850E1,2.110012207E0,1.051798767E1
8.833494167E-1,5.950126648E-1,9.572444000E0,1.599124603E0,9.723318554E0
8.934274167E-1,1.995350647E-1,9.528136139E0,7.508386230E-1,9.559756857E0
9.035064167E-1,-3.487747192E-2,9.507179718E0,1.293909302E0,9.594888426E0
9.135844167E-1,7.479945374E-1,9.503886566E0,1.344803467E0,9.627660778E0
9.236634166E-1,7.298822021E-1,9.638157349E0,-1.003064117E0,9.717661382E0
9.337414167E-1,1.035396881E0,9.912237396E0,-3.388952637E-1,9.971927943E0
9.438204167E-1,1.121767273E0,9.417516174E0,4.782554626E-1,9.496141374E0
9.538984167E-1,1.331481171E0,9.351653137E0,1.165476379E0,9.517593903E0
9.639774167E-1,2.192041626E0,1.035142410E1,7.379653931E-1,1.060667810E1
9.740554166E-1,2.445165253E0,1.056248520E1,6.454577637E-1,1.086101019E1
9.841344167E-1,2.407443695E0,1.034618500E1,9.177415466E-1,1.066215638E1
9.942124167E-1,1.930685120E0,9.876761169E0,1.020128632E0,1.011526661E1
1.004291417E0,1.281934204E0,8.868757324E0,1.308728485E0,9.055991499E0
1.014370417E0,9.306147766E-1,8.221802673E0,1.170865173E0,8.356734309E0
1.024448417E0,1.322799225E0,8.530760193E0,6.201603699E-1,8.654956161E0
1.034527417E0,1.709594879E0,9.101223907E0,2.812651062E-1,9.264669521E0
1.044605417E0,1.976639557E0,9.658814392E0,4.433779907E-1,9.868960606E0
1.054684417E0,2.252216492E0,9.981393585E0,7.222480774E-1,1.025779408E1
1.064762417E0,2.063159637E0,9.895621948E0,9.991722107E-1,1.015767230E1
1.074841417E0,1.706900482E0,9.964927826E0,1.230141907E0,1.018462297E1
1.084919417E0,1.230740662E0,1.003872437E1,1.596430206E0,1.023910635E1
1.094998417E0,1.465452576E0,9.775122528E0,1.802102509E0,1.004729541E1
1.105076417E0,1.621428223E0,9.582473145E0,1.331930237E0,9.809529000E0
1.115155417E0,2.443368988E0,1.026595184E1,4.941224670E-1,1.056427831E1
1.125233417E0,2.141895905E0,1.023242157E1,7.990383911E-1,1.048468557E1
1.135312792E0,2.323468323E0,1.021356079E1,9.680369568E-1,1.051914562E1
1.145390792E0,1.956281891E0,9.977501678E0,1.321751404E0,1.025302908E1
1.155469792E0,1.709295502E0,9.733209686E0,1.775308228E0,1.004035762E1
1.165547792E0,1.505419464E0,9.722432098E0,1.807940369E0,1.000303064E1
1.175626792E0,1.453776855E0,9.421408081E0,1.711391144E0,9.685311406E0
1.185704792E0,1.738933868E0,9.079519043E0,1.200503540E0,9.322165296E0
1.195783792E0,1.864822083E0,9.002579041E0,1.041085052E0,9.252450965E0
1.205861792E0,1.947001190E0,9.082363129E0,1.123264160E0,9.356380497E0
1.215940792E0,2.413580933E0,9.522447968E0,1.201551361E0,9.896772903E0
1.226019792E0,2.829865265E0,9.927355957E0,1.234782257E0,1.039640423E1
1.236097792E0,2.956202545E0,1.000728973E1,1.346899109E0,1.052136486E1
1.246176792E0,2.627635803E0,9.957443390E0,1.556313629E0,1.041524176E1
1.256254792E0,2.255509644E0,9.875713348E0,1.528920593E0,1.024473699E1
1.266333792E0,2.013462982E0,9.799521790E0,1.384470978E0,1.009957526E1
1.276411792E0,1.457070007E0,9.209897919E0,1.301094360E0,9.414781953E0
1.286490792E0,1.275497589E0,8.897048492E0,1.273252258E0,9.077749572E0
1.296568792E0,1.411564636E0,9.078471222E0,1.355730743E0,9.287042602E0
1.306647792E0,1.586999817E0,9.225465546E0,1.453178101E0,9.473093980E0
1.316725792E0,1.719174957E0,9.437275085E0,1.487007751E0,9.707157958E0
1.326804792E0,1.987117767E0,9.768236847E0,1.669328613E0,1.010711364E1
1.336882792E0,1.982477417E0,9.945617981E0,1.776655426E0,1.029572913E1
1.346961792E0,1.859283600E0,9.928104401E0,1.523831177E0,1.021500142E1
1.357039792E0,1.733245697E0,9.835896149E0,1.227297821E0,1.006256695E1
1.367118792E0,1.829196167E0,9.618548126E0,1.297651520E0,9.876554366E0
1.377196792E0,2.011966095E0,9.544003143E0,1.336420898E0,9.844898394E0
1.387275792E0,2.152673492E0,9.708660736E0,1.684447174E0,1.008610226E1
1.397353792E0,2.264640656E0,1.004546036E1,1.433568878E0,1.039687409E1
1.407432792E0,2.485132141E0,1.024469604E1,1.297651520E0,1.062137365E1
1.417511792E0,2.252815247E0,9.690398712E0,1.638043671E0,1.008276702E1
1.427589792E0,1.850451965E0,9.498946838E0,1.871558075E0,9.856819626E0
1.437668792E0,1.683698730E0,9.686656494E0,1.601070557E0,9.961404639E0
1.447746792E0,1.427880707E0,9.634415131E0,1.452429657E0,9.847352443E0
1.457825792E0,1.315614166E0,9.348809052E0,1.475182343E0,9.555481896E0
1.467903792E0,1.429527283E0,9.002429352E0,1.482517090E0,9.234995366E0
1.477982792E0,1.341360626E0,8.540639648E0,1.667232971E0,8.804626041E0
1.488060792E0,1.070274353E0,7.922125854E0,1.471589813E0,8.128415702E0
1.498139792E0,1.319655762E0,7.595505066E0,1.239123230E0,7.808240193E0
1.508217792E0,9.690847778E-1,7.606582031E0,1.377136230E0,7.790745773E0
1.518296792E0,8.009843445E-1,7.685917053E0,1.465751953E0,7.865324256E0
1.528374792E0,4.116439819E-1,7.403903503E0,1.372944946E0,7.541366964E0
1.538453792E0,3.248245239E-2,7.323820038E0,1.275347900E0,7.434104339E0
1.548531792E0,6.611750793E-1,8.431217194E0,1.420246582E0,8.575527751E0
1.558610792E0,1.899100800E0,1.023421783E1,1.467548218E0,1.051187406E1
1.568688792E0,2.477048950E0,1.145433060E1,1.972897339E0,1.188401384E1
1.578767792E0,2.976260834E0,1.199785034E1,2.260000305E0,1.256638941E1
1.588845792E0,3.262016602E0,1.153156998E1,1.348994751E0,1.205975312E1
1.598924792E0,3.846251678E0,1.126751907E1,5.951623535E-1,1.192077415E1
1.609002792E0,3.495081940E0,1.110226273E1,9.235794067E-1,1.167599393E1
1.619081792E0,2.876867523E0,1.058239380E1,1.156045990E0,1.102723300E1
1.629159792E0,2.735261993E0,1.059212357E1,1.209185486E0,1.100621958E1
1.639238792E0,2.872975616E0,1.083267334E1,1.551523590E0,1.131406320E1
1.649317792E0,3.047812042E0,1.065693878E1,1.482367401E0,1.118288494E1
1.659395792E0,2.127825165E0,9.148974609E0,1.833088074E0,9.570349430E0
1.669474792E0,8.235873413E-1,7.141648865E0,1.867067413E0,7.427475031E0
1.679552792E0,1.453028412E0,7.549550629E0,1.459614716E0,7.825438095E0
1.689631792E0,2.513572998E0,8.981622620E0,9.172924805E-1,9.371713802E0
1.699709792E0,2.466421051E0,8.855734406E0,1.046473846E0,9.252155002E0
1.709788792E0,2.013313293E0,8.878337402E0,1.350042572E0,9.203310295E0
1.719866792E0,1.967658234E0,9.595795441E0,1.639540558E0,9.931720007E0
1.729945792E0,1.867516479E0,9.610914001E0,1.673669586E0,9.932696292E0
1.740023792E0,1.810185699E0,9.367819519E0,1.419498138E0,9.646128227E0
1.750102792E0,1.257684631E0,9.139544220E0,1.666334839E0,9.374951252E0
1.760180792E0,7.283853149E-1,8.776998138E0,1.855990448E0,9.000607870E0
1.770259792E0,2.089055786E0,9.648635559E0,1.339863739E0,9.962708320E0
1.780337792E0,3.016527100E0,1.005444168E1,1.409019928E0,1.059134413E1
1.790416792E0,3.157384186E0,9.719138947E0,1.697021027E0,1.035908380E1
1.800494792E0,3.245251465E0,9.846823425E0,1.456471252E0,1.046961781E1
1.810573792E0,2.960393829E0,1.016985168E1,1.194815369E0,1.065914625E1
1.820651792E0,2.727627869E0,1.042043060E1,1.149459686E0,1.083266289E1
1.830730792E0,2.438578949E0,1.006491989E1,1.430874481E0,1.045450532E1
1.840808792E0,1.763482819E0,9.303752747E0,1.207538910E0,9.546090144E0
1.850887792E0,2.041903839E0,9.178762665E0,1.269360352E0,9.488431432E0
1.860965792E0,2.641706543E0,9.207203522E0,1.488205261E0,9.693604337E0
1.871044792E0,2.705623627E0,9.012757874E0,1.870210876E0,9.594159287E0
1.881123792E0,2.182611237E0,8.947493591E0,2.251468048E0,9.481062269E0
1.891201792E0,1.402283936E0,9.037755890E0,2.087409210E0,9.381082505E0
1.901280792E0,4.409829712E-1,8.463849335E0,1.776356049E0,8.659483377E0
1.911358792E0,1.014141083E0,8.545878754E0,1.147813110E0,8.682050492E0
1.921437792E0,1.377734985E0,8.538094940E0,1.074465637E0,8.715026982E0
1.931515792E0,2.260748749E0,9.419761505E0,7.050338745E-1,9.712876221E0
1.941594792E0,1.342558136E0,9.005123749E0,1.223405914E0,9.186481269E0
1.951672792E0,9.153465271E-1,8.906778259E0,9.879455566E-1,9.008029454E0
1.961751792E0,9.924362183E-1,8.434809723E0,9.773176575E-1,8.549040561E0
1.971829792E0,1.264570312E0,8.331374817E0,9.644444275E-1,8.481809799E0
1.981908792E0,2.970123596E0,9.269623718E0,7.429051208E-1,9.762144543E0
1.991986792E0,4.090543671E0,8.809779968E0,7.072792053E-1,9.738840510E0
2.002065792E0,3.769461365E0,8.599317627E0,1.014739838E0,9.443876300E0
2.012143792E0,3.871549072E0,9.164991302E0,9.940827942E-1,9.998707836E0
2.022222792E0,3.948638763E0,9.467811584E0,7.394622803E-1,1.028484364E1
2.032300792E0,3.150348816E0,9.755962372E0,6.125262451E-1,1.027028178E1
2.042379792E0,3.624712372E0,1.031669632E1,4.170327759E-1,1.094288258E1
2.052457792E0,4.059558105E0,1.020682480E1,2.811154175E-1,1.098809858E1
2.062536792E0,1.630559235E0,8.998687134E0,5.544470215E-1,9.162014246E0
2.072614792E0,1.362766113E0,8.833580475E0,8.428971863E-1,8.977736416E0
2.082693792E0,1.581611023E0,9.484277344E0,1.032253418E0,9.670499329E0
2.092771792E0,1.197958832E0,9.527238007E0,1.291514282E0,9.688724299E0
2.102850792E0,6.264472961E-1,9.754016418E0,1.718875580E0,9.924102265E0
2.112928792E0,7.592211914E-1,9.467661896E0,1.585353241E0,9.629453956E0
2.123007792E0,1.023870850E0,9.049281921E0,1.552122345E0,9.238338519E0
2.133086417E0,1.513502655E0,8.385562134E0,1.281634827E0,8.616897958E0
2.143164417E0,1.969005432E0,8.261170807E0,9.708810425E-1,8.547896554E0
2.153243417E0,1.952389984E0,8.198750610E0,6.831793213E-1,8.455653269E0
2.163321417E0,2.115251312E0,8.419092407E0,4.478686523E-1,8.692294945E0
2.173400417E0,2.273472290E0,8.685089264E0,2.127076721E-1,8.980239213E0
2.183478417E0,2.148781586E0,8.856782227E0,2.145039368E-1,9.116241860E0
2.193557417E0,2.053579559E0,8.880732422E0,3.724255371E-1,9.122680425E0
2.203635417E0,2.196382599E0,8.671916656E0,4.459226990E-1,8.956845542E0
2.213714417E0,2.360740814E0,8.628357239E0,3.954776001E-1,8.954219584E0
2.223792417E0,2.670895844E0,8.517587585E0,2.571652222E-1,8.930236102E0
2.233871417E0,3.273692322E0,8.812474365E0,2.058219910E-1,9.403144610E0
2.243949417E0,3.580554199E0,9.107061768E0,1.800755310E-1,9.787306555E0
2.254028417E0,3.375929718E0,8.993597717E0,2.133064270E-1,9.608704439E0
2.264106417E0,3.142115936E0,8.657097473E0,4.664300537E-1,9.221485033E0
2.274185417E0,3.123554535E0,8.458460541E0,6.539900208E-1,9.040456327E0
2.284263417E0,3.078348541E0,8.190218353E0,8.912466431E-1,8.794897782E0
2.294342417E0,3.344046021E0,8.240962830E0,1.293609924E0,8.987187479E0
2.304420417E0,3.580703888E0,8.385562134E0,1.698517914E0,9.274915403E0
2.314499417E0,3.477418671E0,8.542435913E0,2.155517578E0,9.471637027E0
2.324577417E0,3.067271576E0,8.616232452E0,2.633473663E0,9.517499678E0
2.334656417E0,2.710563354E0,8.737779694E0,2.777773590E0,9.560960924E0
2.344734417E0,2.406695251E0,9.071136475E0,2.762056274E0,9.782977759E0
2.354813417E0,2.182910614E0,9.837991791E0,2.653382263E0,1.042073024E1
2.364891417E0,1.536854095E0,1.070409073E1,1.995949402E0,1.099651276E1
2.374970417E0,6.804849243E-1,1.093071945E1,1.369951172E0,1.103723034E1
2.385049417E0,1.462458801E-1,1.065409470E1,1.456171875E0,1.075414144E1
2.395127417E0,3.755690002E-1,1.000803818E1,2.197879486E0,1.025341672E1
2.405206417E0,9.627978516E-1,9.411528625E0,3.055146790E0,9.941718799E0
2.415284417E0,1.660796356E0,9.025032349E0,3.413052521E0,9.790729336E0
2.425363417E0,1.489552460E0,8.196654968E0,3.700305176E0,9.115710482E0
2.435441417E0,1.266516266E0,7.521259460E0,3.348985748E0,8.330012777E0
2.445520417E0,1.441203003E0,6.439608765E0,2.834206238E0,7.181807024E0
2.455598417E0,1.636995850E0,5.135370941E0,2.449506226E0,5.920462048E0
2.465677417E0,1.880090332E0,4.270768890E0,2.098935242E0,5.116613697E0
2.475755417E0,1.973346405E0,3.663481750E0,1.797312469E0,4.532717362E0
2.485834417E0,2.029329987E0,3.151396637E0,1.664239197E0,4.101118514E0
2.495912417E0,1.817221069E0,2.701582031E0,1.535057831E0,3.599616706E0
2.505991417E0,1.549577637E0,2.589315491E0,1.620829468E0,3.425322427E0
2.516069417E0,1.231638794E0,2.598596191E0,1.795216827E0,3.390050109E0
2.526148417E0,8.331674194E-1,2.593357086E0,1.872007141E0,3.305159552E0
2.536226417E0,5.457650757E-1,2.659220123E0,1.748513947E0,3.229026510E0
2.546305417E0,3.176394653E-1,2.842588806E0,1.617835693E0,3.286122073E0
2.556383417E0,3.490740967E-1,3.165317688E0,1.482666779E0,3.512746727E0
2.566462417E0,3.062631226E-1,3.488795013E0,1.368005219E0,3.759910374E0
2.576540417E0,3.129991150E-1,3.748954010E0,1.474284210E0,4.040561662E0
2.586619417E0,2.010319519E-1,4.011508026E0,1.584754486E0,4.317876477E0
2.596697417E0,8.247848511E-2,4.155508575E0,1.897903290E0,4.569145557E0
2.606776417E0,-1.300794983E-1,4.209546204E0,2.317031708E0,4.806853009E0
2.616854417E0,-6.346801758E-1,4.505031738E0,2.741249542E0,5.311551463E0
2.626933417E0,-9.207353210E-1,4.808750153E0,3.268602905E0,5.886900417E0
2.637011417E0,-1.066831512E0,4.952301636E0,3.668122101E0,6.254481650E0
2.647090417E0,-1.226100311E0,5.388644257E0,3.972888336E0,6.806221465E0
2.657169417E0,-1.534459076E0,6.006858673E0,4.594695282E0,7.716744165E0
2.667247417E0,-2.036664734E0,7.129224701E0,5.102589111E0,9.000570188E0
2.677326417E0,-2.555635529E0,8.942853241E0,5.955066376E0,1.104394461E1
2.687404417E0,-3.143912201E0,1.076157120E1,8.061486053E0,1.380880719E1
2.697483417E0,-4.321812744E0,1.305629929E1,1.013751892E1,1.708549988E1
2.707561417E0,-5.022355957E0,1.508802429E1,1.110660370E1,1.939662811E1
2.717640417E0,-6.556216278E0,1.527408737E1,1.234827164E1,2.070655764E1
2.727718417E0,-5.620961151E0,1.545850388E1,1.325703186E1,2.112603702E1
2.737797417E0,-2.506687317E0,1.610800323E1,1.301752991E1,2.086162348E1
2.747875417E0,-1.315763855E0,1.669163956E1,1.384665573E1,2.172721659E1
2.757954417E0,7.933502197E-2,1.718531296E1,1.430545166E1,2.236039406E1
2.768032417E0,2.378104706E0,1.726943802E1,1.360850098E1,2.211515703E1
2.778111417E0,3.119512939E0,1.818104233E1,1.307635757E1,2.261134203E1
2.788189417E0,1.383273468E0,1.803464676E1,1.287023621E1,2.219920965E1
2.798268417E0,2.239343262E-1,1.742481491E1,1.360071716E1,2.210551580E1
2.808346417E0,6.313870239E-1,1.719025269E1,1.400802017E1,2.218395966E1
2.818425417E0,7.482939148E-1,1.673729462E1,1.338785980E1,2.144601979E1
2.828503417E0,5.867797852E-1,1.686378159E1,1.133562744E1,2.032800751E1
2.838582417E0,3.516188049E-1,1.795396454E1,9.005123749E0,2.008882107E1
2.848660417E0,1.541793823E-1,1.995904495E1,8.311915283E0,2.162117440E1
2.858739417E0,2.962339783E-1,2.248998184E1,9.113049316E0,2.426797696E1
2.868817417E0,6.795867920E-1,2.535622147E1,9.769434357E0,2.718164184E1
2.878896417E0,1.784738617E0,2.799373672E1,1.094748459E1,3.011116083E1
2.888974417E0,3.494333496E0,3.058035782E1,1.209978836E1,3.307224712E1
2.899053417E0,5.486540680E0,3.377980453E1,1.201506454E1,3.627036117E1
2.909131417E0,7.397915955E0,3.693150055E1,1.150268005E1,3.938243951E1
2.919210417E0,8.172555084E0,3.747651718E1,1.041549088E1,3.974622557E1
2.929288417E0,7.319179688E0,3.380210815E1,9.489217072E0,3.586360478E1
2.939367417E0,6.543792114E0,2.846884872E1,8.499475250E0,3.042265016E1
2.949445417E0,5.339995422E0,2.219838821E1,8.463400269E0,2.434980769E1
2.959524417E0,3.173251190E0,1.731778748E1,8.919052734E0,1.973638234E1
2.969603417E0,2.946023712E0,1.184067719E1,7.671247559E0,1.441279747E1
2.979681417E0,2.396815796E0,6.051166534E0,5.515280914E0,8.531099926E0
2.989760417E0,1.743723907E0,2.423460388E0,4.073928223E0,5.050804340E0
2.999838417E0,1.508862305E0,6.051914978E-1,2.841091919E0,3.273335531E0
3.009917417E0,8.018824768E-1,-3.510200500E-1,2.241738281E0,2.406578713E0
3.019995417E0,-3.921844482E-2,-9.497749329E-1,2.091899872E0,2.297750113E0
3.030074417E0,-1.108894043E0,-1.830842743E0,2.449655914E0,3.253067052E0
3.040152417E0,-1.645079041E0,-2.829416199E0,2.905907135E0,4.376777051E0
3.050231417E0,-2.010169830E0,-3.509751434E0,2.831062775E0,4.937008640E0
3.060309417E0,-2.429148560E0,-4.166735229E0,2.189496918E0,5.296823761E0
3.070388417E0,-2.884501648E0,-4.633015594E0,1.134790192E0,5.574310005E0
3.080466417E0,-3.445085907E0,-4.881798248E0,2.956352234E-1,5.982304843E0
3.090545417E0,-3.640579376E0,-5.181325378E0,1.032852173E-1,6.333294459E0
3.100623417E0,-3.584146729E0,-5.557044067E0,7.499404907E-2,6.613053050E0
3.110702417E0,-3.648662567E0,-5.557642822E0,6.402186584E-1,6.679072705E0
3.120780417E0,-3.232228546E0,-5.489235077E0,5.432203674E-1,6.393284873E0
3.130859875E0,-1.585053864E0,-5.183570709E0,3.742218018E-3,5.420499521E0
3.140937875E0,1.924996948E-1,-4.858895874E0,-4.899311829E-1,4.887326244E0
3.151016875E0,1.368454285E0,-4.482728119E0,-1.128802643E0,4.820966078E0
3.161094875E0,2.403252411E0,-4.265529785E0,-2.240840149E0,5.384397002E0
3.171173875E0,3.151995392E0,-4.078867950E0,-3.331921234E0,6.137909890E0
3.181251875E0,2.973267059E0,-3.408262482E0,-4.221221924E0,6.186702246E0
3.191330875E0,2.542462921E0,-2.086660767E0,-3.981869659E0,5.164644890E0
3.201408875E0,2.643203430E0,-9.074130249E-1,-3.112776947E0,4.183216836E0
3.211487875E0,2.354004822E0,5.673202515E-2,-2.168839874E0,3.201315921E0
3.221565875E0,1.726659393E0,6.450086975E-1,-1.375789032E0,2.300040074E0
3.231644875E0,1.056502991E0,9.876461792E-1,-7.185058594E-1,1.614897586E0
3.241722875E0,2.728825378E-1,1.314716034E0,-1.556762695E-2,1.342827420E0
3.251801875E0,-4.550537109E-1,1.473386078E0,7.122189331E-1,1.698586537E0
3.261879875E0,-9.800120544E-1,1.573378143E0,7.156617737E-1,1.986986206E0
3.271958875E0,-1.342558136E0,1.759890289E0,4.975653076E-1,2.268754595E0
3.282037875E0,-1.527872772E0,1.972148895E0,2.571652222E-1,2.507967389E0
3.292115875E0,-1.451082458E0,2.103126526E0,-1.242416382E-1,2.558166818E0
3.302194875E0,-7.884104919E-1,1.602417755E0,-3.588038635E-1,1.821558118E0
3.312272875E0,2.281256104E-1,-2.878514099E-1,9.145980835E-2,3.785031371E-1
3.322351875E0,6.942562866E-1,-1.727707214E0,5.653742981E-1,1.945921917E0
3.332429875E0,4.634362793E-1,-2.248474274E0,8.876541138E-1,2.461369450E0
3.342508875E0,5.222639465E-1,-2.716999969E0,9.833052063E-1,2.936279549E0
3.352586875E0,9.523196411E-1,-2.993325348E0,1.432371368E0,3.452332121E0
3.362665875E0,1.462309113E0,-3.037633209E0,2.315684509E0,4.089982665E0
3.372743875E0,1.850751343E0,-3.099903717E0,3.460204468E0,5.000769795E0
3.382822875E0,1.753303986E0,-3.159629517E0,4.696184235E0,5.925494065E0
3.392900875E0,1.268911285E0,-3.222798157E0,5.142705688E0,6.200321412E0
3.402979875E0,6.420149231E-1,-1.977388000E0,4.296365662E0,4.772945041E0
3.413057875E0,-8.262817383E-2,1.019529877E0,4.135749664E0,4.260363115E0
3.423136875E0,-1.738784180E0,1.702559509E0,5.834117889E0,6.321314013E0
3.433214875E0,-5.492827606E0,2.866239624E0,9.714348907E0,1.152193818E1
3.443293875E0,-1.032253418E1,5.377118225E0,1.358470047E1,1.788888479E1
3.453371875E0,-9.874815216E0,7.723638611E0,9.635462952E0,1.581166390E1
3.463450875E0,-3.284170532E0,1.907543243E1,4.919220428E0,1.997139525E1
3.473528875E0,1.771715698E0,9.212083374E1,1.124222168E1,9.282119658E1
3.483607875E0,-1.885164780E1,8.307065369E1,1.366358643E1,8.627173189E1
3.493685875E0,-1.160731247E1,5.493665863E1,-1.175655212E0,5.616180490E1
3.503764875E0,-1.031699570E1,3.782544159E1,-2.399659882E0,3.928056516E1
3.513842875E0,-7.062912598E0,2.773267960E1,4.697830811E0,2.900096320E1
3.523921875E0,-6.677913208E0,2.363345398E1,8.839118958E0,2.610104779E1
3.533999875E0,-7.784861298E0,2.095058304E1,9.142088928E0,2.414764554E1
3.544078875E0,-7.547005920E0,1.969664062E1,5.964646454E0,2.192012677E1
3.554156875E0,-6.806645508E0,1.925191544E1,3.060086517E0,2.064777955E1
3.564235875E0,-5.971681824E0,1.884146896E1,2.881208496E0,1.997406566E1
3.574313875E0,-4.882247314E0,1.757540176E1,4.430935822E0,1.877136858E1
3.584392875E0,-3.646117859E0,1.566193085E1,5.770051117E0,1.708460544E1
3.594470875E0,-2.668949890E0,1.389036484E1,6.318660278E0,1.549164280E1
3.604549875E0,-1.713187408E0,1.208481949E1,6.154302063E0,1.366942965E1
3.614627875E0,-1.673669586E0,1.032762360E1,5.234913940E0,1.169894452E1
3.624706875E0,-2.413131866E0,8.690627747E0,4.220024414E0,9.957852283E0
3.634785875E0,-2.880759430E0,7.267686768E0,3.384012909E0,8.518778622E0
3.644863875E0,-3.044518890E0,6.258635101E0,2.682122498E0,7.458779370E0
3.654942875E0,-3.282673645E0,5.508544922E0,2.114053802E0,6.751980220E0
3.665020875E0,-3.364403687E0,4.376299438E0,1.847158813E0,5.820928158E0
3.675099875E0,-3.067121887E0,3.146307220E0,1.811832275E0,4.752812009E0
3.685177875E0,-2.439776459E0,2.090552673E0,1.977388000E0,3.772662581E0
3.695256875E0,-1.823058929E0,1.229692841E0,2.214644623E0,3.120951641E0
3.705334875E0,-1.476828918E0,4.562512207E-1,2.384092255E0,2.841317425E0
3.715413875E0,-1.208736420E0,-1.106199646E-1,2.398312683E0,2.687970282E0
3.725491875E0,-9.690847778E-1,-5.788462830E-1,2.381697235E0,2.635653628E0
3.735570875E0,-8.223898315E-1,-9.195378113E-1,2.242037659E0,2.559024753E0
3.745648875E0,-7.321275330E-1,-1.215173035E0,2.142045593E0,2.569244160E0
3.755727875E0,-7.704478455E-1,-1.550625458E0,2.082020416E0,2.707921381E0
3.765805875E0,-1.104253693E0,-1.843566284E0,2.280507660E0,3.133500925E0
3.775884875E0,-1.765728149E0,-1.406026154E0,2.751727753E0,3.559032322E0
3.785962875E0,-2.021695862E0,-2.883004761E-1,3.067720642E0,3.685278994E0
3.796041875E0,-2.273621979E0,8.256829834E-1,3.421285400E0,4.190024234E0
3.806119875E0,-2.716999969E0,2.874472504E0,3.930077362E0,5.575857699E0
3.816198875E0,-3.481011200E0,5.628595276E0,4.625980225E0,8.074541274E0
3.826276875E0,-4.719685364E0,9.019643555E0,5.763464813E0,1.169815910E1
3.836355875E0,-6.143075409E0,1.342932358E1,7.334747314E0,1.648886368E1
3.846433875E0,-6.950196991E0,1.914848053E1,8.758436737E0,2.217385305E1
3.856512875E0,-5.728737030E0,2.655058777E1,8.813971252E0,2.855587905E1
3.866590875E0,-1.342109070E0,3.367487274E1,8.323591003E0,3.471426909E1
3.876669875E0,3.421285400E0,3.655159058E1,5.291795654E0,3.709079493E1
3.886747875E0,4.169429626E0,3.363086426E1,4.132905579E-1,3.389085398E1
3.896826875E0,4.245321808E0,2.915951248E1,-1.869163055E0,2.952615275E1
3.906904875E0,6.171665955E0,2.637126068E1,-1.068777466E0,2.710489136E1
3.916983875E0,7.915539551E0,2.405976746E1,5.084925842E-1,2.533351024E1
3.927061875E0,8.503965912E0,2.165606598E1,1.563348999E0,2.331837666E1
3.937140875E0,8.115074615E0,1.812311279E1,9.806108093E-1,1.988122861E1
3.947218875E0,6.634054413E0,1.306049057E1,-7.394622803E-2,1.464897812E1
3.957297875E0,4.909340973E0,8.216114502E0,-7.961943054E-1,9.604170535E0
3.967375875E0,3.416195984E0,4.575834503E0,-1.086590424E0,5.812859464E0
3.977454875E0,2.577789459E0,1.823657684E0,-1.141675873E0,3.357700053E0
3.987532875E0,2.682571564E0,-1.803749084E-1,-1.263372803E0,2.970662576E0
3.997611875E0,2.559527435E0,-1.185384979E0,-3.852987671E-1,2.846888368E0
4.007689875E0,2.714006195E0,-1.433419189E0,7.828720093E-1,3.167555648E0
4.017768875E0,2.821782074E0,-1.631157990E0,1.550475769E0,3.609308184E0
4.027846875E0,2.962938538E0,-1.980980530E0,2.252216492E0,4.216131848E0
4.037925875E0,3.032693481E0,-2.400707703E0,2.668051758E0,4.698843199E0
4.048004875E0,3.028801575E0,-2.636317749E0,2.997666321E0,5.010969330E0
4.058082875E0,2.829865265E0,-2.941682739E0,3.437900848E0,5.336740297E0
4.068161875E0,2.235002289E0,-3.240760803E0,3.719165955E0,5.415714285E0
4.078239875E0,1.449884949E0,-3.370540924E0,3.796255646E0,5.279608831E0
4.088318875E0,4.375401306E-1,-3.079845428E0,3.213218079E0,4.472321506E0
4.098396875E0,-5.822891235E-2,-2.917133789E0,2.554438019E0,3.877913581E0
4.108475875E0,-4.004173279E-1,-2.793041840E0,1.849853210E0,3.373925556E0
4.118553875E0,-6.680607605E-1,-2.501298523E0,1.063238983E0,2.798799138E0
4.128632875E0,-9.596543884E-1,-2.192341003E0,3.023712158E-1,2.412203137E0
4.138710375E0,-1.128353577E0,-1.714235229E0,-2.345622253E-1,2.065624277E0
4.148789375E0,-3.255729675E-1,-1.084794159E0,-5.525010681E-1,1.260172034E0
4.158867375E0,6.692582703E-1,-1.030008087E0,-4.625381470E-1,1.312541363E0
4.168946375E0,8.684939575E-1,-9.276210022E-1,-6.095324707E-1,1.409358830E0
4.179024375E0,4.260140991E-1,-6.334826660E-1,-6.818321228E-1,1.023564040E0
4.189103375E0,1.776805115E-1,-1.231938171E-1,-2.433938599E-1,3.255574477E-1
4.199181375E0,2.965333557E-1,5.171745300E-1,4.571493530E-1,7.512569844E-1
4.209260375E0,2.815644836E-1,7.958949280E-1,1.272503815E0,1.527086524E0
4.219338375E0,3.086581421E-1,9.038204956E-1,2.199825439E0,2.398206267E0
4.229417375E0,4.629872131E-1,1.071322174E0,2.971620483E0,3.192587768E0
4.239495375E0,7.966433716E-1,1.356479187E0,3.593128052E0,3.922403044E0
4.249574375E0,1.127305756E0,1.926643524E0,4.281845856E0,4.828765626E0
4.259652375E0,1.998494110E0,3.189716949E0,5.612279205E0,6.757658678E0
4.269731375E0,7.812553711E0,1.728590378E1,6.090235291E0,1.992308788E1
4.279809375E0,1.310659470E1,4.498520279E1,8.249794464E0,4.757636391E1
4.289888375E0,1.293864395E1,4.342275192E1,1.502755005E1,4.773647612E1
4.299966375E0,1.794737823E1,3.750974808E1,7.738906860E0,4.229633868E1
4.310045375E0,1.146570694E1,2.653082886E1,3.341950378E0,2.909494712E1
4.320123375E0,7.811655579E0,2.123169846E1,4.581372986E0,2.308237338E1
4.330202375E0,6.749614105E0,2.043236069E1,4.852908325E0,2.205877089E1
4.340280375E0,5.188809814E0,1.956641144E1,4.567901001E0,2.075172097E1
4.350359375E0,4.609215088E0,1.850901031E1,4.576283569E0,1.961557284E1
4.360437375E0,4.253704376E0,1.840243195E1,6.112987976E0,1.985225741E1
4.370516375E0,4.092040558E0,1.829121323E1,7.724985809E0,2.027285582E1
4.380594375E0,3.873345337E0,1.730611176E1,7.814050598E0,1.937946581E1
4.390673375E0,3.127745819E0,1.523711426E1,7.348518677E0,1.720328956E1
4.400751375E0,2.634222107E0,1.321407120E1,6.593937836E0,1.500102729E1
4.410830375E0,2.428400116E0,1.158321259E1,2.990331573E0,1.220696620E1
4.420908375E0,1.523232422E0,1.005683670E1,-2.584375763E0,1.049472246E1
4.430987375E0,1.099613342E0,7.564669189E0,-9.350006561E0,1.207708542E1
4.441065375E0,1.789678345E0,3.861220551E0,-1.209694427E1,1.282372931E1
4.451144375E0,1.563798065E0,5.287005615E-1,-9.088350677E0,9.237050758E0
4.461222375E0,1.843865662E0,-1.251397705E0,-4.311334534E0,4.853188875E0
4.471301375E0,1.766626282E0,-2.336940308E0,-9.583071899E-1,3.082306132E0
4.481379375E0,1.063987427E0,-3.578757935E0,-3.424877930E-1,3.749249990E0
4.491458375E0,8.548722839E-1,-4.471052399E0,-1.191522217E0,4.705405548E0
4.501536375E0,9.593550110E-1,-4.485871582E0,-1.364562378E0,4.785962429E0
4.511615375E0,9.491761780E-1,-3.919898529E0,-7.625143433E-1,4.104627635E0
4.521694375E0,8.006849670E-1,-3.176544342E0,2.177970886E-1,3.283133556E0
4.531772375E0,4.471202087E-1,-2.121837616E0,9.484277344E-1,2.366775553E0
4.541851375E0,2.990780640E-1,-1.050665131E0,1.237776031E0,1.650888975E0
4.551929375E0,3.655398560E-1,-4.296066284E-1,1.361718292E0,1.473926032E0
4.562008375E0,3.324586487E-1,1.100212097E-1,1.502725067E0,1.542989322E0
4.572086375E0,2.052232361E-1,9.601034546E-1,1.648821259E0,1.918991079E0
4.582165375E0,2.415975952E-1,2.111060028E0,1.945055237E0,2.880656820E0
4.592243375E0,3.348536682E-1,3.086731110E0,2.330204315E0,3.881995373E0
4.602322375E0,-3.562591553E-2,4.029770050E0,2.713856506E0,4.858531980E0
4.612400375E0,-3.736230469E-1,5.138664093E0,3.112627258E0,6.019461047E0
4.622479375E0,-4.376898193E-1,6.685846710E0,3.735332336E0,7.671038148E0
4.632557375E0,-8.497828674E-1,8.724457397E0,4.905898132E0,1.004520404E1
4.642636375E0,-1.868115234E0,1.167437302E1,6.667434998E0,1.357333891E1
4.652714375E0,-3.249293060E0,1.597522934E1,9.627379761E0,1.893283653E1
4.662793375E0,-6.167025604E0,2.010783554E1,1.630424515E1,2.661175802E1
4.672871375E0,-6.748566284E0,2.126747406E1,1.884775589E1,2.920764458E1
4.682950375E0,-2.043400726E0,2.132824768E1,1.528381714E1,2.631852393E1
4.693028375E0,2.195035400E0,2.244462616E1,1.415291885E1,2.662488565E1
4.703107375E0,5.121300201E0,2.595841919E1,1.352198090E1,2.971382187E1
4.713185375E0,6.800807648E0,2.911565369E1,1.158635605E1,3.206580610E1
4.723264375E0,6.131699066E0,3.083437958E1,1.008078690E1,3.301482942E1
4.733342375E0,4.504432983E0,3.070145599E1,8.960965576E0,3.229811482E1
4.743421375E0,3.088078308E0,2.996094589E1,9.869276733E0,3.169538026E1
4.753499375E0,4.316573639E0,3.073618378E1,1.250304977E1,3.346150108E1
4.763578375E0,7.302863617E0,3.258977921E1,1.388826920E1,3.617056188E1
4.773656375E0,8.158035278E0,3.417348587E1,1.280706757E1,3.739520899E1
4.783735375E0,8.334967346E0,3.646222641E1,1.146720383E1,3.912112472E1
4.793813375E0,8.084837494E0,3.790851883E1,1.079794556E1,4.023699822E1
4.803892375E0,7.153623962E0,3.641492477E1,9.799671478E0,3.838299940E1
4.813970375E0,5.989045715E0,3.272569656E1,8.375083923E0,3.430717002E1
4.824049375E0,3.889062653E0,2.927731750E1,6.117778015E0,3.016145448E1
4.834127375E0,1.204844513E0,2.409988403E1,5.566624146E0,2.476375103E1
4.844206375E0,5.924679565E-1,1.833567078E1,9.919871521E0,2.085549549E1
4.854284375E0,1.618135071E0,1.231429230E1,1.265019379E1,1.772815723E1
4.864363375E0,2.237996063E0,6.282136230E0,1.024215134E1,1.222192808E1
4.874441375E0,2.163002014E0,2.058070221E0,7.107819214E0,7.709430895E0
4.884520375E0,1.513802032E0,-7.473957825E-1,4.927153931E0,5.208362786E0
4.894598375E0,8.294252014E-1,-2.082768860E0,2.935994568E0,3.694040659E0
4.904677375E0,6.855743408E-2,-2.483934631E0,1.522334290E0,2.914126467E0
4.914755375E0,-2.065704346E-1,-2.483934631E0,6.644682312E-1,2.579558223E0
4.924834375E0,-2.806663513E-1,-2.401306458E0,2.643502808E-1,2.432062371E0
4.934912375E0,-5.692662048E-1,-2.561922455E0,-6.351292419E-1,2.700166630E0
4.944991375E0,-9.568103027E-1,-2.828218689E0,-2.418370972E0,3.842242192E0
4.955069375E0,-1.073567505E0,-3.163222046E0,-3.176544342E0,4.609658865E0
4.965148375E0,-1.199755096E0,-3.803440704E0,-3.649710388E0,5.406103902E0
4.975226375E0,-1.354233856E0,-4.824766846E0,-3.089275818E0,5.886930400E0
4.985305375E0,-1.535806274E0,-6.566395111E0,-1.218316498E0,6.852776135E0
4.995383375E0,-1.670975189E0,-8.393645325E0,-6.750961304E-1,8.584939994E0
5.005462375E0,-1.718576202E0,-9.640103302E0,-9.780661011E-1,9.840818520E0
5.015540375E0,-9.484277344E-1,-9.638756104E0,-8.297245789E-1,9.720780692E0
5.025619375E0,-8.262817383E-2,-8.574319611E0,-2.049987030E0,8.816361552E0
5.035697375E0,8.993298340E-1,-9.209149475E0,-3.461701355E0,9.879301821E0
5.045776375E0,1.648970947E0,-8.804989929E0,-4.448898468E0,1.000198232E1
5.055854375E0,1.969005432E0,-6.412215729E0,-4.573888550E0,8.118740630E0
5.065933375E0,1.676663361E0,-3.127895508E0,-4.199966125E0,5.498603985E0
5.076011375E0,1.144370270E0,-5.046006775E-1,-3.018622742E0,3.267459015E0
5.086090375E0,7.482939148E-1,3.930825806E-1,-1.712139587E0,1.909418672E0
5.096168375E0,5.730084229E-1,7.322772217E-1,-4.800517273E-1,1.046431194E0
5.106247375E0,3.561094666E-1,1.029708710E0,3.107537842E-1,1.132996864E0
5.116326375E0,3.367996216E-2,1.294058990E0,8.436456299E-1,1.545141081E0
5.126404375E0,-2.664459229E-1,1.581910400E0,8.433462524E-1,1.812364987E0
5.136483375E0,-4.908293152E-1,1.761686554E0,8.388555908E-1,2.011996927E0
5.146561375E0,-6.602769470E-1,1.814826050E0,8.117619324E-1,2.094878677E0
5.156640375E0,-9.304650879E-1,1.929038544E0,1.573228455E-1,2.147488175E0
5.166718375E0,-1.394350433E0,1.830992432E0,-3.653901672E-1,2.330291053E0
5.176797375E0,-1.640438690E0,1.583856354E0,-2.013313293E-1,2.289142711E0
5.186875375E0,-1.810634766E0,1.306932220E0,7.023394775E-1,2.340886760E0
5.196954375E0,-1.407223663E0,-6.258485413E-1,2.145338745E0,2.640917107E0
5.207032375E0,-1.104553070E0,-2.503992920E0,2.397863617E0,3.638649193E0
5.217111375E0,-8.976832581E-1,-3.432811432E0,2.014810181E0,4.080378613E0
5.227189375E0,-9.312135315E-1,-4.123325500E0,1.556762695E0,4.504717740E0
5.237268375E0,-5.218148804E-1,-4.176464996E0,1.367556152E0,4.425535048E0
5.247346375E0,-3.742218018E-3,-3.844605103E0,2.309846649E0,4.485130315E0
5.257425375E0,2.459385681E-1,-3.389701080E0,3.321143646E0,4.751900074E0
5.267503375E0,9.819580078E-2,-2.695744171E0,4.189637604E0,4.982945143E0
5.277582375E0,-2.183958435E-1,-7.737409973E-1,4.564308472E0,4.634574813E0
5.287660375E0,-2.302212524E-1,1.105900269E0,4.004772034E0,4.161035481E0
5.297739375E0,-1.128353577E0,1.838476868E0,3.773502960E0,4.346550768E0
5.307817375E0,-4.332590332E0,3.109633484E0,8.404572601E0,9.953793247E0
5.317896375E0,-1.075408676E1,5.998476105E0,2.305370956E1,2.613628938E1
5.327974375E0,-6.000272369E0,7.062313843E0,1.282742523E1,1.582473960E1
5.338053375E0,-1.619931335E0,1.125659180E1,5.120851135E-1,1.138407957E1
5.348131375E0,6.775510254E0,4.186239670E1,2.228415985E0,4.246567595E1
5.358210375E0,1.386446869E1,1.329545695E2,2.703527985E1,1.363819908E2
5.368288375E0,-1.320254517E0,9.605450363E1,1.724698471E1,9.759953495E1
5.378367375E0,-4.172124023E0,4.382182205E1,-6.643335114E0,4.451845245E1
5.388445375E0,-2.731968842E0,2.477752487E1,-3.430266724E0,2.516259371E1
5.398524375E0,-1.535506897E0,1.934487213E1,1.913021851E0,1.949978235E1
5.408602375E0,-1.985471191E0,1.692739929E1,5.638175354E0,1.795182342E1
5.418681375E0,-2.298170929E0,1.663161438E1,6.583309937E0,1.803419408E1
5.428759375E0,-1.150806885E0,1.696871338E1,5.097948761E0,1.775529982E1
5.438838375E0,4.293072510E-1,1.619781647E1,4.322710876E0,1.677019357E1
5.448916375E0,1.162931671E0,1.467982315E1,4.170178070E0,1.530490127E1
5.458995375E0,1.072968750E0,1.296992889E1,3.510499878E0,1.347938896E1
5.469073375E0,8.948391724E-1,1.132440079E1,2.791994019E0,1.169777846E1
5.479152375E0,6.755451965E-1,9.944121094E0,2.264041901E0,1.022094865E1
5.489230375E0,7.270381165E-1,8.597521362E0,1.644180908E0,8.783466790E0
5.499309375E0,1.246907043E-1,7.428452454E0,8.445437622E-1,7.477346307E0
5.509387375E0,-6.583309937E-1,6.151308289E0,2.559677124E-1,6.191729389E0
5.519466375E0,-1.086590424E0,4.741988983E0,-3.921844482E-2,4.865046387E0
5.529544375E0,-1.279539185E0,3.552861786E0,-2.185455322E-1,3.782566529E0
5.539623375E0,-1.343156891E0,2.428250427E0,-2.411485291E-1,2.785430520E0
5.549701375E0,-1.415905609E0,1.387165375E0,-2.564167786E-1,1.998691080E0
5.559780375E0,-1.250200195E0,6.738986206E-1,-2.468367004E-1,1.441550636E0
5.569858375E0,-9.689350891E-1,8.457412720E-2,-2.444416809E-1,1.002865756E0
5.579937375E0,-7.214996338E-1,-3.525169373E-1,-2.149530029E-1,8.312849728E-1
5.590015375E0,-6.620732117E-1,-5.833369446E-1,-2.140548706E-1,9.079881145E-1
5.600094375E0,-7.830216980E-1,-5.002597046E-1,-1.631607056E-1,9.434003219E-1
5.610172375E0,-9.879455566E-1,-4.126918030E-1,4.790039063E-2,1.071748755E0
5.620251375E0,-1.101409607E0,-3.200344849E-1,4.670288086E-1,1.238402641E0
5.630329375E0,-1.287772064E0,-5.807922363E-2,8.840615845E-1,1.563104274E0
5.640408375E0,-1.508113861E0,4.326004028E-1,1.233135681E0,1.995538558E0
5.650486375E0,-1.822011108E0,1.270707550E0,1.468296661E0,2.662764962E0
5.660565375E0,-2.544259186E0,2.644400940E0,1.657054138E0,4.026405289E0
5.670643375E0,-3.530258789E0,4.878954163E0,2.169139252E0,6.400944144E0
5.680722375E0,-4.788691864E0,8.571774902E0,3.348686371E0,1.037403466E1
5.690800375E0,-6.552324371E0,1.377839767E1,5.371879120E0,1.617511306E1
5.700879375E0,-8.380622406E0,1.969080276E1,8.126750336E0,2.289119080E1
5.710957375E0,-1.029573990E1,2.679083817E1,1.078477295E1,3.066044026E1
5.721036375E0,-1.047641418E1,3.404310699E1,1.078357544E1,3.721523730E1
5.731114375E0,-7.502548370E0,3.726815048E1,7.469317474E0,3.874266351E1
5.741193375E0,-2.528092804E0,3.272524750E1,3.987557831E0,3.306408466E1
5.751271375E0,-3.436853027E-1,2.985376877E1,2.672692108E0,2.997513824E1
5.761350375E0,2.002835083E0,2.994522858E1,1.567540283E0,3.005304054E1
5.771428375E0,5.119803314E0,2.802142914E1,2.529290314E0,2.859738076E1
5.781507375E0,7.158414001E0,2.570634338E1,4.647535400E0,2.708613236E1
5.791585375E0,8.362809448E0,2.177102692E1,5.845194855E0,2.404330463E1
5.801664375E0,8.000263367E0,1.631083145E1,5.060975647E0,1.885897428E1
5.811742375E0,6.632557526E0,1.158291321E1,3.274291077E0,1.374320486E1
5.821821375E0,5.338348846E0,7.595355377E0,1.954785004E0,9.487284971E0
5.831899375E0,3.967499542E0,3.907624054E0,1.302740936E0,5.719065685E0
5.841978375E0,2.797682190E0,1.166973267E0,1.036295013E0,3.203554213E0
5.852056375E0,2.236798553E0,-5.384303284E-1,9.656419373E-1,2.495123111E0
5.862135375E0,2.271975403E0,-1.532213745E0,1.089584198E0,2.949024401E0
5.872213375E0,2.448907471E0,-2.031725006E0,1.810485077E0,3.660998568E0
5.882292375E0,2.925516357E0,-2.261048126E0,2.954256592E0,4.732717676E0
5.892370375E0,3.388054504E0,-2.564467163E0,3.759581909E0,5.673610957E0
5.902449375E0,3.593577118E0,-2.910697174E0,4.461023254E0,6.425471424E0
5.912527375E0,3.736230469E0,-3.196452942E0,4.733157349E0,6.824918169E0
5.922606375E0,3.727398834E0,-3.386108551E0,4.692442017E0,6.883185692E0
5.932684375E0,3.429967346E0,-3.634442139E0,4.367916870E0,6.637209010E0
5.942763375E0,3.025658112E0,-3.675007782E0,3.468736725E0,5.890027476E0
5.952841375E0,2.366129608E0,-3.472179565E0,2.005978546E0,4.656023001E0
5.962920375E0,1.669178925E0,-3.094664612E0,7.352709961E-1,3.592176329E0
5.972998375E0,1.062191162E0,-2.722987518E0,3.161425781E-1,2.939873674E0
5.983077375E0,3.300636292E-1,-2.374512177E0,5.995033264E-1,2.471164566E0
5.993155375E0,-2.547702026E-1,-2.070943451E0,1.046922913E0,2.334472578E0
6.003234375E0,-6.304888916E-1,-1.993255005E0,1.196162567E0,2.408606785E0
6.013312375E0,-8.644523621E-1,-2.020198975E0,1.059796143E0,2.439600305E0
6.023391375E0,-9.276210022E-1,-2.007625122E0,1.036295013E0,2.442324039E0
6.033469375E0,-9.812095642E-1,-1.995051270E0,1.137185211E0,2.497236869E0
6.043548375E0,-1.172661438E0,-1.806892548E0,1.257984009E0,2.494497804E0
6.053626375E0,-1.133442993E0,-7.518864441E-1,1.327888641E0,1.900872033E0
6.063705375E0,-6.830296326E-1,5.324427795E-1,1.466350708E0,1.703000056E0
6.073783375E0,-6.819818115E-1,1.201701050E0,1.691931610E0,2.184448941E0
6.083862375E0,-7.235952759E-1,1.522633667E0,1.930834808E0,2.563225793E0
6.093941375E0,-9.002279663E-1,1.873054962E0,2.367177429E0,3.149964169E0
6.104019375E0,-1.158141632E0,2.391127625E0,3.155737610E0,4.125222808E0
6.114098375E0,-1.378483429E0,3.286415863E0,4.700525208E0,5.898786571E0
6.124176375E0,-1.083596649E0,4.691394196E0,5.813909912E0,7.548834987E0
6.134255125E0,1.526525574E0,1.014859589E1,6.019133148E0,1.189765702E1
6.144334125E0,1.137963593E1,3.645713699E1,6.305787048E0,3.870893827E1
6.154413125E0,8.270451508E0,3.956796799E1,9.605674896E0,4.154868769E1
6.164491125E0,1.051308792E1,3.226211060E1,9.282347260E0,3.517855552E1
6.174569125E0,1.151181107E1,2.977697845E1,3.121458893E0,3.207699714E1
6.184648125E0,1.067310516E1,2.668575668E1,-1.026864624E-1,2.874117827E1
6.194726125E0,8.749904480E0,2.521521469E1,-6.351292419E-1,2.669777649E1
6.204805125E0,7.211703186E0,2.344783997E1,-1.277742920E0,2.456506643E1
6.214884125E0,6.238726501E0,2.072096054E1,-2.340233459E0,2.176595063E1
6.224962125E0,5.041815491E0,1.847622849E1,-2.515668640E0,1.931630170E1
6.235041125E0,4.218078461E0,1.689940750E1,-1.427731018E0,1.747628609E1
6.245119125E0,3.688030701E0,1.591595261E1,-2.559677124E-1,1.633966454E1
6.255198125E0,3.048560486E0,1.510029877E1,-3.103047180E-1,1.540808336E1
6.265276125E0,2.537074127E0,1.398781219E1,-1.040336609E0,1.425404979E1
6.275355125E0,3.024161224E0,1.285496796E1,-1.403481445E0,1.328026779E1
6.285433125E0,3.883075104E0,1.162826889E1,-7.937992859E-1,1.228515474E1
6.295512125E0,4.065545654E0,1.031400192E1,1.911524963E-1,1.108800417E1
6.305590125E0,4.174968109E0,8.734636230E0,9.695338440E-1,9.729554186E0
6.315669125E0,4.297114105E0,7.482041016E0,8.496331787E-1,8.669948323E0
6.325747125E0,4.408632202E0,6.416556702E0,3.894900513E-1,7.794866278E0
6.335826125E0,4.255051575E0,5.620661774E0,8.966354370E-2,7.050201574E0
6.345904125E0,4.337829437E0,5.313949585E0,9.834548950E-2,6.860356861E0
6.355983125E0,3.906426544E0,5.285359039E0,3.131488037E-1,6.579760687E0
6.366061125E0,3.627706146E0,5.483397217E0,7.843688965E-2,6.575260395E0
6.376140125E0,2.859803009E0,5.354664917E0,-8.503816223E-1,6.129768228E0
6.386218125E0,5.647755432E-1,4.824168091E0,-1.203048248E0,5.003887915E0
6.396297125E0,-3.023712158E-1,4.754413147E0,-8.689430237E-1,4.842616514E0
6.406375125E0,-1.511856079E-2,4.603826294E0,2.182461548E-1,4.609021208E0
6.416454125E0,8.048762512E-1,4.242777100E0,2.398013306E-1,4.325099765E0
6.426532125E0,8.092172241E-1,3.619473267E0,6.171665955E-1,3.759828966E0
6.436611125E0,1.769919434E0,2.568658447E0,5.119354248E-1,3.161123044E0
6.446689125E0,2.548151093E0,1.420695648E0,2.314187622E-1,2.926602938E0
6.456768125E0,2.924767914E0,2.942880249E-1,6.803352356E-1,3.017238609E0
6.466846125E0,2.922971649E0,-6.915618896E-1,5.926176453E-1,3.061570966E0
6.476925125E0,2.361938324E0,-1.295106812E0,3.213816833E-1,2.712810440E0
6.487003125E0,2.120640106E0,-1.279838562E0,2.329156494E-1,2.487840611E0
6.497082125E0,1.976190491E0,-7.866142273E-1,4.737648010E-1,2.179115390E0
6.507160125E0,1.619033203E0,-3.526666260E-1,9.580078125E-1,1.914006591E0
6.517239125E0,1.525926819E0,2.589614868E-2,1.134191437E0,1.901450363E0
6.527317125E0,1.312321014E0,5.026547241E-1,1.091081085E0,1.779130729E0
6.537396125E0,1.165177002E0,1.022823029E0,1.260828094E0,1.998372307E0
6.547474125E0,1.138083344E0,1.420396271E0,1.664089508E0,2.466161624E0
6.557553125E0,1.177451477E0,1.963916016E0,2.020797729E0,3.054010734E0
6.567631125E0,1.121767273E0,2.543361053E0,2.571652222E0,3.786877660E0
6.577710125E0,1.059347076E0,2.867736511E0,3.048560486E0,4.317389253E0
6.587788125E0,1.093476105E0,3.330124969E0,3.409010925E0,4.889455777E0
6.597867125E0,8.888516235E-1,4.542603607E0,3.715274048E0,5.935365700E0
6.607945125E0,1.209185486E0,6.293512573E0,4.231251068E0,7.679447614E0
6.618024125E0,5.625302124E-1,8.176147614E0,4.908143463E0,9.552785054E0
6.628102125E0,-5.533992004E-1,1.049991531E1,6.642886047E0,1.243713823E1
6.638181125E0,-1.165626068E0,1.450738174E1,9.266480255E0,1.725370875E1
6.648259125E0,7.069798279E-1,2.160023209E1,1.192555069E1,2.468377212E1
6.658338125E0,2.944826202E0,2.813429443E1,1.745175888E1,3.323814695E1
6.668416125E0,3.308719482E0,2.828562973E1,1.742975464E1,3.338893261E1
6.678495125E0,1.835632782E0,2.266122574E1,1.197449890E1,2.569609549E1
6.688573125E0,1.086740112E0,1.832489319E1,9.005722504E0,2.044714533E1
6.698652125E0,1.198707275E0,1.673849213E1,1.142693756E1,2.030243630E1
6.708730125E0,2.209106140E0,1.712708405E1,1.319221664E1,2.173135380E1
6.718809125E0,3.400328979E0,1.826965805E1,1.176074341E1,2.199221971E1
6.728887125E0,4.387675781E0,1.951806198E1,1.055051010E1,2.261680140E1
6.738966125E0,5.885012054E0,2.153272247E1,1.085841980E1,2.482331131E1
6.749044125E0,7.383994904E0,2.447455490E1,1.100421661E1,2.783199601E1
6.759123125E0,7.617808685E0,2.736055344E1,1.101095261E1,3.046099097E1
6.769201125E0,6.923103333E0,3.084141495E1,1.180235687E1,3.374044848E1
6.779280125E0,6.581962738E0,3.444996094E1,1.261172379E1,3.727167314E1
6.789358125E0,6.590494995E0,3.738490768E1,1.290167084E1,4.009387805E1
6.799437125E0,6.523584137E0,3.879512512E1,1.228166016E1,4.121235324E1
6.809515125E0,5.765710144E0,3.774775314E1,1.035142410E1,3.956372406E1
6.819594125E0,4.246369629E0,3.421973969E1,8.504265289E0,3.551541591E1
6.829672125E0,3.271896057E0,3.014521271E1,7.314239960E0,3.119194222E1
6.839751125E0,6.047124939E0,2.481210297E1,5.797593842E0,2.618817038E1
6.849829125E0,7.218588867E0,2.102393051E1,5.107528839E0,2.280790499E1
6.859908125E0,5.337301025E0,1.518397476E1,3.947590942E0,1.657176352E1
6.869986125E0,3.776646423E0,9.206604767E0,2.060914307E0,1.016228308E1
6.880065125E0,2.337239685E0,5.287454681E0,1.751058655E0,6.040370251E0
6.890143125E0,8.737330627E-1,1.772464142E0,2.946173401E0,3.547531016E0
6.900222125E0,7.409591675E-1,-4.340972900E-1,3.742068329E0,3.839340610E0
6.910300125E0,6.818321228E-1,-1.490151215E0,3.489393768E0,3.855037556E0
6.920379125E0,1.079255676E-1,-2.037263489E0,2.703228607E0,3.386670246E0
6.930457125E0,-3.752696228E-1,-2.163151703E0,1.738784180E0,2.800611184E0
6.940536125E0,-4.644841003E-1,-2.340083771E0,5.825885010E-1,2.455839346E0
6.950614125E0,-6.777905273E-1,-3.072211304E0,-1.739682312E0,3.595048934E0
6.960693125E0,-1.091829529E0,-3.802841949E0,-3.587739258E0,5.340933588E0
6.970771125E0,-1.438059540E0,-3.910767517E0,-2.358196106E0,4.787818573E0
6.980850125E0,-1.789678345E0,-4.319417725E0,-3.017724609E-1,4.685230483E0
6.990928125E0,-2.226020966E0,-5.264252930E0,8.987310791E-1,5.785779619E0
7.001007125E0,-2.453098755E0,-5.898334351E0,2.796185303E-1,6.394233976E0
7.011085125E0,-3.140619049E0,-6.941215668E0,-2.758912811E0,8.102812034E0
7.021164125E0,-3.620072021E0,-7.615862732E0,-4.326902161E0,9.477782911E0
7.031242125E0,-3.176993408E0,-7.663164368E0,-3.074756012E0,8.847118162E0
7.041321125E0,-1.864373016E0,-7.268285522E0,-2.519859924E0,7.915399877E0
7.051399125E0,-1.474433899E-1,-6.576124878E0,-2.275717621E0,6.960319580E0
7.061478125E0,1.150956573E0,-5.794450378E0,-2.289638672E0,6.335834710E0
7.071556125E0,2.129471741E0,-3.755390625E0,-2.628683624E0,5.054462013E0
7.081635125E0,2.835553436E0,-4.504133606E-1,-2.497107239E0,3.805099216E0
7.091713125E0,2.994522858E0,9.036708069E-1,-2.483485565E0,3.993931475E0
7.101792125E0,2.437082062E0,1.371448059E0,-2.515818329E0,3.761592830E0
7.111870125E0,1.733994141E0,1.769320679E0,-2.343825989E0,3.410388777E0
7.121949125E0,8.268804932E-1,1.993554382E0,-1.836680603E0,2.833970018E0
7.132027125E0,-6.307882690E-1,2.142644348E0,-8.782237244E-1,2.400019907E0
7.142106250E0,-1.935175781E0,2.407294006E0,8.903485107E-1,3.214450219E0
7.152184250E0,-3.163970490E0,2.643053741E0,2.676883392E0,4.915500690E0
7.162263250E0,-4.448299713E0,2.673889618E0,2.113005981E0,5.603735388E0
7.172341250E0,-5.634133759E0,2.623893585E0,1.408271484E0,6.372716009E0
7.182420250E0,-5.481301575E0,3.137475586E0,3.392694855E0,7.169295529E0
7.192498250E0,-3.032394104E0,2.540966034E0,3.819158020E0,5.498899014E0
7.202577250E0,-1.930984497E-2,-7.225474548E-1,4.020339661E0,4.084798487E0
7.212655250E0,1.288670197E0,-3.695365448E0,4.114493866E0,5.678508294E0
7.222734250E0,1.400936737E0,-6.022276611E0,9.819580078E-2,6.183856543E0
7.232812250E0,2.417921906E0,-6.863976288E0,-2.105222168E0,7.575782283E0
7.242891250E0,3.271297302E0,-6.449188843E0,2.154020691E-1,7.234626516E0
7.252969250E0,2.849624176E0,-5.488786011E0,2.794089661E0,6.786314674E0
7.263048250E0,1.929038544E0,-4.493954773E0,3.654650116E0,6.105185229E0
7.273126250E0,1.160536652E0,-3.027454376E0,3.932921448E0,5.097077244E0
7.283205250E0,8.430468750E-1,6.930587769E-2,3.679199066E0,3.775187029E0
7.293283250E0,2.936892700E-1,2.062261505E0,2.911894684E0,3.580266268E0
7.303362250E0,-4.451742554E-1,2.684218140E0,2.981200562E0,4.036181850E0
7.313440250E0,-1.445394287E0,3.724405060E0,6.424041138E0,7.564962805E0
7.323519250E0,-5.178780670E0,6.197562103E0,1.890448792E1,2.055746114E1
7.333597250E0,-6.868916016E0,9.257798309E0,1.813808167E1,2.149136671E1
7.343676250E0,-1.593885498E0,1.325493622E1,6.353986816E0,1.478536282E1
7.353754250E0,1.485915024E1,7.484076782E1,1.229917374E1,7.728650949E1
7.363833250E0,5.833818512E0,1.067582950E2,1.763692383E1,1.083624846E2
7.373911250E0,-4.041595459E-1,5.427338791E1,-5.331014099E0,5.453607697E1
7.383990250E0,-7.409891052E0,3.177083221E1,-9.292825470E0,3.392121564E1
7.394068250E0,-8.775650940E0,2.602667725E1,-5.009931793E0,2.791951637E1
7.404147250E0,-4.517306213E0,2.780482956E1,1.105750580E0,2.819108523E1
7.414225250E0,-7.487429810E-1,3.058350128E1,8.253686371E0,3.168650352E1
7.424304250E0,1.707948303E-1,2.901341629E1,1.080572937E1,3.096080236E1
7.434382250E0,9.166937256E-1,2.347104172E1,8.868607635E0,2.510741580E1
7.444461250E0,1.564546509E0,1.955533447E1,7.832312622E0,2.112354215E1
7.454539250E0,2.218237152E0,1.834569992E1,6.417155457E0,1.956182931E1
7.464618250E0,1.251547394E0,1.764261200E1,4.218527527E0,1.818307190E1
7.474696250E0,-2.746788025E-1,1.627101425E1,3.485052795E0,1.664232394E1
7.484775250E0,-1.719624023E0,1.459105774E1,5.018014984E0,1.552535175E1
7.494853250E0,-2.793041840E0,1.292247757E1,5.609135742E0,1.436154285E1
7.504932250E0,-3.043171692E0,1.149160309E1,5.559289398E0,1.312339644E1
7.515010250E0,-2.080074463E0,1.098640366E1,5.106481018E0,1.229243359E1
7.525089250E0,-1.041983185E0,1.057026901E1,3.733087006E0,1.125843038E1
7.535167250E0,-7.188052368E-1,9.472152557E0,2.583028564E0,9.844307574E0
7.545246250E0,-2.230361938E-1,8.025261383E0,1.818568268E0,8.231752909E0
7.555324250E0,1.913021851E-1,6.456822968E0,8.937913513E-1,6.521197922E0
7.565402250E0,8.327183533E-1,4.991071014E0,-1.100960541E0,5.178448015E0
7.575481250E0,1.719474335E0,3.066822510E0,-4.245920563E0,5.512697499E0
7.585560250E0,2.649340668E0,1.149010620E0,-6.012696533E0,6.670213713E0
7.595638250E0,2.765798492E0,-2.163002014E-1,-4.377646637E0,5.182684358E0
7.605717250E0,2.648442535E0,-1.285227356E0,-2.152224426E0,3.646659732E0
7.615795250E0,2.497556305E0,-2.002685394E0,-8.158035278E-1,3.303645211E0
7.625873250E0,2.364932098E0,-2.391427002E0,-1.661544800E-2,3.363346995E0
7.635952250E0,2.017803955E0,-2.756368103E0,4.706213379E-1,3.448272374E0
7.646031250E0,1.586401062E0,-2.913541260E0,5.565426636E-1,3.363797072E0
7.656109250E0,1.073717194E0,-2.496059418E0,-6.915618896E-2,2.718080905E0
7.666187250E0,1.199006653E-1,-1.930086365E0,-4.971162415E-1,1.996680771E0
7.676266250E0,-5.516029358E-1,-1.701960754E0,9.101074219E-2,1.791429363E0
7.686344250E0,-8.527766418E-1,-1.522483978E0,9.348060608E-1,1.979658515E0
7.696423250E0,-9.301657104E-1,-1.351240082E0,1.598974915E0,2.290803087E0
7.706502250E0,-9.343569946E-1,-1.016985168E0,2.062710571E0,2.482349034E0
7.716580250E0,-1.002465363E0,-6.644682312E-1,2.129022675E0,2.445238717E0
7.726659250E0,-9.339079285E-1,-2.965333557E-1,1.862427063E0,2.104459697E0
7.736737250E0,-9.000782776E-1,8.382568359E-2,1.436862030E0,1.697568892E0
7.746815250E0,-9.083111572E-1,4.926255798E-1,1.012644196E0,1.446774823E0
7.756894250E0,-9.554631042E-1,9.928852844E-1,7.241940308E-1,1.556659220E0
7.766973250E0,-1.046473846E0,1.481618958E0,5.980064392E-1,1.909951295E0
7.777051250E0,-1.398990784E0,2.167941742E0,7.219487000E-1,2.679245516E0
7.787129250E0,-1.802401886E0,3.157084808E0,1.100960541E0,3.798414295E0
7.797208250E0,-2.464175720E0,4.792583771E0,1.807940369E0,5.684159529E0
7.807286250E0,-3.676504669E0,7.704927521E0,3.429967346E0,9.200395137E0
7.817365250E0,-6.269861755E0,1.261486725E1,6.897805939E0,1.568520860E1
7.827443250E0,-9.207502899E0,1.777733185E1,1.093476105E1,2.281185298E1
7.837522250E0,-1.018452118E1,2.212025070E1,1.303190002E1,2.761992724E1
7.847600250E0,-7.943531342E0,2.648068314E1,1.166075134E1,3.000498944E1
7.857679250E0,-5.681285706E0,3.220148666E1,8.427624664E0,3.376740452E1
7.867757250E0,-4.179309082E0,3.617078247E1,5.376968536E0,3.680630272E1
7.877836250E0,-2.114652557E0,3.782738754E1,3.175047455E0,3.801925736E1
7.887914250E0,-8.951385498E-2,3.655129120E1,1.881587219E0,3.659979879E1
7.897993250E0,1.164278870E0,3.376618286E1,2.249671783E0,3.386106427E1
7.908071250E0,3.268602905E0,3.179059113E1,4.747377777E0,3.230886945E1
7.918150250E0,4.925507355E0,3.071343109E1,6.294560394E0,3.173636656E1
7.928228250E0,6.472390594E0,2.773387711E1,4.699028320E0,2.886417583E1
7.938307250E0,6.532864838E0,2.295850754E1,2.065854034E0,2.395911401E1
7.948385250E0,4.991819458E0,1.786549850E1,1.440005493E0,1.860558825E1
7.958464250E0,3.676205292E0,1.312291077E1,1.757644958E0,1.374098207E1
7.968542250E0,2.842439117E0,9.534273376E0,1.553469543E0,1.006951322E1
7.978621250E0,1.579665070E0,6.365512848E0,1.428479462E0,6.712350492E0
7.988699250E0,4.816983032E-1,3.577261047E0,1.561403046E0,3.932786458E0
7.998778250E0,1.838177490E-1,1.515448608E0,2.016756134E0,2.529363310E0
8.008856250E0,1.438508606E-1,2.709365845E-2,2.729424133E0,2.733346527E0
8.018935250E0,-2.390528870E-1,-1.371897125E0,3.246898041E0,3.532930072E0
8.029013250E0,-2.327659607E-1,-2.186353455E0,3.333268433E0,3.993119065E0
8.039092250E0,-6.242019653E-2,-2.558778992E0,3.207978973E0,4.103946308E0
8.049170250E0,4.296066284E-2,-2.669398956E0,3.039878540E0,4.045787679E0
8.059249250E0,2.198927307E-1,-2.713557129E0,2.923271027E0,3.994653752E0
8.069327250E0,3.887416077E-1,-2.774630127E0,2.553689575E0,3.790913191E0
8.079406250E0,5.406756592E-1,-2.826871490E0,2.306104431E0,3.688041518E0
8.089484250E0,7.509883118E-1,-2.819686432E0,2.107168121E0,3.599273887E0
8.099563250E0,8.647517395E-1,-2.835403748E0,1.797761536E0,3.466879940E0
8.109641250E0,8.514294434E-1,-2.776576080E0,1.426533508E0,3.235630491E0
8.119720250E0,8.502319336E-1,-2.593207397E0,1.055006104E0,2.925860015E0
8.129798250E0,6.987469482E-1,-2.450404358E0,8.408015442E-1,2.683221208E0
8.139876125E0,3.152444458E-1,-2.359543304E0,8.693920898E-1,2.534297984E0
8.149954125E0,-2.742297363E-1,-1.562899933E0,9.313632202E-1,1.839917280E0
8.160033125E0,-1.387614441E-1,-1.583107910E0,8.210426331E-1,1.788741568E0
8.170111125E0,-1.059796143E-1,-1.838476868E0,8.141569519E-1,2.013474712E0
8.180190125E0,-3.888912964E-1,-1.961970062E0,8.418493652E-1,2.170086017E0
8.190268125E0,-8.714877319E-1,-2.059267731E0,9.681866455E-1,2.436690344E0
8.200347125E0,-1.189127197E0,-2.022743683E0,1.191522217E0,2.631585205E0
8.210425125E0,-1.398691406E0,-1.957928467E0,1.454076233E0,2.811433660E0
8.220504125E0,-1.535955963E0,-1.698667603E0,1.864522705E0,2.953147010E0
8.230582125E0,-1.523082733E0,-1.106349335E0,2.439626770E0,3.081488056E0
8.240661125E0,-1.601369934E0,-4.083508301E-1,2.846031647E0,3.291053357E0
8.250739125E0,-1.618135071E0,1.875599670E-1,3.053799591E0,3.461102684E0
8.260818125E0,-1.535506897E0,9.360035706E-1,3.122506714E0,3.603322396E0
8.270896125E0,-1.605261841E0,1.848206635E0,3.062331848E0,3.920536913E0
8.280975125E0,-1.886676636E0,2.397414551E0,3.440595245E0,4.598351976E0
8.291053125E0,-2.840044098E0,3.418740692E0,5.340444489E0,6.947948311E0
8.301132125E0,-4.035907288E0,6.242917786E0,8.708889771E0,1.145021097E1
8.311210125E0,-2.850222931E0,2.179153427E1,1.396940048E1,2.604109995E1
8.321289125E0,-2.421813812E0,4.499553131E1,1.815544556E1,4.858068776E1
8.331367125E0,1.220262451E0,3.772934143E1,1.016655853E1,3.909413201E1
8.341446125E0,8.446335754E0,3.262929703E1,4.521796875E0,3.400673844E1
8.351524125E0,9.303453369E0,2.940619949E1,1.050814819E-1,3.084298713E1
8.361603125E0,1.010877869E1,2.726190857E1,-1.915716248E0,2.913878917E1
8.371681125E0,9.909842377E0,2.374691803E1,-2.106569366E0,2.581779863E1
8.381760125E0,9.050329742E0,2.177791260E1,-2.303260345E0,2.369580034E1
8.391838125E0,7.031777344E0,1.988749374E1,-3.212619324E0,2.133727309E1
8.401917125E0,6.415508881E0,1.793734909E1,-3.135529633E0,1.930644433E1
8.411995125E0,6.429878998E0,1.767240005E1,-2.423460388E0,1.896128234E1
8.422074125E0,5.103038177E0,1.749876114E1,-1.921554108E0,1.832866635E1
8.432152125E0,3.765719147E0,1.666080368E1,-2.093845825E0,1.720892822E1
8.442231125E0,2.561174011E0,1.560819260E1,-2.530936890E0,1.601814377E1
8.452309125E0,1.323397980E0,1.438314011E1,-2.705024872E0,1.469500803E1
8.462388125E0,6.789880371E-1,1.313383804E1,-2.064806213E0,1.331248103E1
8.472466125E0,8.734336853E-1,1.222896973E1,-1.034349060E0,1.230367689E1
8.482545125E0,6.804849243E-1,1.048090485E1,-9.707313538E-1,1.054773651E1
8.492623125E0,4.577481079E-1,9.192084961E0,-1.334025879E0,9.299655064E0
8.502702125E0,2.131567383E-1,9.240584106E0,-1.957479401E0,9.448045090E0
8.512780125E0,-1.025068359E0,8.890312500E0,-1.539398804E0,9.080648114E0
8.522859125E0,-2.680625610E0,6.867868195E0,3.167413330E-1,7.379274509E0
8.532937125E0,-5.017565918E0,5.333409119E0,2.032024384E0,7.599364688E0
8.543016125E0,-6.218219147E0,4.508025513E0,2.512525177E0,8.080923595E0
8.553094125E0,-2.968177643E0,3.752696228E0,9.343569946E-1,4.875021076E0
8.563173125E0,8.906478882E-2,1.767075348E0,4.848417664E-1,1.834546091E0
8.573251125E0,1.203946381E0,-2.754272461E-1,2.685415649E-1,1.263907286E0
8.583330125E0,1.986369324E0,-1.641336823E0,-4.391867065E-1,2.613911746E0
8.593408125E0,2.769540710E0,-2.778372345E0,-1.634600830E-1,3.926375916E0
8.603487125E0,3.472329254E0,-3.313958588E0,6.191125488E-1,4.839699610E0
8.613565125E0,3.902684326E0,-3.282823334E0,5.448669434E-1,5.128816040E0
8.623644125E0,3.454516296E0,-2.659968567E0,-1.209484863E-1,4.361621735E0
8.633722125E0,2.418221283E0,-1.862876129E0,-1.984872437E-1,3.059002915E0
8.643801125E0,1.522633667E0,-1.259780273E0,3.302133179E-1,2.003621835E0
8.653879125E0,9.527687073E-1,-8.340655518E-1,7.405101013E-1,1.466897667E0
8.663958125E0,5.915698242E-1,-3.978726196E-1,7.837701416E-1,1.059506070E0
8.674036125E0,3.050656128E-1,1.469943237E-1,1.218316498E0,1.264502846E0
8.684115125E0,4.041595459E-2,7.682025146E-1,1.900747375E0,2.050514359E0
8.694193125E0,-6.391708374E-2,1.562750244E0,2.574196930E0,3.012102846E0
8.704272125E0,1.872605896E-1,2.436483307E0,2.968327332E0,3.844799680E0
8.714350125E0,3.990701294E-1,3.318449249E0,3.011138306E0,4.498701622E0
8.724429125E0,7.179071045E-1,4.911885681E0,3.030597839E0,5.816058358E0
8.734507125E0,9.262738037E-1,6.347999268E0,3.222199402E0,7.178972548E0
8.744586125E0,8.734336853E-1,7.927065582E0,3.308719482E0,8.634169315E0
8.754664125E0,6.286926270E-2,1.043839325E1,4.056414642E0,1.119904040E1
8.764743125E0,-1.896256714E0,1.373843079E1,7.565567322E0,1.579804035E1
8.774821125E0,-3.685336304E0,1.945624054E1,1.341001373E1,2.391559048E1
8.784900125E0,-3.618724823E0,2.469804016E1,1.755893600E1,3.051892185E1
8.794978125E0,-1.654359741E0,2.648173096E1,1.799572769E1,3.206033680E1
8.805056125E0,-3.266207886E-1,2.485087234E1,1.439706116E1,2.872190640E1
8.815135125E0,-2.347119141E-1,2.248549118E1,1.109492798E1,2.507488445E1
8.825213125E0,8.878038025E-1,2.146431473E1,1.043569885E1,2.388323288E1
8.835292125E0,4.987628174E-1,2.105057510E1,1.337842941E1,2.494710104E1
8.845371125E0,6.221063232E-1,2.153766220E1,1.628703094E1,2.700972577E1
8.855449125E0,5.920188904E-1,2.314052902E1,1.801219345E1,2.933042248E1
8.865527125E0,1.061293030E-1,2.392489792E1,1.727063553E1,2.950740340E1
8.875606125E0,3.242257690E-1,2.376667694E1,1.597418152E1,2.863799103E1
8.885684125E0,1.222807159E0,2.493873962E1,1.531659897E1,2.929222073E1
8.895763125E0,1.624272308E0,2.837963425E1,1.506407410E1,3.217092210E1
8.905841125E0,2.296075287E0,3.243470169E1,1.396461044E1,3.538774054E1
8.915920125E0,2.400857391E0,3.599385040E1,1.070439011E1,3.762851778E1
8.925998125E0,1.651066589E0,3.950240433E1,5.522465973E0,3.992071641E1
8.936077125E0,1.161434784E0,4.096127060E1,2.401306458E0,4.104803153E1
8.946155125E0,-6.851252747E-1,3.701727219E1,2.922522583E0,3.713877993E1
8.956234125E0,-1.430275726E0,3.181723572E1,5.305117950E0,3.228817824E1
8.966312125E0,2.012415161E0,2.586815689E1,7.958799591E0,2.713952554E1
8.976391125E0,3.975732422E0,1.943273941E1,7.688910828E0,2.127339087E1
8.986469125E0,2.205064545E0,1.625469818E1,7.069947968E0,1.786229792E1
8.996548125E0,7.816744995E-1,1.130688721E1,7.700137482E0,1.370214693E1
9.006626125E0,1.487905884E-1,6.436465302E0,6.831044769E0,9.386873647E0
9.016705125E0,-5.688171387E-3,1.844464417E0,4.847818909E0,5.186851599E0
9.026783125E0,-2.734812927E-1,-1.330882416E0,3.713627472E0,3.954373405E0
9.036862125E0,-6.375242615E-1,-2.682870941E0,3.033591614E0,4.099623367E0
9.046940125E0,-8.967851257E-1,-3.311413879E0,2.522554321E0,4.258282018E0
9.057019125E0,-1.165775757E0,-3.694018250E0,2.485730896E0,4.602571241E0
9.067097125E0,-1.495689697E0,-3.948938141E0,2.056124268E0,4.696684694E0
9.077176125E0,-1.529219971E0,-4.193978577E0,1.186283112E0,4.619008296E0
9.087254125E0,-1.363364868E0,-4.166136475E0,6.245013428E-1,4.427805192E0
9.097333125E0,-1.220711517E0,-3.992497559E0,1.242416382E-2,4.174964398E0
9.107411125E0,-1.024020538E0,-3.699706421E0,-3.707789612E-1,3.856672491E0
9.117490125E0,-6.442602539E-1,-3.457959137E0,1.326242065E-1,3.519963330E0
9.127568125E0,-5.063969421E-1,-3.589685211E0,1.660496979E0,3.987421221E0
9.137648000E0,-1.827699280E-1,-4.484823761E0,2.386636963E0,5.083609447E0
9.147726000E0,4.688250732E-1,-5.191653900E0,1.955084381E0,5.567353241E0
9.157805000E0,1.047970734E0,-5.879772949E0,1.704804840E0,6.210984796E0
9.167883000E0,8.289761353E-1,-5.136867828E0,1.068478088E0,5.311897772E0
9.177962000E0,1.573078766E0,-5.598807220E0,-9.684860229E-2,5.816407718E0
9.188040000E0,4.569397888E0,-1.137484589E1,-4.076023865E-1,1.226509909E1
9.198119000E0,3.557053070E0,-1.001791763E1,-1.868564301E0,1.079364780E1
9.208197000E0,1.121467896E0,-4.433330841E0,-3.698059845E0,5.881135877E0
9.218276000E0,9.431886292E-1,-5.137316895E-1,-6.693929901E0,6.779544421E0
9.228354000E0,1.741927643E0,6.583309937E-1,-8.189469910E0,8.398519454E0
9.238433000E0,1.574425964E0,9.747729492E-1,-6.378835144E0,6.642178650E0
9.248511000E0,6.571334839E-1,1.263223114E0,-3.732039185E0,3.994455348E0
9.258590000E0,-4.209246826E-1,1.529219971E0,-2.320923615E0,2.811116812E0
9.268668000E0,-1.132844238E0,1.372495880E0,-1.101409607E0,2.092888944E0
9.278747000E0,-1.464404755E0,1.336121521E0,1.212478638E-2,1.982384679E0
9.288825000E0,-1.440753937E0,1.483115845E0,1.298100586E0,2.441407309E0
9.298904000E0,-8.761280823E-1,1.871707764E0,2.237546997E0,3.045900020E0
9.308982000E0,-1.177900543E0,2.252216492E0,3.354374542E0,4.208533876E0
9.319061000E0,-3.430715790E0,7.229965210E-2,4.212539978E0,5.433279961E0
9.329139000E0,-4.780758362E0,-3.054697723E0,7.399712219E0,9.324299954E0
9.339218000E0,-4.688999176E0,-4.807552643E0,8.817863159E0,1.108395175E1
9.349296000E0,-2.511028290E0,-6.137387238E0,6.056705017E0,8.980894212E0
9.359375000E0,2.998265076E-1,-7.279063110E0,3.082090759E-1,7.291752089E0
9.369453000E0,1.579216003E0,-8.475375366E0,-3.897594910E0,9.461350689E0
9.379532000E0,2.799478455E0,-8.251441040E0,-2.490071869E0,9.062219197E0
9.389610000E0,3.482657776E0,-6.369853821E0,7.840695190E-1,7.301966029E0
9.399689000E0,1.707948303E0,-2.726580048E0,1.832189941E0,3.702464874E0
9.409767000E0,1.314266968E-1,2.625540161E-1,2.491718445E0,2.508957631E0
9.419846000E0,4.534071350E-1,1.754651184E0,3.284020844E0,3.750889456E0
9.429924000E0,3.242257690E-1,2.438429260E0,3.275638275E0,4.096445498E0
9.440003000E0,5.448669434E-2,3.027154999E0,3.687132568E0,4.770910056E0
9.450081000E0,-1.954785004E0,4.844525757E0,6.806046753E0,8.579795255E0
9.460160000E0,-8.334368591E0,9.080866241E0,2.273621979E1,2.586231857E1
9.470238000E0,-9.072333984E0,1.200443665E1,2.456062592E1,2.880343883E1
9.480317000E0,-4.273912354E0,1.594035187E1,8.556506653E0,1.858964633E1
9.490395000E0,9.434131622E0,6.766424149E1,3.080444183E0,6.838816821E1
9.500474000E0,1.958856537E1,1.306828935E2,8.959768066E0,1.324462457E2
9.510552000E0,1.690853851E1,7.398739243E1,-6.042933655E-1,7.589728640E1
9.520631000E0,-4.721182251E-1,3.910962112E1,-1.005758514E1,4.038490286E1
9.530709000E0,-1.429676971E0,2.733780075E1,-5.464536438E0,2.791523750E1
9.540787000E0,-4.713697815E-1,2.053235275E1,-5.878276062E-1,2.054617337E1
9.550866000E0,-4.472698975E-1,1.811937057E1,3.609444122E0,1.848079347E1
9.560944000E0,3.625460815E-1,1.846290619E1,7.415279846E0,1.989966632E1
9.571023000E0,2.007026367E0,1.998134857E1,9.693991241E0,2.229923568E1
9.581101000E0,3.836821289E0,2.028581543E1,9.795929260E0,2.285160247E1
9.591180000E0,4.359833679E0,1.937301361E1,7.397766266E0,2.119077044E1
9.601258000E0,3.852388916E0,1.778721130E1,4.226610718E0,1.868395099E1
9.611337000E0,2.328557739E0,1.569890396E1,1.825453949E0,1.597529495E1
9.621415000E0,1.789828033E0,1.363828903E1,5.653742981E-1,1.376684641E1
9.631494000E0,2.233804779E0,1.197479828E1,7.929011536E-1,1.220714421E1
9.641572000E0,1.989063721E0,1.004620880E1,1.585053864E0,1.036315982E1
9.651651000E0,1.589245148E0,8.301287384E0,1.573228455E0,8.597215837E0
9.661729000E0,1.468446350E0,7.032376099E0,6.698570251E-1,7.215217024E0
9.671808000E0,1.354982300E0,5.975723419E0,-4.534071350E-1,6.144170037E0
9.681886000E0,1.202000427E0,4.937482452E0,-1.101858673E0,5.199772161E0
9.691965000E0,1.095272369E0,4.121379547E0,-1.102008362E0,4.404521922E0
9.702043000E0,8.063731384E-1,3.553161163E0,-5.197192383E-1,3.680393998E0
9.712122000E0,5.322930908E-1,2.450703735E0,1.357676697E-1,2.511516990E0
9.722200000E0,2.529739380E-1,8.581654358E-1,6.641688538E-1,1.114254906E0
9.732279000E0,-1.806742859E-1,-3.400927734E-1,9.355545044E-1,1.011715633E0
9.742357000E0,-6.033952332E-1,-1.190474396E0,5.620811462E-1,1.448188630E0
9.752436000E0,-8.836125183E-1,-1.931283875E0,-4.867877197E-1,2.178896687E0
9.762514000E0,-1.037941589E0,-2.602188721E0,-1.783092041E0,3.320862254E0
9.772593000E0,-1.307980042E0,-3.136577454E0,-2.561323700E0,4.255503379E0
9.782671000E0,-1.643881531E0,-3.690575409E0,-2.777324524E0,4.902675275E0
9.792750000E0,-1.601669312E0,-4.050726471E0,-2.272424469E0,4.913007479E0
9.802828000E0,-1.578018494E0,-4.166585541E0,-1.275497589E0,4.634379304E0
9.812907000E0,-1.790726166E0,-4.183200989E0,-2.252815247E-1,4.555943643E0
9.822985000E0,-2.149080963E0,-3.635939026E0,6.849755859E-1,4.278760701E0
9.833064000E0,-2.572999420E0,-2.675236816E0,1.065634003E0,3.861708672E0
9.843142000E0,-2.531984711E0,-2.009870453E0,6.339317322E-1,3.294297384E0
9.853221000E0,-2.176174622E0,-1.537303162E0,3.547622681E-1,2.687916156E0
9.863299000E0,-1.825903015E0,-1.121318207E0,4.688250732E-1,2.193415896E0
9.873378000E0,-1.412612457E0,-6.756948853E-1,5.245092773E-1,1.651407737E0
9.883456000E0,-1.152453461E0,-8.981323242E-3,4.927752686E-1,1.253418170E0
9.893535000E0,-1.020577698E0,7.843688965E-1,5.451663208E-1,1.397862554E0
9.903613000E0,-1.032403107E0,1.906585236E0,6.661148071E-1,2.268178205E0
9.913692000E0,-1.190773773E0,3.152145081E0,9.895921326E-1,3.511873201E0
9.923770000E0,-1.419049072E0,4.767735443E0,1.510658569E0,5.198758586E0
9.933849000E0,-2.347418518E0,8.153993683E0,2.415077820E0,8.822164562E0
9.943927000E0,-4.483027496E0,1.434452042E1,4.662055206E0,1.573523309E1
9.954006000E0,-7.265740814E0,2.180365906E1,8.403824158E0,2.447069264E1
9.964084000E0,-8.494685211E0,2.635225021E1,9.977202301E0,2.943034716E1
9.974163000E0,-6.390361176E0,2.794209412E1,8.084687805E0,2.978186556E1
9.984241000E0,-4.360432434E0,2.661435516E1,5.156776428E0,2.745777877E1
9.994320000E0,-4.502936096E0,2.386352554E1,2.831062775E0,2.444911453E1