"Time (s)","Acceleration x (m/s^2)","Acceleration y (m/s^2)","Acceleration z (m/s^2)","Absolute acceleration (m/s^2)"
-1.624666620E-3,1.357227631E0,-9.181007996E0,2.708467712E0,9.667924907E0
8.454333409E-3,1.548829193E0,-9.459728394E0,2.417772217E0,9.885896805E0
1.853433333E-2,1.766626282E0,-9.646539917E0,1.945055237E0,9.997996833E0
2.861333336E-2,1.935026093E0,-9.743538208E0,1.283730469E0,1.001642784E1
3.869333339E-2,1.864672394E0,-9.725425873E0,2.668949890E-1,9.906166992E0
4.877333331E-2,1.311422882E0,-9.696086884E0,-1.099912720E0,9.846001159E0
5.885233334E-2,3.817062378E-1,-9.880503387E0,-2.202968903E0,1.013030695E1
6.893233338E-2,-5.620811462E-1,-1.020457947E1,-2.453996887E0,1.051054128E1
7.901233342E-2,-1.091081085E0,-1.045665527E1,-1.755100250E0,1.065891525E1
8.909133333E-2,-1.044228516E0,-1.053284683E1,-5.839356995E-1,1.060057812E1
9.917133336E-2,-8.649014282E-1,-1.036774017E1,5.230123901E-1,1.041689170E1
1.092503334E-1,-8.924441528E-1,-9.950408020E0,1.361119537E0,1.008264463E1
1.193303334E-1,-9.630972290E-1,-9.475296021E0,1.934277649E0,9.718550353E0
1.294103333E-1,-8.132588196E-1,-9.113049316E0,2.307451630E0,9.435750674E0
1.394893334E-1,-5.138813782E-1,-8.881181488E0,2.498604126E0,9.240264134E0
1.495693334E-1,-1.880090332E-1,-8.816216583E0,2.529290314E0,9.173785027E0
1.596493333E-1,1.013392639E-1,-9.108708344E0,2.406844940E0,9.421875604E0
1.697283334E-1,3.806584167E-1,-9.525591431E0,2.131118317E0,9.768493139E0
1.798083334E-1,6.069877625E-1,-9.894125061E0,1.731748810E0,1.006285739E1
1.898883333E-1,8.116122437E-1,-1.025547363E1,1.260379028E0,1.036445894E1
1.999673333E-1,9.717791748E-1,-1.060784088E1,6.189628601E-1,1.067022764E1
2.100473334E-1,1.062640228E0,-1.083372116E1,-2.856060791E-1,1.088945771E1
2.201263334E-1,1.110690308E0,-1.095766342E1,-1.234782257E0,1.108281137E1
2.302063333E-1,1.143172760E0,-1.093535980E1,-1.700164490E0,1.112562345E1
2.402863334E-1,1.039288788E0,-1.059152481E1,-1.265468445E0,1.071736579E1
2.503653334E-1,7.833210754E-1,-1.014305740E1,-2.329156494E-1,1.017592527E1
2.604453333E-1,5.336402893E-1,-9.813442841E0,7.879614258E-1,9.859478462E0
2.705253334E-1,2.921923828E-1,-9.608219604E0,1.428329773E0,9.718198717E0
2.806043334E-1,1.017883301E-1,-9.523645477E0,1.700912933E0,9.674879268E0
2.906843334E-1,-6.466552734E-2,-9.576934662E0,1.686842194E0,9.724571751E0
3.007633333E-1,-1.505868530E-1,-9.587263184E0,1.422491913E0,9.693388210E0
3.108433334E-1,-1.607656860E-1,-9.605974274E0,1.010249176E0,9.660289372E0
3.209233334E-1,-1.703457642E-1,-9.689949646E0,6.018983459E-1,9.710119641E0
3.310023333E-1,-1.312770081E-1,-9.760602722E0,3.379971313E-1,9.767335420E0
3.410823334E-1,-2.035766602E-2,-9.768386536E0,3.990701294E-1,9.776555984E0
3.511623334E-1,1.225950623E-1,-9.750573578E0,6.730004883E-1,9.774540619E0
3.612413334E-1,1.823208618E-1,-9.803563385E0,1.040935364E0,9.860357112E0
3.713213333E-1,2.160008240E-1,-9.872719574E0,1.362317047E0,9.968608523E0
3.814003334E-1,2.694396973E-1,-9.932894440E0,1.582209778E0,1.006172835E1
3.914803334E-1,3.543132019E-1,-9.909542999E0,1.705253906E0,1.006143485E1
4.015603333E-1,4.837939453E-1,-9.840386810E0,1.704954529E0,9.998706872E0
4.116393334E-1,6.517446899E-1,-9.678124237E0,1.581611023E0,9.828140888E0
4.217193334E-1,8.427474976E-1,-9.542506256E0,1.382974091E0,9.678959982E0
4.317993334E-1,1.025068359E0,-9.492510223E0,1.242715759E0,9.628232337E0
4.418783333E-1,1.165925446E0,-9.579778748E0,1.217418365E0,9.726954841E0
4.519583334E-1,1.267414398E0,-9.649683380E0,1.257684631E0,9.813485580E0
4.620383334E-1,1.257534943E0,-9.676028595E0,1.323547668E0,9.846760987E0
4.721173333E-1,1.212628326E0,-9.697733459E0,1.416803741E0,9.875415665E0
4.821973334E-1,1.010099487E0,-9.736951904E0,1.425785065E0,9.892491921E0
4.922763334E-1,6.981481934E-1,-9.792336731E0,1.387464752E0,9.914753047E0
5.023563334E-1,3.749702454E-1,-9.805060272E0,1.316961365E0,9.900211961E0
5.124363333E-1,1.219963074E-1,-9.777816925E0,1.198557587E0,9.851757569E0
5.225153334E-1,-2.619552612E-2,-9.753567352E0,1.112636261E0,9.816859057E0
5.325953334E-1,-1.345701599E-1,-9.704020386E0,1.040486298E0,9.760570296E0
5.426753333E-1,-2.143542480E-1,-9.678124237E0,1.060993652E0,9.738467232E0
5.527543334E-1,-3.074606323E-1,-9.679471436E0,1.134041748E0,9.750525627E0
5.628343334E-1,-3.688330078E-1,-9.710756378E0,1.191073151E0,9.790479175E0
5.729133334E-1,-4.390370178E-1,-9.774224396E0,1.199455719E0,9.857327734E0
5.829933333E-1,-4.950205994E-1,-9.786199493E0,1.163979492E0,9.867603264E0
5.930733334E-1,-5.520520020E-1,-9.814490662E0,1.069076843E0,9.887968126E0
6.031523334E-1,-5.502557373E-1,-9.818532257E0,9.346563721E-1,9.878255898E0
6.132323333E-1,-5.239105225E-1,-9.795031128E0,6.798861694E-1,9.832566411E0
6.233123334E-1,-4.182302856E-1,-9.787546692E0,1.922003174E-1,9.798363526E0
6.333913334E-1,-2.628533936E-1,-9.808503113E0,-4.974156189E-1,9.824624548E0
6.434713333E-1,4.191284180E-3,-9.803264008E0,-1.214274902E0,9.878181326E0
6.535503333E-1,3.089575195E-1,-9.751771088E0,-1.513502655E0,9.873357300E0
6.636303334E-1,4.704716492E-1,-9.602381744E0,-1.068029022E0,9.673043199E0
6.737103334E-1,3.568579102E-1,-9.356443176E0,-3.173400879E-1,9.368622162E0
6.837893333E-1,8.307723999E-2,-9.126820679E0,1.832189941E-1,9.129037558E0
6.938693334E-1,-3.143463135E-3,-8.938362579E0,1.404080200E-1,8.939465862E0
7.039493334E-1,-3.203338623E-2,-8.723259888E0,-1.104702759E-1,8.724018162E0
7.140283334E-1,-4.565505981E-2,-8.507558441E0,-4.855902100E-1,8.521527613E0
7.241083334E-1,-1.344204712E-1,-8.289911041E0,-7.355703735E-1,8.323566406E0
7.341883334E-1,-3.317102051E-1,-8.132588196E0,-8.381071472E-1,8.182386328E0
7.442673334E-1,-5.360353088E-1,-8.103548584E0,-9.419911194E-1,8.175706745E0
7.543473333E-1,-6.750961304E-1,-8.133636017E0,-1.279838562E0,8.261342287E0
7.644263334E-1,-7.948471069E-1,-8.150101776E0,-1.492995300E0,8.323759718E0
7.745063334E-1,-1.133143616E0,-8.136629791E0,-1.495240631E0,8.350119961E0
7.845863333E-1,-1.419348450E0,-7.996670837E0,-1.907483368E0,8.342648698E0
7.946653333E-1,-1.745071106E0,-7.688761139E0,-1.775757294E0,8.081808893E0
8.047453334E-1,-1.688039703E0,-7.384294281E0,-1.586251373E0,7.739087381E0
8.148253334E-1,-1.003513184E0,-7.262148285E0,-1.936522980E0,7.582608896E0
8.249043333E-1,-1.228944397E-1,-7.241491241E0,-2.265239410E0,7.588518171E0
8.349843334E-1,9.020242310E-1,-7.288942566E0,-1.257385254E0,7.451399138E0
8.450630000E-1,1.841470642E0,-7.433841248E0,6.328839111E-1,7.684630887E0
8.551430000E-1,2.400558014E0,-7.841743011E0,1.385967865E0,8.317242281E0
8.652230001E-1,2.710563354E0,-8.805738373E0,-1.865121460E-1,9.215365905E0
8.753020001E-1,2.779719543E0,-1.032822235E1,-4.390519867E0,1.156182003E1
8.853820000E-1,2.216889954E0,-1.183004929E1,-7.252717896E0,1.405228039E1
8.954620000E-1,4.869374084E-1,-1.273506729E1,-5.235512695E0,1.377786776E1
9.055410001E-1,-1.371298370E0,-1.296244446E1,-2.344424744E0,1.324393268E1
9.156210000E-1,-2.239043884E0,-1.244047989E1,-9.056167603E-1,1.267276604E1
9.257000000E-1,-1.264420624E0,-1.118414246E1,-1.247356110E0,1.132429685E1
9.357800001E-1,3.782633972E-1,-1.007524841E1,-3.589834900E0,1.070236555E1
9.458600001E-1,1.115180969E0,-9.423204346E0,-5.424569550E0,1.093006695E1
9.559390000E-1,7.890092468E-1,-9.135652313E0,-4.799918518E0,1.034997085E1
9.660190000E-1,5.420228577E-1,-8.974287872E0,-4.173920288E0,9.912277345E0
9.760990001E-1,1.171014862E0,-8.864416351E0,-4.521946564E0,1.001983801E1
9.861780000E-1,1.939217377E0,-8.946296082E0,-5.119204559E0,1.048823307E1
9.962580000E-1,2.270029449E0,-9.097631378E0,-5.230722656E0,1.073687058E1
1.006338000E0,1.936373291E0,-9.142987061E0,-4.723876648E0,1.047180808E1
1.016417000E0,1.449435883E0,-9.069040833E0,-4.686155090E0,1.031059724E1
1.026497000E0,1.362017670E0,-8.810678101E0,-5.064268799E0,1.025329016E1
1.036576000E0,1.778002625E0,-8.436306610E0,-5.142256622E0,1.003869343E1
1.046656000E0,2.546055450E0,-8.216862946E0,-5.204377441E0,1.005409268E1
1.056736000E0,2.984044647E0,-8.265362091E0,-5.480253754E0,1.035634656E1
1.066815000E0,2.993175659E0,-8.439150696E0,-5.738466797E0,1.063524171E1
1.076895000E0,2.805915070E0,-8.586743774E0,-5.661077728E0,1.066082216E1
1.086975000E0,2.764301605E0,-8.629405060E0,-5.583988037E0,1.064372667E1
1.097054000E0,3.051703949E0,-8.495583344E0,-5.449417877E0,1.054438185E1
1.107134000E0,3.373235321E0,-8.374485168E0,-5.917344818E0,1.079470648E1
1.117213000E0,3.367397461E0,-8.498876495E0,-5.973178711E0,1.092012506E1
1.127293000E0,3.141517181E0,-8.733738098E0,-5.629194031E0,1.085518940E1
1.137373000E0,3.181035004E0,-8.913813629E0,-5.934559021E0,1.117112563E1
1.147452000E0,3.389401703E0,-9.157955933E0,-6.113287354E0,1.152078483E1
1.157532000E0,3.456911316E0,-9.372609558E0,-5.949677582E0,1.162732597E1
1.167612000E0,3.537144470E0,-9.509425049E0,-5.934559021E0,1.175412891E1
1.177691000E0,3.618425446E0,-9.644893341E0,-5.926775208E0,1.188459653E1
1.187771000E0,3.419339447E0,-9.906399536E0,-5.902675323E0,1.202789300E1
1.197851000E0,3.060984650E0,-1.014679962E1,-5.449567566E0,1.191742238E1
1.207930000E0,2.687062225E0,-1.027089157E1,-5.174589386E0,1.181049924E1
1.218010000E0,2.289788361E0,-1.033450928E1,-5.205874329E0,1.179603070E1
1.228089000E0,1.959575043E0,-1.027792694E1,-5.090464325E0,1.163565828E1
1.238169000E0,1.650318146E0,-1.007689499E1,-5.018763428E0,1.137784465E1
1.248249000E0,1.328487396E0,-9.836045837E0,-5.163811798E0,1.118828087E1
1.258328000E0,1.087488556E0,-9.705666962E0,-5.318889313E0,1.112084466E1
1.268408000E0,9.125024414E-1,-9.706864471E0,-5.227878571E0,1.106284741E1
1.278488000E0,7.981402588E-1,-9.900711365E0,-4.971461792E0,1.110749953E1
1.288567000E0,6.104306030E-1,-1.025532394E1,-4.380041656E0,1.116821649E1
1.298647000E0,3.513194275E-1,-1.070618637E1,-3.351979523E0,1.122415336E1
1.308726000E0,-3.444337463E-1,-1.113384705E1,-1.127605133E0,1.119610102E1
1.318806000E0,-1.268162842E0,-1.143801453E1,1.448388062E0,1.159888966E1
1.328886000E0,-2.049238586E0,-1.205997116E1,1.772613831E0,1.236060043E1
1.338965000E0,-2.464175720E0,-1.325493622E1,4.926255798E-1,1.349104059E1
1.349045000E0,-2.681972809E0,-1.470512054E1,-3.236270142E-1,1.495119670E1
1.359125000E0,-2.807861023E0,-1.621967102E1,7.682025146E-1,1.647883329E1
1.369204000E0,-2.942580872E0,-1.795007263E1,2.313588867E0,1.833620962E1
1.379284000E0,-3.505410461E0,-2.018387741E1,2.883453827E0,2.068794615E1
1.389364000E0,-4.242328033E0,-2.221440491E1,3.062930603E0,2.282232846E1
1.399443000E0,-4.049229584E0,-2.369826920E1,2.711760864E0,2.419417017E1
1.409523000E0,-3.453169098E0,-2.506672348E1,1.905088348E0,2.537507368E1
1.419602000E0,-2.371518402E0,-2.586875565E1,4.273612976E-1,2.598074779E1
1.429682000E0,-1.096769257E0,-2.541085785E1,-3.759881287E0,2.571091805E1
1.439762000E0,-3.029699707E-1,-2.234613098E1,-1.081306412E1,2.482667348E1
1.449841000E0,1.528321838E-1,-1.712738342E1,-1.130194748E1,2.052083423E1
1.459921000E0,1.038091278E0,-1.229722778E1,-7.978558502E0,1.469547006E1
1.470001000E0,2.151625671E0,-8.347541199E0,-4.807852020E0,9.870480137E0
1.480080000E0,2.446811829E0,-5.081782379E0,-2.689906311E0,6.248759576E0
1.490160000E0,2.556833038E0,-2.730322266E0,-3.549119568E0,5.156384835E0
1.500239000E0,3.085832977E0,-1.340612183E0,-5.039869537E0,6.059693981E0
1.510319000E0,3.833977203E0,-6.059399414E-1,-4.307292938E0,5.798216697E0
1.520399000E0,4.299209747E0,-5.427713013E-1,-1.530567169E0,4.595698097E0
1.530478000E0,3.969445496E0,-8.074209595E-1,7.261399841E-1,4.115301377E0
1.540558000E0,3.126248932E0,-9.407936096E-1,1.688638458E0,3.675598569E0
1.550638000E0,2.312391357E0,-7.105723572E-1,1.501228180E0,2.847060399E0
1.560717000E0,1.347198486E0,-7.185058594E-2,-4.876858521E-1,1.434553505E0
1.570797000E0,-4.879852295E-2,8.975335693E-1,-4.742887115E0,4.827310431E0
1.580877000E0,-9.021739197E-1,6.888674927E-1,-2.070494385E0,2.361229172E0
1.590956000E0,-7.351213074E-1,3.417393494E-1,1.609153748E-1,8.264882802E-1
1.601036000E0,-7.030879211E-1,2.808160400E-1,5.575904846E-1,9.402645488E-1
1.611115000E0,-7.659571838E-1,3.400927734E-1,7.126679993E-1,1.100113257E0
1.621195000E0,-6.990463257E-1,3.999682617E-1,1.065933380E0,1.335984411E0
1.631275000E0,-7.000941467E-1,4.605921936E-1,1.280587006E0,1.530418264E0
1.641354000E0,-6.908134460E-1,4.703219604E-1,1.403331757E0,1.633329723E0
1.651434000E0,-6.363267517E-1,5.119354248E-1,1.501078491E0,1.708866949E0
1.661513000E0,-5.827381897E-1,5.686674500E-1,1.492097168E0,1.699800113E0
1.671593000E0,-4.975653076E-1,6.020480347E-1,1.262025604E0,1.484163636E0
1.681673000E0,-3.739224243E-1,5.986051941E-1,8.575666809E-1,1.110660511E0
1.691752000E0,-2.276765442E-1,6.397695923E-1,1.520837402E-1,6.958959721E-1
1.701832000E0,2.296224976E-1,6.825805664E-1,-1.582958221E0,1.739080059E0
1.711912000E0,1.410816193E0,7.050338745E-1,-5.197791138E0,5.431805207E0
1.721991000E0,2.204765167E0,4.269122314E-1,-4.894521790E0,5.385126465E0
1.732071000E0,2.014510803E0,-1.808239746E-1,-2.131268005E0,2.938240017E0
1.742151000E0,1.743574219E0,-7.578739929E-1,-5.159770203E-1,1.969938154E0
1.752230000E0,7.598199463E-1,-1.526974640E0,4.388873291E-1,1.761135994E0
1.762310000E0,-2.911445618E-1,-1.957180023E0,9.653425598E-1,2.201636904E0
1.772389000E0,-8.140072632E-1,-2.070943451E0,1.456620941E0,2.659541157E0
1.782469000E0,-1.225800934E0,-2.557731171E0,1.784888306E0,3.351179335E0
1.792549000E0,-1.841470642E0,-3.843557281E0,1.284179535E0,4.451186783E0
1.802628000E0,-4.169579315E0,-9.753567352E0,-5.083878021E0,1.176279233E1
1.812708000E0,-7.628436584E0,-2.081481537E1,-1.055799454E1,2.455444628E1
1.822788000E0,-8.370892639E0,-2.694786163E1,-2.697091370E0,2.834666457E1
1.832867000E0,-7.104076996E0,-3.043680634E1,3.480412445E0,3.144805814E1
1.842947000E0,-4.837490387E0,-3.529285812E1,3.964056702E0,3.584272441E1
1.853026083E0,-1.330433350E0,-3.896277649E1,1.259031830E0,3.900580939E1
1.863106083E0,4.309388580E0,-4.053869934E1,6.505471802E-1,4.077229679E1
1.873186083E0,9.901310120E0,-3.915093521E1,-2.450703735E0,4.045784990E1
1.883265083E0,1.218556000E1,-3.231135818E1,-7.575746155E0,3.535397672E1
1.893345083E0,7.171287231E0,-2.304233322E1,-5.463937683E0,2.474330406E1
1.903425083E0,1.711840210E0,-1.661095734E1,-5.607339478E-1,1.670834292E1
1.913504083E0,-1.085093536E0,-1.171374115E1,1.538051605E0,1.186401123E1
1.923584083E0,-2.934797058E0,-7.902067566E0,6.809339905E-1,8.456912953E0
1.933664083E0,-4.663552094E0,-4.584217072E0,-2.888393555E0,7.148886740E0
1.943743083E0,-6.174060974E0,-2.406096497E0,-5.766757965E0,8.784294319E0
1.953823083E0,-6.534062347E0,-2.210752716E0,-5.099146271E0,8.578035382E0
1.963902083E0,-5.579796753E0,-4.086352386E0,-2.885998535E0,7.494090684E0
1.973982083E0,-3.699257355E0,-6.937922516E0,-1.312470703E0,7.971314393E0
1.984062083E0,-1.978735199E0,-8.901539154E0,-1.164578247E-1,9.119558911E0
1.994141083E0,-4.752616882E-1,-9.874665527E0,8.798703003E-1,9.925173283E0
2.004221083E0,2.655477905E-1,-9.976304169E0,1.749711456E0,1.013206053E1
2.014301083E0,3.062631226E-1,-9.592651978E0,2.197131042E0,9.845819107E0
2.024380083E0,7.200027466E-2,-8.811276855E0,1.554667053E0,8.947668608E0
2.034460083E0,-2.282752991E-1,-8.040978699E0,3.439846802E-1,8.051569630E0
2.044539083E0,-4.770579529E-1,-7.691305847E0,-1.131197662E0,7.788669853E0
2.054619083E0,-6.863227844E-1,-7.725285187E0,-2.711910553E0,8.216174842E0
2.064699083E0,-9.454339600E-1,-7.862549744E0,-3.405867462E0,8.620525913E0
2.074778083E0,-1.229543152E0,-7.991581421E0,-2.987936554E0,8.620029862E0
2.084858083E0,-1.392254791E0,-8.117170258E0,-2.120939484E0,8.504423007E0
2.094938083E0,-1.451082458E0,-8.331823883E0,-1.108444977E0,8.529570903E0
2.105017083E0,-1.372495880E0,-8.657995605E0,-1.091230774E-1,8.766786224E0
2.115097083E0,-1.195713501E0,-9.066047058E0,5.313949585E-1,9.159984751E0
2.125176083E0,-9.529183960E-1,-9.646240540E0,8.427474976E-1,9.729760190E0
2.135256083E0,-7.445516968E-1,-1.021969803E1,8.008346558E-1,1.027803100E1
2.145336083E0,-5.801934814E-1,-1.074091415E1,5.113366699E-1,1.076871982E1
2.155415083E0,-3.162922668E-1,-1.101110229E1,2.230361938E-2,1.101566666E1
2.165495083E0,-8.771759033E-2,-1.092293564E1,-5.803431702E-1,1.093869350E1
2.175575083E0,-1.496887207E-4,-1.055470139E1,-9.385482788E-1,1.059634816E1
2.185654083E0,-2.019300842E-1,-1.015054184E1,-6.822811890E-1,1.017545002E1
2.195734083E0,-6.330335999E-1,-9.984686737E0,-1.085243225E-1,1.000532250E1
2.205814083E0,-9.624984741E-1,-9.866133270E0,5.020559692E-1,9.925676260E0
2.215893083E0,-1.015338593E0,-9.693841553E0,8.963360596E-1,9.787997489E0
2.225973083E0,-9.316625977E-1,-9.607920227E0,1.176403656E0,9.724404961E0
2.236052083E0,-9.533674622E-1,-9.484576721E0,1.345551910E0,9.626869431E0
2.246132083E0,-1.035696259E0,-9.298663330E0,1.364861755E0,9.455191911E0
2.256212083E0,-1.123862915E0,-9.082512817E0,1.248254242E0,9.236516962E0
2.266291083E0,-1.103205872E0,-8.894803162E0,9.966275024E-1,9.018195654E0
2.276371083E0,-1.074615326E0,-8.845705261E0,3.070115662E-1,8.916028026E0
2.286451083E0,-1.002315674E0,-8.998687134E0,-1.140777740E0,9.125918074E0
2.296530083E0,-8.791218567E-1,-9.208401031E0,-3.291355591E0,9.818376975E0
2.306610083E0,-7.014413452E-1,-9.277108154E0,-5.171296234E0,1.064420314E1
2.316689083E0,-5.441184998E-1,-9.190139008E0,-5.310506744E0,1.062808552E1
2.326769083E0,-3.637435913E-1,-9.062753906E0,-4.452490997E0,1.010398406E1
2.336849083E0,-6.107299805E-2,-8.941955109E0,-3.801943817E0,9.716844543E0
2.346928083E0,2.788700867E-1,-8.795409851E0,-3.362308044E0,9.420303517E0
2.357008083E0,3.746708679E-1,-8.655151520E0,-3.088677063E0,9.197388330E0
2.367088083E0,5.936654663E-1,-8.519533539E0,-2.771336975E0,8.978596719E0
2.377167083E0,9.928852844E-1,-8.293054504E0,-2.307002563E0,8.665035201E0
2.387247083E0,1.119971008E0,-7.846083984E0,-2.151775360E0,8.212521303E0
2.397326083E0,1.104702759E0,-7.256460114E0,-2.392624512E0,7.720183522E0
2.407406083E0,9.966275024E-1,-6.856641541E0,-2.727927246E0,7.446367346E0
2.417486083E0,8.777746582E-1,-6.680757294E0,-2.993025970E0,7.373005549E0
2.427565083E0,1.185384979E0,-6.630312195E0,-3.584745483E0,7.629978868E0
2.437645083E0,1.812431030E0,-6.706653442E0,-4.660109253E0,8.365448278E0
2.447725083E0,2.572101288E0,-7.053482208E0,-5.777236176E0,9.473319066E0
2.457804083E0,3.289110260E0,-7.578290863E0,-5.550757141E0,9.952871121E0
2.467884083E0,3.288062439E0,-8.049510956E0,-4.003873901E0,9.572721005E0
2.477963083E0,2.425855408E0,-8.472680969E0,-2.656825104E0,9.204880059E0
2.488043083E0,1.717977448E0,-8.944948883E0,-3.295397186E0,9.686237641E0
2.498123083E0,1.114731903E0,-9.246571655E0,-3.794459381E0,1.005682040E1
2.508202083E0,7.167095947E-1,-9.223818970E0,-2.569257202E0,9.601749403E0
2.518282083E0,5.604345703E-1,-9.368867340E0,-2.825823669E0,9.801787671E0
2.528362083E0,5.498066711E-1,-9.768985291E0,-3.742517395E0,1.047577193E1
2.538441083E0,1.602268066E0,-1.015982254E1,-4.542154541E0,1.124368378E1
2.548521083E0,2.670147400E0,-1.040621017E1,-3.966152344E0,1.145204182E1
2.558600083E0,2.974763947E0,-1.049632278E1,-2.281405792E0,1.114570881E1
2.568680083E0,2.491868134E0,-1.035396881E1,-2.374362488E0,1.091108034E1
2.578760083E0,1.642234955E0,-1.011356873E1,-4.603077850E0,1.123252125E1
2.588839083E0,9.461824036E-1,-1.011162277E1,-5.176685028E0,1.139904575E1
2.598919083E0,6.893165588E-1,-1.049332901E1,-3.637735291E0,1.112736398E1
2.608999083E0,5.819897461E-1,-1.117291580E1,-2.730621643E0,1.151646882E1
2.619078083E0,7.238946533E-1,-1.213017517E1,-2.938688965E0,1.250204247E1
2.629158083E0,1.041534119E0,-1.336480774E1,-3.341201935E0,1.381544460E1
2.639237083E0,6.527925110E-1,-1.485106705E1,-3.146456909E0,1.519475309E1
2.649317083E0,-2.899470520E-1,-1.622895172E1,-1.868863678E0,1.633877580E1
2.659397083E0,-1.118324432E0,-1.750744308E1,-8.264314270E-1,1.756257959E1
2.669476083E0,-1.541793823E0,-1.895223862E1,-8.020321655E-1,1.903175589E1
2.679556083E0,-1.739682312E0,-2.040811111E1,-5.119354248E-1,2.048852293E1
2.689636083E0,-1.883084106E0,-2.150383255E1,3.119512939E-1,2.158837960E1
2.699715083E0,-1.839375000E0,-2.231215164E1,1.071172485E0,2.241345180E1
2.709795083E0,-1.724863129E0,-2.330458786E1,1.444496155E0,2.341293526E1
2.719875083E0,-1.746418304E0,-2.386756714E1,2.167193298E0,2.402930429E1
2.729954083E0,-1.423689423E0,-2.386307648E1,2.193538513E0,2.400593514E1
2.740034083E0,-8.951385498E-1,-2.358974487E1,7.426057434E-1,2.361839960E1
2.750113083E0,1.632804565E0,-2.215887039E1,-4.427792358E-1,2.222335801E1
2.760193083E0,3.157533875E0,-1.998778519E1,-2.869682465E0,2.043811768E1
2.770273083E0,2.527194672E0,-1.842398712E1,-5.665718079E0,1.944043147E1
2.780352083E0,2.163600769E0,-1.597942062E1,-6.990014191E0,1.757507753E1
2.790432083E0,1.830842743E0,-1.326556412E1,-6.847211151E0,1.504032836E1
2.800512083E0,8.906478882E-1,-1.080318466E1,-5.951922913E0,1.236638342E1
2.810591083E0,1.716929626E-1,-8.210576019E0,-4.754562836E0,9.489410140E0
2.820671083E0,6.637197876E-1,-6.095175018E0,-4.514761505E0,7.614115438E0
2.830750083E0,1.008153534E0,-4.561314697E0,-3.710933075E0,5.965986054E0
2.840830083E0,8.872050476E-1,-3.390150146E0,-2.825673981E0,4.501631288E0
2.850909625E0,8.083190918E-1,-2.324815521E0,-1.950893097E0,3.140721388E0
2.860988625E0,7.777825928E-1,-1.273551636E0,-1.466500397E0,2.092248299E0
2.871068625E0,5.375321960E-1,-2.668949890E-1,-1.545835419E0,1.658246344E0
2.881148625E0,4.041595459E-1,6.662644958E-1,-2.036065979E0,2.180095867E0
2.891227625E0,3.713777161E-1,1.506616974E0,-2.615660706E0,3.041298578E0
2.901307625E0,3.802093506E-1,2.124082947E0,-2.876268768E0,3.595721005E0
2.911386625E0,4.840933228E-1,2.347867584E0,-2.696941681E0,3.608368464E0
2.921466625E0,6.878196716E-1,2.280058594E0,-2.489622803E0,3.445284428E0
2.931546625E0,1.003513184E0,2.064955902E0,-1.807491302E0,2.922003832E0
2.941625625E0,1.107247467E0,1.678160248E0,-3.267704773E-1,2.036908863E0
2.951705625E0,9.669891357E-1,1.301094360E0,9.160949707E-1,1.862026992E0
2.961785625E0,7.039860535E-1,1.014739838E0,1.612297211E0,2.030959280E0
2.971864625E0,5.939648438E-1,1.002764740E0,1.693129120E0,2.055484754E0
2.981944625E0,6.589297485E-1,1.104403381E0,1.799258423E0,2.211611655E0
2.992023625E0,5.186714172E-1,1.106049957E0,1.993853760E0,2.338336880E0
3.002103625E0,3.363505554E-1,1.021775208E0,1.820065155E0,2.114188601E0
3.012183625E0,3.242257690E-1,9.213340759E-1,1.463806000E0,1.759746241E0
3.022262625E0,3.852987671E-1,8.376580811E-1,1.176104279E0,1.494438849E0
3.032342625E0,5.078938293E-1,7.623646545E-1,8.068222046E-1,1.220703927E0
3.042422625E0,7.903564453E-1,7.267387390E-1,1.474433899E-1,1.083767530E0
3.052501625E0,1.403331757E0,7.319778442E-1,-1.906136169E0,2.477596957E0
3.062581625E0,2.147883453E0,5.281018066E-1,-3.119363251E0,3.823966780E0
3.072660625E0,1.957329712E0,-1.010398865E-1,-1.604962463E0,2.533229790E0
3.082740625E0,1.491049347E0,-8.786727905E-1,-1.428629150E0,2.244164717E0
3.092820625E0,7.936495972E-1,-1.677561493E0,-1.489851837E0,2.379863597E0
3.102899625E0,7.723937988E-2,-2.171833649E0,-4.658312988E-1,2.222571960E0
3.112979625E0,-5.186714172E-1,-3.208727417E0,1.163081360E-1,3.252457418E0
3.123059625E0,-1.222208405E0,-7.625143433E0,-2.792443085E0,8.211841702E0
3.133138625E0,-1.685644684E0,-1.659868286E1,-7.154372406E0,1.815331141E1
3.143218625E0,-2.799927521E0,-2.396142197E1,-2.390977936E0,2.424265069E1
3.153297625E0,-3.943549347E0,-2.829236572E1,2.438578949E0,2.866977863E1
3.163377625E0,-3.968846741E0,-3.307162720E1,4.516557770E0,3.361374070E1
3.173457625E0,-3.080294495E0,-3.805132187E1,5.265300751E0,3.853718597E1
3.183536625E0,7.861651611E-1,-4.090289200E1,3.754193115E0,4.108233922E1
3.193616625E0,7.098987579E0,-3.830833740E1,1.152603149E0,3.897759399E1
3.203696625E0,1.005040009E1,-3.172248276E1,-3.786525879E0,3.349125606E1
3.213775625E0,7.121740265E0,-2.323183914E1,-5.679788818E0,2.495390822E1
3.223855625E0,2.518063660E0,-1.629241974E1,-2.781515808E0,1.671886407E1
3.233934625E0,-5.019062805E-1,-1.161464722E1,-1.794618073E0,1.176318808E1
3.244014625E0,-2.459984436E0,-8.772357788E0,-2.424957275E0,9.427947941E0
3.254094625E0,-3.929478607E0,-7.607779541E0,-2.214045868E0,8.844269940E0
3.264173625E0,-5.096751251E0,-7.701334991E0,-1.305585022E0,9.326949459E0
3.274253625E0,-5.581293640E0,-8.717272339E0,-4.761598206E-1,1.036187261E1
3.284333625E0,-5.424569550E0,-1.009036697E1,-3.887416077E-1,1.146266027E1
3.294412625E0,-5.132526855E0,-1.093850327E1,-6.004014587E-1,1.209769265E1
3.304492625E0,-4.644242249E0,-1.083476898E1,-3.050656128E-1,1.179212746E1
3.314572625E0,-3.823648682E0,-9.908195801E0,4.655319214E-2,1.062048965E1
3.324651625E0,-3.246149597E0,-8.861123199E0,-9.131011963E-3,9.437005613E0
3.334731625E0,-2.813698883E0,-7.897576904E0,-1.083746338E-1,8.384531437E0
3.344810625E0,-2.405647430E0,-7.057224426E0,-1.715432739E-1,7.457947657E0
3.354890625E0,-2.093097382E0,-6.217171326E0,-2.170486450E-1,6.563641219E0
3.364970625E0,-1.733844452E0,-5.387147369E0,-5.613327026E-1,5.687061435E0
3.375049625E0,-1.244212646E0,-4.729265442E0,-9.385482788E-1,4.979446716E0
3.385129625E0,-7.256909180E-1,-4.296215973E0,-1.134939880E0,4.502464606E0
3.395209625E0,-3.899391174E-1,-4.041445770E0,-1.197060699E0,4.233000206E0
3.405288625E0,-1.398092651E-1,-4.213887177E0,-8.592132568E-1,4.302864068E0
3.415368625E0,-1.378633118E-1,-4.928501129E0,-1.860630798E-1,4.933938502E0
3.425447625E0,-2.121089172E-1,-6.053711243E0,6.695576477E-1,6.094318456E0
3.435527625E0,-1.160087585E-1,-7.166197815E0,1.553170166E0,7.333497578E0
3.445607625E0,7.244934082E-2,-8.140521698E0,2.063908081E0,8.398396215E0
3.455686625E0,2.164498901E-1,-9.276659088E0,2.171384583E0,9.529856526E0
3.465766625E0,3.863465881E-1,-1.059676392E1,1.999541931E0,1.079068288E1
3.475846625E0,5.981561279E-1,-1.182061890E1,1.711989899E0,1.195891848E1
3.485925625E0,7.846682739E-1,-1.296708481E1,1.120420074E0,1.303903117E1
3.496005625E0,1.105002136E0,-1.404484360E1,-7.334747314E-3,1.408824741E1
3.506084625E0,1.578317871E0,-1.480451385E1,-1.463057556E0,1.496012217E1
3.516164625E0,1.714534607E0,-1.497246460E1,-2.600093079E0,1.529296600E1
3.526244625E0,9.719288635E-1,-1.411938858E1,-2.549198914E0,1.438054918E1
3.536323625E0,-1.163081360E-1,-1.238988510E1,-1.722468109E0,1.250958340E1
3.546403625E0,-1.063089294E0,-1.094733490E1,-8.686436462E-1,1.103307945E1
3.556483625E0,-1.727258148E0,-1.001761826E1,-1.657054138E-1,1.016678683E1
3.566562625E0,-2.035317535E0,-9.190288696E0,3.444337463E-1,9.419265279E0
3.576642625E0,-2.160606995E0,-8.344547424E0,7.571255493E-1,8.652914734E0
3.586721625E0,-2.320324860E0,-7.719447327E0,1.146765289E0,8.141796185E0
3.596801625E0,-2.450703735E0,-7.345674591E0,1.440155182E0,7.876479603E0
3.606881625E0,-2.347119141E0,-7.169191589E0,1.712289276E0,7.735516199E0
3.616960625E0,-2.005529480E0,-7.126230927E0,1.914069672E0,7.646501057E0
3.627040625E0,-1.726509705E0,-7.269033966E0,1.958078156E0,7.723584700E0
3.637120625E0,-1.442999268E0,-7.798333282E0,1.750609589E0,8.121630551E0
3.647199625E0,-9.132508850E-1,-8.411907349E0,1.199306030E0,8.545908224E0
3.657279625E0,-3.607498169E-1,-8.992100830E0,3.501219177E-1,9.006142522E0
3.667358625E0,1.466949463E-1,-9.585167542E0,-7.779322815E-1,9.617803015E0
3.677438625E0,7.102729797E-1,-1.004321503E1,-2.102078705E0,1.028539696E1
3.687518625E0,1.706451416E0,-1.037896683E1,-3.762126617E0,1.117087846E1
3.697597625E0,2.498604126E0,-1.049587372E1,-4.273313599E0,1.160463687E1
3.707677625E0,2.595452728E0,-1.045336212E1,-3.400628357E0,1.129484076E1
3.717757625E0,2.748434601E0,-1.038405624E1,-2.568359070E0,1.104440968E1
3.727836625E0,3.087928619E0,-1.026714935E1,-1.975142670E0,1.090187358E1
3.737916625E0,3.197201385E0,-1.010638367E1,-1.949545898E0,1.077783915E1
3.747995625E0,2.726280670E0,-9.997559967E0,-2.740501099E0,1.071886924E1
3.758075625E0,1.714983673E0,-9.950258331E0,-4.351301422E0,1.099466388E1
3.768155625E0,2.225871277E-1,-9.893975372E0,-5.266797638E0,1.121068468E1
3.778234625E0,-1.160536652E0,-9.805509338E0,-4.942571869E0,1.104191448E1
3.788314625E0,-2.321821747E0,-9.189390564E0,-4.072131958E0,1.031591071E1
3.798394625E0,-2.844235382E0,-8.090226288E0,-4.783452759E0,9.819514071E0
3.808473625E0,-2.118993530E0,-6.900500336E0,-6.494245148E0,9.709905175E0
3.818553625E0,-6.129753113E-1,-5.911506958E0,-5.023703156E0,7.781982179E0
3.828632625E0,4.736151123E-1,-5.422623596E0,-4.713697815E-1,5.463638660E0
3.838712625E0,1.277892609E0,-5.289101257E0,4.942721558E0,7.351061014E0
3.848792583E0,1.836231537E0,-5.056335297E0,7.721692657E0,9.410781603E0
3.858871583E0,1.523980865E0,-4.609813843E0,6.565197601E0,8.165459013E0
3.868951583E0,3.372486877E-1,-4.344266052E0,2.099833374E0,4.836908559E0
3.879031583E0,-9.936337280E-1,-4.298311615E0,-4.059408417E0,5.995130309E0
3.889110583E0,-1.019829254E0,-3.948788452E0,-4.256847839E0,5.895229892E0
3.899190583E0,-6.959028625E-1,-4.152814178E0,-2.848576355E0,5.083751926E0
3.909269583E0,2.832110596E-1,-5.509892120E0,-4.289030914E0,6.988197612E0
3.919349583E0,2.334245911E0,-8.014783173E0,-6.666536865E0,1.068307854E1
3.929429583E0,5.032983856E0,-1.099523529E1,-8.071964264E0,1.453900728E1
3.939508583E0,6.680308228E0,-1.398616562E1,-5.036127319E0,1.629729809E1
3.949588583E0,7.744894409E0,-1.641426636E1,-1.295855255E0,1.819589982E1
3.959668583E0,8.881480865E0,-1.825558731E1,-3.338956604E0,2.057415373E1
3.969747583E0,7.168892212E0,-1.842982498E1,-5.446424103E0,2.051133833E1
3.979827583E0,2.914439392E0,-1.727063553E1,-1.448986816E0,1.757465139E1
3.989906583E0,1.216969299E0,-1.596849335E1,-4.210743713E-1,1.602033388E1
3.999986583E0,1.479972382E0,-1.459794342E1,-3.402574310E0,1.506213074E1
4.010066583E0,1.337019653E0,-1.385369110E1,-1.706601105E0,1.402229888E1
4.020145583E0,1.408570862E0,-1.452669159E1,-1.217118988E0,1.464548460E1
4.030225583E0,1.381626892E0,-1.616727997E1,-3.284619598E0,1.655531819E1
4.040305583E0,2.396516418E-1,-1.795725769E1,-1.883832550E0,1.805739078E1
4.050384583E0,-6.569837952E-1,-1.959859451E1,-7.725434875E-1,1.962481485E1
4.060464583E0,-1.084794159E0,-2.100926102E1,-7.056326294E-1,2.104907942E1
4.070543583E0,-1.534309387E0,-2.184886505E1,-2.993774414E-4,2.190267128E1
4.080623583E0,-1.781595154E0,-2.229493744E1,1.978884888E-1,2.236688348E1
4.090703583E0,-1.789977722E0,-2.235331604E1,3.254232788E-1,2.242723029E1
4.100782583E0,-1.391656036E0,-2.224763580E1,5.213658142E-1,2.229721569E1
4.110862583E0,-7.945477295E-1,-2.219135284E1,2.784210205E-2,2.220558989E1
4.120942583E0,-3.903881836E-1,-2.206920685E1,-1.203048248E0,2.210542058E1
4.131021583E0,1.082249451E-1,-2.131911667E1,-2.170636139E0,2.142960824E1
4.141101583E0,1.009949799E0,-1.940729233E1,-3.385210419E0,1.972619182E1
4.151181583E0,1.444496155E0,-1.670436310E1,-5.215604095E0,1.755918112E1
4.161260583E0,1.665736084E0,-1.367481308E1,-6.017037506E0,1.503262884E1
4.171340583E0,1.825154572E0,-1.106079895E1,-5.120402069E0,1.232440587E1
4.181419583E0,2.200274506E0,-8.911268921E0,-3.820505219E0,9.942242293E0
4.191499583E0,2.623444519E0,-6.995253296E0,-2.719694366E0,7.950645714E0
4.201579583E0,2.643652496E0,-5.355113983E0,-2.305805054E0,6.401787347E0
4.211658583E0,2.978506165E0,-3.712579651E0,-2.506238251E0,5.379217118E0
4.221738583E0,3.767665100E0,-2.242786102E0,-2.184108124E0,4.898542447E0
4.231817583E0,4.588258667E0,-1.285227356E0,-8.710386658E-1,4.843824451E0
4.241897583E0,4.357588348E0,-7.568261719E-1,-4.209246826E-1,4.442807632E0
4.251977583E0,3.547772369E0,-3.070115662E-1,-4.908293152E-1,3.594698639E0
4.262056583E0,2.843337250E0,4.059558105E-1,-8.744815063E-1,3.002346539E0
4.272136583E0,2.089804230E0,1.094823303E0,-1.666484528E0,2.888440836E0
4.282216583E0,1.318907318E0,1.379531250E0,-1.863774261E0,2.667635185E0
4.292295583E0,8.640032959E-1,1.262025604E0,-1.546733551E0,2.175222977E0
4.302375583E0,5.797444153E-1,1.071920929E0,-1.040486298E0,1.602413742E0
4.312454583E0,3.772155762E-1,9.502239990E-1,-6.042933655E-1,1.187597453E0
4.322534583E0,2.177970886E-1,8.750802612E-1,-4.222718811E-1,9.957482498E-1
4.332614583E0,7.110214233E-2,8.659492493E-1,-3.914360046E-1,9.529668214E-1
4.342693583E0,-1.422042847E-2,8.105644226E-1,-2.571652222E-1,8.505003558E-1
4.352773583E0,4.191284180E-3,7.282356262E-1,-4.760101318E-2,7.298017201E-1
4.362853583E0,3.203338623E-2,7.042854309E-1,1.701960754E-1,7.252660271E-1
4.372932583E0,4.535568237E-2,7.089257812E-1,4.549040222E-1,8.435464247E-1
4.383012583E0,6.571334839E-2,7.159611511E-1,8.189469910E-1,1.089767309E0
4.393091583E0,2.031275940E-1,7.041357422E-1,1.071471863E0,1.298121688E0
4.403171583E0,3.887416077E-1,6.668632507E-1,1.103654938E0,1.346803941E0
4.413251583E0,5.566923523E-1,6.277944946E-1,8.123606873E-1,1.167887918E0
4.423330583E0,7.930508423E-1,6.225553894E-1,-9.131011963E-2,1.012344995E0
4.433410583E0,1.332229614E0,5.315446472E-1,-1.537752228E0,2.102868843E0
4.443490583E0,1.574875031E0,2.439926147E-2,-1.632654877E0,2.268565325E0
4.453569583E0,1.409468994E0,-7.147636414E-1,-1.257085876E0,2.019345144E0
4.463649583E0,8.011340332E-1,-1.210981750E0,-8.327183533E-1,1.673831651E0
4.473728583E0,1.487905884E-1,-1.496138763E0,-5.673202515E-2,1.504589100E0
4.483808583E0,-4.837939453E-1,-2.020049286E0,3.432362366E-1,2.105342446E0
4.493888583E0,-1.147513733E0,-3.365900574E0,-4.629872131E-1,3.586144392E0
4.503967583E0,-2.414029999E0,-7.896229706E0,-5.320236511E0,9.822570994E0
4.514047583E0,-2.927162933E0,-1.492815674E1,-7.652087402E0,1.702858150E1
4.524127583E0,-2.966231689E0,-1.873504028E1,-2.024989014E0,1.907618529E1
4.534206583E0,-3.801943817E0,-2.190889023E1,2.001038818E0,2.232618203E1
4.544286583E0,-4.408482513E0,-2.788446396E1,3.931125183E0,2.850318918E1
4.554365583E0,-4.106260986E0,-3.610851196E1,4.542902985E0,3.662409020E1
4.564445583E0,9.349557495E-1,-4.415023911E1,-4.580474854E-1,4.416251309E1
4.574525583E0,1.091949280E1,-4.506738190E1,-6.862778778E0,4.687645429E1
4.584604583E0,1.292128006E1,-3.853810959E1,-1.714235229E0,4.068272326E1
4.594684583E0,7.147935791E0,-2.898093384E1,1.673669586E0,2.989629880E1
4.604764583E0,6.527925110E-1,-1.995799713E1,-1.747316437E0,2.004497200E1
4.614843583E0,-4.426445160E0,-1.302875656E1,-8.461903381E0,1.615381451E1
4.624923583E0,-5.495821381E0,-9.993218994E0,-5.257367249E0,1.255820007E1
4.635002583E0,-3.377576294E0,-8.644822998E0,1.312321014E0,9.373535765E0
4.645082583E0,-2.560874634E0,-8.005652161E0,2.758463745E0,8.846336397E0
4.655162583E0,-3.117866364E0,-7.688012695E0,2.568508759E0,8.684691538E0
4.665241583E0,-4.280498657E0,-7.831564178E0,2.719394989E0,9.330121936E0
4.675321583E0,-5.549110565E0,-8.692124634E0,2.275717621E0,1.056051842E1
4.685401583E0,-6.040838013E0,-9.805509338E0,3.742218018E-1,1.152301086E1
4.695480583E0,-5.263654175E0,-9.925559692E0,-2.342329102E0,1.147646706E1
4.705560583E0,-3.480861511E0,-8.879235535E0,-3.561394043E0,1.018041001E1
4.715639583E0,-2.283501434E0,-7.880063324E0,-2.962938538E0,8.722888373E0
4.725719583E0,-1.785187683E0,-7.142996063E0,-1.820364532E0,7.584392847E0
4.735799583E0,-1.471589813E0,-6.413712616E0,-1.160237274E0,6.681873737E0
4.745878583E0,-1.209634552E0,-5.655090179E0,-9.012757874E-1,5.852824851E0
4.755958583E0,-1.072369995E0,-4.828059998E0,-8.831634521E-1,5.023954461E0
4.766038583E0,-9.153465271E-1,-4.033063202E0,-1.055006104E0,4.268078717E0
4.776117583E0,-6.456074524E-1,-3.443289642E0,-1.546434174E0,3.829427006E0
4.786197583E0,-3.288661194E-1,-3.285517731E0,-1.928140411E0,3.823676912E0
4.796276583E0,-1.769320679E-1,-3.736080780E0,-1.538051605E0,4.044157179E0
4.806356583E0,-1.555265808E-1,-4.697381744E0,-7.911048889E-1,4.766070784E0
4.816436583E0,-1.963916016E-1,-5.659131775E0,1.115180969E-1,5.663636499E0
4.826515583E0,-2.215393066E-1,-6.615043945E0,1.095122681E0,6.708739058E0
4.836595583E0,-2.050735474E-1,-7.541168060E0,1.942660217E0,7.790070577E0
4.846675583E0,-1.836680603E-1,-8.509654083E0,2.461631012E0,8.860449978E0
4.856754458E0,-2.885998535E-1,-9.588161316E0,2.474354553E0,9.906490688E0
4.866834458E0,-2.868035889E-1,-1.082219513E1,2.403102722E0,1.108950253E1
4.876913458E0,-1.709445190E-1,-1.229677872E1,2.296224976E0,1.251050111E1
4.886993458E0,1.194515991E-1,-1.416683990E1,1.733245697E0,1.427297314E1
4.897073458E0,7.884104919E-1,-1.623942993E1,-2.095642090E-1,1.625990753E1
4.907152458E0,1.842518463E0,-1.768976395E1,-3.425177307E0,1.811227380E1
4.917232458E0,1.780846710E0,-1.690329941E1,-4.470753021E0,1.757499868E1
4.927312458E0,2.454895020E-2,-1.365176102E1,-2.808609467E0,1.393769955E1
4.937391458E0,-1.366059265E0,-1.120929016E1,-9.767189026E-1,1.133438501E1
4.947471458E0,-1.909579010E0,-9.784403229E0,3.616479492E-1,9.975561527E0
4.957550458E0,-2.090552673E0,-8.729247437E0,1.105002136E0,9.043848794E0
4.967630458E0,-2.186802521E0,-8.014483795E0,1.387315063E0,8.422511434E0
4.977710458E0,-2.371219025E0,-7.449408875E0,1.409768372E0,7.943791230E0
4.987789458E0,-2.691103821E0,-7.084318085E0,1.297950897E0,7.688581080E0
4.997869458E0,-2.960393829E0,-6.991361389E0,1.048419800E0,7.664349273E0
5.007949458E0,-3.098556519E0,-7.279512177E0,7.258406067E-1,7.944758940E0
5.018028458E0,-3.066074066E0,-8.010591888E0,4.613406372E-1,8.589716396E0
5.028108458E0,-2.735711060E0,-8.966653748E0,3.103047180E-1,9.379833871E0
5.038187458E0,-2.117496643E0,-9.687704315E0,1.486408997E-1,9.917535029E0
5.048267458E0,-1.344354401E0,-1.010189301E1,-1.287322998E-1,1.019176643E1
5.058347458E0,-6.927593994E-1,-1.027643005E1,-3.879931641E-1,1.030705918E1
5.068426458E0,-2.649490356E-1,-1.038824753E1,-5.155279541E-1,1.040440550E1
5.078506458E0,-7.768844604E-2,-1.044602737E1,-4.984634399E-1,1.045820201E1
5.088586458E0,-1.451980591E-2,-1.052431458E1,-5.239105225E-1,1.053735690E1
5.098665458E0,1.118174744E-1,-1.060364960E1,-6.204597473E-1,1.062237536E1
5.108745458E0,2.372566223E-1,-1.059841049E1,-6.339317322E-1,1.062000307E1
5.118824458E0,2.128573608E-1,-1.039648041E1,-5.304968262E-1,1.041218229E1
5.128904458E0,-1.293310547E-1,-1.001791763E1,-2.731819153E-1,1.002247617E1
5.138984458E0,-6.267466736E-1,-9.614955597E0,5.643264771E-2,9.635526305E0
5.149063458E0,-1.019080811E0,-9.345964966E0,2.814147949E-1,9.405571813E0
5.159143458E0,-1.248104553E0,-9.184001770E0,3.562591553E-1,9.275266793E0
5.169223458E0,-1.248553619E0,-9.158554688E0,2.963836670E-1,9.248018890E0
5.179302458E0,-1.113983459E0,-9.195378113E0,8.427474976E-2,9.262993038E0
5.189382458E0,-9.530680847E-1,-9.199120331E0,-2.950364685E-1,9.253064366E0
5.199461458E0,-7.253915405E-1,-9.183253326E0,-8.590635681E-1,9.251828185E0
5.209541458E0,-4.671784973E-1,-9.141041107E0,-1.721719666E0,9.313495954E0
5.219621458E0,-1.112187195E-1,-9.072184296E0,-2.825075226E0,9.502523219E0
5.229700458E0,2.466870117E-1,-9.033714294E0,-3.557651825E0,9.712143684E0
5.239780458E0,5.468128967E-1,-8.954379272E0,-3.509751434E0,9.633185747E0
5.249860458E0,7.179071045E-1,-8.879534912E0,-2.680176544E0,9.302949918E0
5.259939458E0,9.210346985E-1,-8.699309692E0,-1.294807434E0,8.843235852E0
5.270019458E0,1.298399963E0,-8.397836609E0,2.424957275E-2,8.497652041E0
5.280098458E0,2.164798279E0,-8.228838043E0,-2.724334717E-2,8.508870038E0
5.290178458E0,3.255280609E0,-8.033494263E0,-1.413660278E0,8.782500629E0
5.300258458E0,3.972888336E0,-7.946674805E0,-2.758912811E0,9.302960931E0
5.310337458E0,3.939058685E0,-8.184081116E0,-3.975882111E0,9.914787219E0
5.320417458E0,3.966152344E0,-8.350684662E0,-5.345533905E0,1.067890591E1
5.330497458E0,4.038002930E0,-8.470735016E0,-5.715414734E0,1.098748310E1
5.340576458E0,3.342399445E0,-8.645571442E0,-3.983965302E0,1.008907920E1
5.350656458E0,2.215093689E0,-8.649762726E0,-1.153201904E0,9.003050033E0
5.360735458E0,1.504371643E0,-8.131240997E0,2.027234344E0,8.514099675E0
5.370815458E0,2.081122284E0,-7.240742798E0,2.247127075E0,7.861870408E0
5.380895458E0,2.372715912E0,-6.769822083E0,6.242019653E-2,7.173853087E0
5.390974458E0,1.354832611E0,-6.863078156E0,-1.527274017E0,7.160305796E0
5.401054458E0,-3.995191956E-1,-7.133266296E0,-3.901187439E0,8.140169966E0
5.411134458E0,-1.745370483E0,-7.285050659E0,-6.233637085E0,9.745589389E0
5.421213458E0,-1.761985931E0,-7.500901794E0,-4.565505981E0,8.956113388E0
5.431293458E0,-6.331832886E-2,-8.027506714E0,-1.208736420E0,8.118245930E0
5.441372458E0,2.559677124E0,-9.048533478E0,-2.921923828E-1,9.408149737E0
5.451452458E0,4.173920288E0,-1.060679306E1,-1.878743134E0,1.155228745E1
5.461532458E0,3.444187775E0,-1.232896179E1,-3.749552765E0,1.333884831E1
5.471611458E0,1.670675812E0,-1.322589661E1,-3.549718323E0,1.379550647E1
5.481691458E0,1.595083008E0,-1.326541443E1,-1.814227295E0,1.348358003E1
5.491771458E0,2.174228668E0,-1.320494019E1,-2.420017548E0,1.359978678E1
5.501850458E0,1.920955353E0,-1.344878311E1,-4.520150299E0,1.431752756E1
5.511930458E0,1.036145325E0,-1.346465012E1,-3.249293060E0,1.388986340E1
5.522009458E0,2.555186462E-1,-1.359143646E1,-1.248254242E0,1.365102830E1
5.532089458E0,-2.933898926E-1,-1.442116104E1,-1.405577087E0,1.449246737E1
5.542169458E0,-1.077010345E0,-1.552556442E1,-1.968855743E0,1.568692114E1
5.552248458E0,-2.369123383E0,-1.652114410E1,-1.341210938E0,1.674394801E1
5.562328458E0,-3.475323029E0,-1.760608795E1,-4.799020386E-1,1.795222853E1
5.572408458E0,-4.083508301E0,-1.869103180E1,-8.786727905E-1,1.915206975E1
5.582487458E0,-4.116888885E0,-1.986833359E1,-7.423063660E-1,2.030395214E1
5.592567458E0,-3.963907013E0,-2.082783829E1,6.737489319E-1,2.121238657E1
5.602646458E0,-4.904850311E0,-2.153661438E1,9.855505371E-1,2.211005711E1
5.612726458E0,-5.543123016E0,-2.257710068E1,1.029109955E0,2.327038365E1
5.622806458E0,-4.245621185E0,-2.396950516E1,3.800596619E-1,2.434557295E1
5.632885458E0,-2.386636963E0,-2.548839661E1,-5.089416504E-3,2.559989108E1
5.642965458E0,1.713935852E-1,-2.645373917E1,-1.503922577E0,2.649700879E1
5.653045458E0,3.476969604E0,-2.589165802E1,-4.179758148E0,2.645633480E1
5.663124458E0,5.700595551E0,-2.296314789E1,-7.403304749E0,2.479136688E1
5.673204458E0,4.905748444E0,-1.807566147E1,-9.861193542E0,2.116693278E1
5.683283458E0,2.448159027E0,-1.378004425E1,-9.703571320E0,1.703063118E1
5.693363458E0,3.326083374E-1,-1.075962524E1,-6.132447510E0,1.238899012E1
5.703443458E0,-3.571572876E-1,-8.185128937E0,-3.020419006E0,8.731942969E0
5.713522458E0,-1.841171265E-2,-6.037844238E0,-1.466201019E0,6.213344306E0
5.723602458E0,3.806584167E-1,-4.335434418E0,-2.951861572E-1,4.362112709E0
5.733682458E0,8.449928284E-1,-2.937940521E0,8.666976929E-2,3.058270595E0
5.743761458E0,1.075214081E0,-1.674118652E0,3.134481812E-1,2.014201664E0
5.753841458E0,1.305585022E0,-5.128335571E-1,7.382647705E-1,1.585113680E0
5.763920458E0,1.576970673E0,2.749781799E-1,9.857002258E-1,1.879908093E0
5.774000458E0,1.792073364E0,7.387138367E-1,1.002465363E0,2.182237814E0
5.784080458E0,1.782642975E0,1.001417542E0,9.325607300E-1,2.247292278E0
5.794159458E0,1.627116394E0,1.074016571E0,6.691085815E-1,2.061243714E0
5.804239458E0,1.338217163E0,1.060694275E0,2.014810181E-1,1.719445295E0
5.814319458E0,1.203647003E0,1.046324158E0,-1.883084106E-1,1.605932878E0
5.824398458E0,1.097966766E0,1.006057892E0,-4.816983032E-1,1.565157103E0
5.834478458E0,1.070274353E0,9.729766846E-1,-4.456233215E-1,1.513522700E0
5.844557458E0,1.091829529E0,8.975335693E-1,-1.029858398E-1,1.417132425E0
5.854637458E0,9.984237671E-1,8.020321655E-1,2.498304749E-1,1.304806836E0
5.864717458E0,8.635542297E-1,7.328759766E-1,3.614982605E-1,1.188912990E0
5.874796458E0,7.797285461E-1,6.670129395E-1,3.679348755E-1,1.090072906E0
5.884876458E0,7.093748474E-1,6.071374512E-1,4.185296631E-1,1.023228048E0
5.894956458E0,6.515950012E-1,5.908213806E-1,3.820056152E-1,9.589443360E-1
5.905035458E0,6.457571411E-1,7.294331360E-1,-2.770738220E-1,1.012840011E0
5.915115458E0,7.860154724E-1,1.348395996E0,-2.442620544E0,2.898687153E0
5.925194458E0,9.560618591E-1,1.349144440E0,-1.685644684E0,2.361279949E0
5.935274458E0,1.102756805E0,1.136885834E0,-6.695576477E-1,1.719560820E0
5.945354458E0,1.177451477E0,1.030606842E0,-2.894979858E-1,1.591336397E0
5.955433458E0,1.208287354E0,7.771838379E-1,-2.043251038E-1,1.451110538E0
5.965513458E0,1.114881592E0,1.294807434E-1,-6.068380737E-1,1.275922676E0
5.975592458E0,9.542655945E-1,-6.709048462E-1,-1.834884338E0,2.174289924E0
5.985672458E0,3.016227722E-1,-1.699266357E0,-4.261937256E0,4.598107396E0
5.995752458E0,-4.180805969E-1,-2.893033905E0,-5.780229950E0,6.477306140E0
6.005831458E0,-6.685098267E-1,-3.276386719E0,-3.594175873E0,4.909146109E0
6.015911458E0,-6.978488159E-1,-3.532354431E0,-2.689606934E0,4.494274831E0
6.025991458E0,-1.266366577E0,-6.071524200E0,-3.727249146E0,7.235984841E0
6.036070458E0,-1.969604187E0,-1.142903320E1,-3.980821838E0,1.226169169E1
6.046150458E0,-1.861379242E0,-1.721315506E1,-2.111359406E0,1.744176821E1
6.056229458E0,-2.723586273E0,-2.503618698E1,2.871029663E0,2.534701939E1
6.066309458E0,-3.821702728E0,-3.473451920E1,6.970854034E0,3.563264011E1
6.076389458E0,-3.048710175E0,-4.349415344E1,9.968220978E0,4.472584764E1
6.086468458E0,-1.118174744E-1,-4.703803391E1,9.565558319E0,4.800092752E1
6.096548458E0,3.550616455E0,-4.389082855E1,6.178551636E0,4.446556205E1
6.106628458E0,6.901697845E0,-3.531725739E1,2.192939758E0,3.605206079E1
6.116707458E0,6.064189453E0,-2.489892242E1,-3.910617828E0,2.592341921E1
6.126787458E0,1.271455994E0,-1.547586777E1,-8.623267822E0,1.776175192E1
6.136866458E0,-1.096320190E0,-1.021266266E1,-1.328202988E1,1.679025653E1
6.146946458E0,-3.609893188E0,-8.486901398E0,-1.451097427E1,1.719381280E1
6.157026458E0,-4.010609894E0,-8.342152405E0,-5.699248352E0,1.087004739E1
6.167105458E0,-3.147055664E0,-9.157955933E0,1.029409332E0,9.738162033E0
6.177185458E0,-3.635489960E0,-9.387279053E0,1.438209229E0,1.016888593E1
6.187265458E0,-4.777914276E0,-9.464967499E0,6.734495544E-1,1.062391683E1
6.197344458E0,-5.213658142E0,-9.377998352E0,-1.363664246E-1,1.073068871E1
6.207424458E0,-4.690795441E0,-8.869505768E0,-6.863227844E-1,1.005697437E1
6.217503458E0,-3.733685760E0,-8.190068665E0,-4.903802490E-1,9.014327866E0
6.227583458E0,-2.662363586E0,-7.405849457E0,2.459385681E-1,7.873707629E0
6.237663458E0,-1.636097717E0,-6.530918884E0,1.072220306E0,6.817578280E0
6.247742458E0,-9.327104187E-1,-5.745951233E0,1.647474060E0,6.049799590E0
6.257822458E0,-4.980143738E-1,-5.191953278E0,1.731599121E0,5.495710388E0
6.267902458E0,-2.618055725E-1,-4.855453033E0,1.447789307E0,5.073466290E0
6.277981458E0,1.550775146E-1,-4.673581238E0,1.160087585E0,4.817905544E0
6.288061458E0,5.034031677E-1,-4.608466644E0,1.001417542E0,4.742806833E0
6.298140458E0,7.261399841E-1,-4.627776489E0,7.018904114E-1,4.736691320E0
6.308220458E0,7.464976501E-1,-4.855003967E0,4.778063965E-1,4.935242772E0
6.318300458E0,6.569837952E-1,-5.242997131E0,5.170248413E-1,5.309233590E0
6.328379458E0,4.474195862E-1,-6.240373077E0,5.791456604E-1,6.283140149E0
6.338459458E0,1.776805115E-1,-7.905959473E0,6.069877625E-1,7.931216785E0
6.348539458E0,-8.277786255E-2,-9.647737427E0,5.129832458E-1,9.661720418E0
6.358618458E0,-3.754193115E-1,-1.120749390E1,3.466790771E-1,1.121913747E1
6.368698458E0,-7.836204529E-1,-1.263851807E1,1.737886047E-1,1.266398051E1
6.378777458E0,-1.339414673E0,-1.390278900E1,-1.294807434E-1,1.396776070E1
6.388857458E0,-1.628762970E0,-1.476843887E1,-1.090182953E0,1.489792450E1
6.398937458E0,-1.447040863E0,-1.471829315E1,-2.394570465E0,1.498185730E1
6.409016458E0,-1.171164551E0,-1.318009186E1,-3.188519440E0,1.361077162E1
6.419096458E0,-1.159638519E0,-1.133023865E1,-3.059487762E0,1.179319866E1
6.429176458E0,-1.285526733E0,-1.015548157E1,-2.075434113E0,1.044479830E1
6.439255458E0,-1.319955139E0,-9.378148041E0,-7.415579224E-1,9.499571064E0
6.449335458E0,-1.293759613E0,-8.926836548E0,3.209326172E-1,9.025808686E0
6.459414458E0,-1.271455994E0,-8.709488525E0,9.912387085E-1,8.857445732E0
6.469494458E0,-1.352886658E0,-8.685388641E0,1.447489929E0,8.908507465E0
6.479574458E0,-1.439257050E0,-8.885672150E0,1.752555542E0,9.170500604E0
6.489653458E0,-1.527872772E0,-9.226064301E0,1.955982513E0,9.554084220E0
6.499733458E0,-1.565294952E0,-9.548793182E0,2.060016174E0,9.893091841E0
6.509813458E0,-1.597328339E0,-9.840087433E0,2.077679443E0,1.018310023E1
6.519892458E0,-1.620530090E0,-9.948761444E0,2.009720764E0,1.027827561E1
6.529972458E0,-1.630110168E0,-9.784403229E0,1.864672394E0,1.009300792E1
6.540051458E0,-1.624122620E0,-9.413175201E0,1.611997833E0,9.687320510E0
6.550131458E0,-1.710792389E0,-9.166188812E0,1.285526733E0,9.412672677E0
6.560211458E0,-1.800904999E0,-9.104217682E0,1.007704468E0,9.335175773E0
6.570290458E0,-1.857637024E0,-9.168134766E0,6.749464417E-1,9.378755946E0
6.580370458E0,-1.958377533E0,-9.345815277E0,1.612147522E-1,9.550156855E0
6.590450458E0,-2.092498627E0,-9.517508240E0,-1.191222839E0,9.817358374E0
6.600529458E0,-2.180515594E0,-9.624535675E0,-3.275189209E0,1.039774974E1
6.610609458E0,-1.956880646E0,-9.499545593E0,-3.679049377E0,1.037333855E1
6.620688458E0,-1.625469818E0,-9.391620026E0,-2.301314392E0,9.805137774E0
6.630768458E0,-1.453178101E0,-9.355245667E0,-1.113235016E0,9.532661762E0
6.640848458E0,-1.318607941E0,-9.222621460E0,-3.960763550E-1,9.324824394E0
6.650927458E0,-1.111289062E0,-9.012009430E0,3.637435913E-2,9.080341427E0
6.661007458E0,-7.717950439E-1,-8.793164520E0,1.377136230E-1,8.828044796E0
6.671087458E0,-4.170327759E-1,-8.621471558E0,5.777984619E-2,8.631745285E0
6.681166458E0,-6.256988525E-2,-8.504115601E0,-2.176473999E-1,8.507130393E0
6.691246458E0,4.168830872E-1,-8.410709839E0,-6.435118103E-1,8.445586951E0
6.701325458E0,8.464897156E-1,-8.283175049E0,-1.027014313E0,8.389415482E0
6.711405458E0,1.273701324E0,-8.141569519E0,-1.553020477E0,8.385662878E0
6.721485458E0,1.548230438E0,-7.881859589E0,-1.550026703E0,8.180666895E0
6.731564458E0,1.638193359E0,-7.793992310E0,-1.768123169E0,8.158201588E0
6.741644458E0,7.201524353E-1,-7.763904877E0,-1.886976013E0,8.022313690E0
6.751723458E0,-4.085005188E-1,-7.555837555E0,-1.899250488E0,7.801583573E0
6.761803458E0,-8.560697937E-1,-7.182513885E0,-1.308728485E0,7.350791213E0
6.771883458E0,-1.148411865E0,-6.867868195E0,-4.938230896E-1,6.980710895E0
6.781962458E0,-5.798941040E-1,-6.878346405E0,-7.476951599E-1,6.943124260E0
6.792042458E0,5.152285767E-1,-7.243736572E0,-2.084415436E0,7.555260930E0
6.802122458E0,1.825004883E0,-7.735763397E0,-3.151396637E0,8.550086486E0
6.812201458E0,2.443668365E0,-8.338709564E0,-2.523602142E0,9.048434121E0
6.822281458E0,2.077978821E0,-9.076375580E0,-1.855391693E0,9.494265005E0
6.832360458E0,3.523672485E-1,-9.739346924E0,-9.252259827E-1,9.789539535E0
6.842440458E0,-1.388362885E0,-9.657018127E0,-6.215075684E-1,9.776084199E0
6.852520583E0,-2.236648865E0,-9.264085236E0,-2.503843231E0,9.853684809E0
6.862599583E0,-1.956730957E0,-8.891210632E0,-4.367916870E0,1.009757992E1
6.872679583E0,-7.629634094E-1,-8.857530670E0,-3.621568909E0,9.599673125E0
6.882759583E0,7.837701416E-1,-8.999884644E0,-1.108295288E0,9.101677740E0
6.892838583E0,2.020498352E0,-9.323811035E0,-4.900808716E-1,9.552802995E0
6.902918583E0,3.397634583E0,-9.902956696E0,-2.590213623E0,1.078525283E1
6.912997583E0,4.563260651E0,-1.045141617E1,-3.875440979E0,1.204468723E1
6.923077583E0,5.207969971E0,-1.076291840E1,-2.643353119E0,1.224543504E1
6.933157583E0,5.287754059E0,-1.098520615E1,-1.284478912E0,1.225907758E1
6.943236583E0,5.041516113E0,-1.149055527E1,-2.025138702E0,1.271026876E1
6.953316583E0,4.546495514E0,-1.202180054E1,-2.739303589E0,1.314146467E1
6.963396583E0,3.824995880E0,-1.228001358E1,-2.333946533E0,1.307197894E1
6.973475583E0,4.018543396E0,-1.222867035E1,-2.217638397E0,1.306166106E1
6.983555583E0,4.413721619E0,-1.223495728E1,-1.871857452E0,1.314073698E1
6.993634583E0,3.876937866E0,-1.275123367E1,-1.341959381E0,1.339497900E1
7.003714583E0,3.238365784E0,-1.412777115E1,-1.174757080E0,1.454169814E1
7.013794583E0,2.624642029E0,-1.618105133E1,-1.146166534E0,1.643255506E1
7.023873583E0,1.666933594E0,-1.817355789E1,-8.812174988E-1,1.827110884E1
7.033953583E0,8.690927124E-1,-1.984782623E1,-1.143322449E0,1.989971644E1
7.044033583E0,2.029779053E-1,-2.135713760E1,-1.223854980E0,2.139313786E1
7.054112583E0,-7.053332520E-1,-2.229179398E1,-8.752299500E-1,2.232011651E1
7.064192583E0,-1.590292969E0,-2.278950897E1,-1.024768982E0,2.286790114E1
7.074272583E0,-2.236948242E0,-2.294189209E1,-7.906558228E-1,2.306424694E1
7.084351583E0,-2.616708527E0,-2.278112640E1,-3.185375977E-1,2.293312778E1
7.094431583E0,-2.636766815E0,-2.266751266E1,-5.453160095E-1,2.282687099E1
7.104510583E0,-2.192041626E0,-2.257740005E1,-1.456471252E0,2.273027383E1
7.114590583E0,-1.206191711E0,-2.258428574E1,-2.919528809E0,2.280413360E1
7.124670583E0,3.626957703E-1,-2.208642105E1,-4.959486694E0,2.263930324E1
7.134749583E0,2.511177979E0,-2.017369858E1,-6.612499237E0,2.137777527E1
7.144829583E0,4.037553864E0,-1.732497253E1,-6.976392517E0,1.910828530E1
7.154908583E0,4.037104797E0,-1.460872101E1,-6.144871674E0,1.635458323E1
7.164988583E0,3.352428589E0,-1.233958969E1,-4.518054657E0,1.356160275E1
7.175068583E0,2.999612274E0,-1.008422974E1,-2.494263153E0,1.081252569E1
7.185147583E0,2.683918762E0,-7.676486664E0,-5.095404053E-1,8.148097867E0
7.195227583E0,2.368225250E0,-5.480253754E0,7.653584290E-1,6.018923954E0
7.205307583E0,1.978884888E0,-3.737727356E0,1.135987701E0,4.379161934E0
7.215386583E0,1.883383484E0,-2.311343536E0,1.079555054E0,3.170943299E0
7.225466583E0,1.860331421E0,-9.523196411E-1,9.351054382E-1,2.289578100E0
7.235545583E0,1.836979980E0,2.085163879E-1,5.051994324E-1,1.916559678E0
7.245625583E0,1.650467834E0,1.082548828E0,-2.519261169E-1,1.989829844E0
7.255705583E0,1.397942963E0,1.658251648E0,-8.663983154E-1,2.335527584E0
7.265784583E0,9.647438049E-1,1.924697571E0,-1.230590973E0,2.479827714E0
7.275864583E0,6.688092041E-1,1.877695312E0,-1.252295837E0,2.353994542E0
7.285944583E0,6.759942627E-1,1.642833710E0,-9.798623657E-1,2.028793015E0
7.296023583E0,7.126679993E-1,1.355730743E0,-6.592291260E-1,1.667478506E0
7.306103583E0,7.720944214E-1,1.190324707E0,-5.245092773E-1,1.512650880E0
7.316182583E0,7.273374939E-1,1.173858948E0,-4.535568237E-1,1.453505573E0
7.326262583E0,5.020559692E-1,1.234183502E0,-3.632945251E-1,1.381032956E0
7.336342583E0,2.642005920E-1,1.229094086E0,-1.963916016E-1,1.272416553E0
7.346421583E0,1.326242065E-1,1.179397430E0,-2.888992310E-2,1.187182424E0
7.356501583E0,1.408570862E-1,1.140478363E0,1.219963074E-1,1.155601451E0
7.366581583E0,2.534230042E-1,1.134041748E0,1.422042847E-1,1.170681837E0
7.376660583E0,4.376898193E-1,1.199904785E0,-1.022373962E-1,1.281326015E0
7.386740583E0,6.688092041E-1,1.277144165E0,-4.784051514E-1,1.518971513E0
7.396819583E0,9.093589783E-1,1.267115021E0,-2.486329651E-1,1.579345617E0
7.406899583E0,1.078956299E0,1.221310272E0,2.938389587E-1,1.655924760E0
7.416979583E0,1.207688599E0,1.131646729E0,7.780819702E-1,1.828810439E0
7.427058583E0,1.357377319E0,1.005010071E0,1.291813660E0,2.126335101E0
7.437138583E0,1.319057007E0,8.422984314E-1,1.753902740E0,2.350649454E0
7.447218583E0,9.090596008E-1,5.628295898E-1,1.649869080E0,1.966019960E0
7.457297583E0,3.336561584E-1,-1.799258423E-1,9.372010803E-1,1.010962712E0
7.467377583E0,1.038839722E-1,-4.415817261E-1,3.435356140E-1,5.690369220E-1
7.477456583E0,-3.353027344E-2,-4.863386536E-1,-1.887574768E-1,5.227608920E-1
7.487536583E0,-4.096980286E-1,-1.346599731E0,-3.558400269E0,3.826669019E0
7.497616583E0,-1.329834595E0,-4.643194427E0,-1.233315308E1,1.324516438E1
7.507695583E0,-9.991722107E-1,-5.975573730E0,-7.630681915E0,9.743363537E0
7.517775583E0,-1.102158051E0,-6.940467224E0,-1.447040863E0,7.174870376E0
7.527855583E0,-3.084036713E0,-1.223795105E1,5.288502502E-1,1.263164324E1
7.537934583E0,-4.740492096E0,-2.096989288E1,9.470805359E-1,2.151988927E1
7.548014583E0,-6.406976624E0,-3.046494781E1,3.478915558E0,3.132515360E1
7.558093583E0,-6.877448273E0,-4.353247375E1,7.727530518E0,4.474472364E1
7.568173583E0,-3.087329865E0,-5.288023499E1,7.980354767E0,5.356805877E1
7.578253583E0,5.743406525E0,-5.207401154E1,1.662143555E0,5.241614367E1
7.588332583E0,1.390967468E1,-4.495885757E1,-4.464316406E0,4.727269873E1
7.598412583E0,1.093640762E1,-3.581512207E1,-7.562723236E0,3.820370091E1
7.608492583E0,7.159611511E-1,-2.335069199E1,-2.055300980E1,3.111580994E1
7.618571583E0,-6.927144928E0,-1.515014511E1,-1.758902344E1,2.422572969E1
7.628651583E0,-7.220684509E0,-1.128757736E1,-2.769391022E0,1.368273416E1
7.638730583E0,-5.652545471E0,-9.986632690E0,3.779340820E0,1.208170186E1
7.648810583E0,-5.058580627E0,-8.753347321E0,3.221900024E0,1.061088908E1
7.658890583E0,-5.290298767E0,-7.417375488E0,1.563798065E0,9.243926902E0
7.668969583E0,-5.572312317E0,-6.419999542E0,7.110214233E-2,8.501300735E0
7.679049583E0,-5.805377655E0,-5.981710968E0,-5.980064392E-1,8.357086067E0
7.689129583E0,-5.258415070E0,-5.567372589E0,-3.683839417E-1,7.666959848E0
7.699208583E0,-4.068838806E0,-4.947212219E0,-9.160949707E-2,6.406149411E0
7.709288583E0,-2.380499725E0,-4.216880951E0,9.190887451E-2,4.843274836E0
7.719367583E0,-1.016386414E0,-3.609444122E0,3.348536682E-1,3.764738396E0
7.729447583E0,-6.294410706E-1,-3.344644775E0,7.860154724E-1,3.492945041E0
7.739527583E0,-3.800596619E-1,-3.249143372E0,8.867559814E-1,3.389353060E0
7.749606583E0,2.231858826E-1,-3.284020844E0,4.162843323E-1,3.317815167E0
7.759686583E0,8.467890930E-1,-3.441643066E0,-1.146615601E-1,3.546139597E0
7.769766583E0,1.288221130E0,-3.726949768E0,-7.135661316E-1,4.007348859E0
7.779845583E0,1.369352417E0,-4.245022430E0,-1.112336884E0,4.597024562E0
7.789925583E0,1.079555054E0,-4.928650818E0,-9.404942322E-1,5.132403667E0
7.800004583E0,5.646258545E-1,-5.721701660E0,-2.912942505E-1,5.756867602E0
7.810084583E0,-7.035369873E-3,-6.549779663E0,3.788621521E-1,6.560731641E0
7.820164583E0,-3.939807129E-1,-7.250472565E0,7.123686218E-1,7.296029212E0
7.830243583E0,-8.080197144E-1,-7.857310638E0,7.179071045E-1,7.931306131E0
7.840323583E0,-1.325493622E0,-8.487500153E0,5.586383057E-1,8.608523040E0
7.850403583E0,-1.796414337E0,-9.218729553E0,4.348457336E-1,9.402189631E0
7.860482625E0,-2.219135284E0,-1.015682877E1,4.049079895E-1,1.040431076E1
7.870562625E0,-2.567311249E0,-1.127844635E1,3.359014893E-1,1.157183084E1
7.880641625E0,-2.782114563E0,-1.251861740E1,5.957611084E-2,1.282417609E1
7.890721625E0,-2.845283203E0,-1.387719223E1,-4.541555786E-1,1.417315625E1
7.900801625E0,-2.573298798E0,-1.525223282E1,-1.079255676E0,1.550539472E1
7.910880625E0,-2.168091431E0,-1.640229126E1,-1.588496704E0,1.662104391E1
7.920960625E0,-1.881886597E0,-1.681588120E1,-1.647474060E0,1.700086846E1
7.931039625E0,-1.712139587E0,-1.557975174E1,-1.125808868E0,1.571392796E1
7.941119625E0,-2.095492401E0,-1.288505539E1,-3.367996216E-1,1.305868197E1
7.951199625E0,-2.853216705E0,-1.088296875E1,4.748126221E-1,1.126078600E1
7.961278625E0,-3.154989166E0,-9.600435791E0,1.186133423E0,1.017493177E1
7.971358625E0,-3.148552551E0,-8.491541748E0,1.596430206E0,9.196099925E0
7.981438625E0,-3.198698273E0,-7.615263977E0,1.651365967E0,8.423237242E0
7.991517625E0,-3.402424622E0,-6.881190491E0,1.547032928E0,7.830746245E0
8.001597625E0,-3.505410461E0,-6.301895142E0,1.372046814E0,7.340592438E0
8.011676625E0,-3.296295319E0,-5.899232483E0,1.243763580E0,6.871204739E0
8.021756625E0,-2.660717010E0,-5.867498474E0,1.184337158E0,6.550542562E0
8.031836625E0,-2.227966919E0,-6.372398529E0,8.873547363E-1,6.808722203E0
8.041915625E0,-2.077230377E0,-7.361391907E0,4.333488464E-1,7.661120549E0
8.051995625E0,-1.626218262E0,-8.132737885E0,2.110610962E-2,8.293760112E0
8.062075625E0,-1.241817627E0,-8.839118958E0,-2.312690735E-1,8.928920447E0
8.072154625E0,-1.060993652E0,-9.559720459E0,-3.999682617E-1,9.626730358E0
8.082234625E0,-9.642947388E-1,-1.019769379E1,-6.054908752E-1,1.026106438E1
8.092313625E0,-9.195378113E-1,-1.059242294E1,-7.731422424E-1,1.066033407E1
8.102393625E0,-8.225395203E-1,-1.078417419E1,-1.061592407E0,1.086747269E1
8.112473625E0,-6.830296326E-1,-1.089674011E1,-1.666783905E0,1.104462055E1
8.122552625E0,-4.951702881E-1,-1.091440338E1,-2.602039032E0,1.123120661E1
8.132632625E0,-8.502319336E-2,-1.090018295E1,-4.097728729E0,1.164528222E1
8.142712625E0,7.873626709E-2,-1.070678513E1,-4.813390503E0,1.173925787E1
8.152791625E0,-2.791694641E-1,-1.024664200E1,-4.027075653E0,1.101312608E1
8.162871625E0,-7.020401001E-1,-9.596543884E0,-3.106490021E0,1.011122125E1
8.172950625E0,-1.106499023E0,-8.934171295E0,-2.368973694E0,9.308909344E0
8.183030625E0,-1.244212646E0,-8.369545441E0,-2.076182556E0,8.712513415E0
8.193110625E0,-1.341809692E0,-7.935897217E0,-2.030078430E0,8.300610599E0
8.203189625E0,-1.567390594E0,-7.562872925E0,-2.023492126E0,7.984252034E0
8.213269625E0,-1.971699829E0,-7.130871277E0,-1.921853485E0,7.643981044E0
8.223349625E0,-2.193388824E0,-6.586902466E0,-1.620679779E0,7.129154338E0
8.233428625E0,-1.793420563E0,-6.174809418E0,-1.547931061E0,6.613676680E0
8.243508625E0,-6.480024719E-1,-5.819598083E0,-1.767524414E0,6.116516297E0
8.253587625E0,1.162781982E0,-5.795498199E0,-2.623893585E0,6.467200234E0
8.263667625E0,2.784359894E0,-6.306984558E0,-2.004331970E0,7.179697827E0
8.273747625E0,3.788022766E0,-6.856042786E0,-1.239422607E0,7.930359863E0
8.283826625E0,4.162993011E0,-7.653135223E0,-1.663191376E0,8.869452921E0
8.293906625E0,3.051703949E0,-8.940158844E0,1.387165375E0,9.547961297E0
8.303986625E0,3.024759979E0,-9.825867004E0,-5.331912231E-1,1.029471360E1
8.314065625E0,2.193538513E0,-9.935439148E0,-5.057981873E-1,1.018726627E1
8.324145625E0,2.137854309E0,-9.806557159E0,1.532812500E-1,1.003805158E1
8.334224625E0,2.666704559E0,-9.221573639E0,-2.410437469E0,9.897420996E0
8.344304625E0,2.367476807E0,-8.770262146E0,-3.964356079E0,9.911536897E0
8.354384625E0,2.458188171E0,-8.810977478E0,-2.315085754E0,9.435869608E0
8.364463625E0,3.238814850E0,-9.163494415E0,-8.105644226E-1,9.752772232E0
8.374543625E0,4.164489899E0,-9.622440033E0,-1.015488281E0,1.053401845E1
8.384623625E0,4.887935486E0,-1.014126114E1,-3.509601746E0,1.179213277E1
8.394702625E0,4.714895325E0,-1.055095917E1,-4.450545044E0,1.238387373E1
8.404782625E0,4.762945404E0,-1.060604462E1,-3.522474976E0,1.214831928E1
8.414861625E0,5.347030792E0,-1.060754150E1,-2.669249268E0,1.217520294E1
8.424941625E0,4.548740845E0,-1.076785812E1,-2.373913422E0,1.192783622E1
8.435021625E0,3.449726257E0,-1.093341385E1,-2.724634094E0,1.178404772E1
8.445100625E0,3.139571228E0,-1.139505386E1,-2.572250977E0,1.209630667E1
8.455180625E0,2.211650848E0,-1.220262451E1,-2.804867249E0,1.271466573E1
8.465260625E0,1.147364044E0,-1.292487259E1,-2.683020630E0,1.325018398E1
8.475339625E0,4.659809875E-1,-1.378303802E1,-2.114353180E0,1.395205235E1
8.485419625E0,-3.691323853E-1,-1.494971191E1,-2.344125366E0,1.513687777E1
8.495498625E0,-1.281036072E0,-1.605186996E1,-2.340981903E0,1.627217807E1
8.505578625E0,-1.829345856E0,-1.678459625E1,-2.450554047E0,1.706090246E1
8.515658625E0,-2.040107574E0,-1.734263580E1,-2.009122009E0,1.757741809E1
8.525737625E0,-2.114053802E0,-1.790157349E1,-1.929188232E0,1.812890852E1
8.535817625E0,-2.468816071E0,-1.856289825E1,-1.947300568E0,1.882732652E1
8.545897625E0,-3.263812866E0,-1.941178299E1,-1.938618622E0,1.977948522E1
8.555976625E0,-4.184398499E0,-2.008164001E1,-1.560205536E0,2.057220693E1
8.566056625E0,-4.720284119E0,-2.039793228E1,-1.526824951E-1,2.093752697E1
8.576135625E0,-4.925058289E0,-2.069192093E1,4.076023865E-1,2.127387907E1
8.586215625E0,-4.954696655E0,-2.113694550E1,1.190025330E-1,2.171021984E1
8.596295625E0,-4.643793182E0,-2.153002808E1,-5.153782654E-1,2.203117198E1
8.606374625E0,-4.066294098E0,-2.160397430E1,-1.125060425E0,2.201209246E1
8.616454625E0,-3.403173065E0,-2.122900406E1,-1.927841034E0,2.158630981E1
8.626534625E0,-2.727777557E0,-2.002460861E1,-3.532504120E0,2.051595247E1
8.636613625E0,-1.978735199E0,-1.769230865E1,-5.218747559E0,1.855177901E1
8.646693625E0,-8.011340332E-1,-1.512918869E1,-5.295088806E0,1.604905392E1
8.656772625E0,4.484674072E-1,-1.286754181E1,-4.608316956E0,1.367520897E1
8.666852625E0,1.667682037E0,-1.049243088E1,-3.459755402E0,1.117327958E1
8.676932625E0,2.571652222E0,-8.173153839E0,-1.844314728E0,8.764435843E0
8.687011625E0,2.996169434E0,-6.287075958E0,-2.960842896E-1,6.970797751E0
8.697091625E0,3.076103210E0,-4.950056305E0,2.305206299E-1,5.832547312E0
8.707171625E0,3.233426056E0,-3.736230469E0,3.372486877E-1,4.952595163E0
8.717250625E0,3.456462250E0,-2.576442261E0,5.578898621E-1,4.347002082E0
8.727330625E0,3.321443024E0,-1.620380402E0,6.728507996E-1,3.756373864E0
8.737409625E0,2.859503632E0,-8.331674194E-1,5.668711853E-1,3.031875972E0
8.747489625E0,2.377206573E0,-1.423539734E-1,1.127156067E-1,2.384130985E0
8.757569625E0,1.870061188E0,5.095404053E-1,-4.508624268E-1,1.989984221E0
8.767648625E0,1.440454559E0,1.105750580E0,-8.949888611E-1,2.024499628E0
8.777728625E0,1.089135132E0,1.484013977E0,-1.387165375E0,2.304938306E0
8.787808625E0,9.345066833E-1,1.642085266E0,-2.087259521E0,2.815386132E0
8.797887625E0,9.963281250E-1,1.674268341E0,-2.752176819E0,3.371990725E0
8.807967625E0,1.070424042E0,1.640289001E0,-2.736908569E0,3.365564463E0
8.818046625E0,9.572593689E-1,1.615740051E0,-2.236349487E0,2.920311703E0
8.828126625E0,8.093669128E-1,1.631607056E0,-1.581012268E0,2.411807657E0
8.838206625E0,5.149291992E-1,1.587448883E0,-9.148974609E-1,1.903203457E0
8.848285625E0,4.179309082E-1,1.330732727E0,-4.879852295E-1,1.477716285E0
8.858366333E0,4.992118835E-1,9.469308472E-1,-1.945953369E-1,1.088006378E0
8.868446333E0,4.926255798E-1,5.843847656E-1,1.272354126E-2,7.644261931E-1
8.878525333E0,4.519102478E-1,2.507286072E-1,1.426533508E-1,5.361321526E-1
8.888605333E0,4.267625427E-1,1.576222229E-1,2.406994629E-1,5.146914264E-1
8.898684333E0,4.546046448E-1,1.700463867E-1,2.513273621E-1,5.465771671E-1
8.908764333E0,6.468049622E-1,2.031275940E-1,1.044827271E-1,6.859548956E-1
8.918844333E0,9.583071899E-1,1.092727661E-1,-7.529342651E-2,9.674514498E-1
8.928923333E0,1.269510040E0,-2.146536255E-1,-1.083746338E-1,1.292082421E0
8.939003333E0,1.479972382E0,-7.421566772E-1,-1.998344421E-1,1.667647621E0
8.949082333E0,1.337019653E0,-1.192120972E0,-5.316943359E-1,1.868548322E0
8.959162333E0,6.924600220E-1,-1.701362000E0,-1.266516266E0,2.231187349E0
8.969242333E0,-3.737727356E-1,-2.769690399E0,-3.284469910E0,4.312613309E0
8.979321333E0,-1.702559509E0,-4.709805908E0,-5.921536102E0,7.755357528E0
8.989401333E0,-3.375630341E0,-8.186326447E0,-7.327711945E0,1.149374540E1
8.999481333E0,-3.970493317E0,-1.039243881E1,-3.343147888E0,1.161655024E1
9.009560333E0,-4.026027832E0,-1.194096863E1,1.092727661E-1,1.260188765E1
9.019640333E0,-6.093678131E0,-1.665361862E1,1.466500397E0,1.779400320E1
9.029720333E0,-9.336684265E0,-2.374931305E1,4.115092621E0,2.584835644E1
9.039799333E0,-1.152782776E1,-3.075145203E1,8.688232727E0,3.397098766E1
9.049879333E0,-1.039543259E1,-3.514331909E1,1.004575974E1,3.800046295E1
9.059958333E0,-2.662962341E0,-3.759147812E1,2.791245575E0,3.778890905E1
9.070038333E0,9.746831360E0,-3.910438202E1,-9.239236908E0,4.134630471E1
9.080118333E0,8.478369141E0,-3.613440811E1,-4.689597931E0,3.741083428E1
9.090197333E0,4.650678864E0,-3.185720261E1,-1.502545441E1,3.552850197E1
9.100277333E0,-4.777914276E0,-2.118768997E1,-1.996892441E1,2.950431516E1
9.110356333E0,-8.631949768E0,-1.382240616E1,-3.343297577E0,1.663571782E1
9.120436333E0,-6.670728149E0,-1.104448288E1,3.254831543E0,1.330688335E1
9.130516333E0,-5.732329559E0,-9.632169800E0,2.772684174E0,1.154669107E1
9.140595333E0,-5.692811737E0,-8.451425171E0,2.801125031E0,1.056792290E1
9.150675333E0,-5.547913055E0,-7.037914581E0,2.619103546E0,9.336556341E0
9.160755333E0,-6.179449768E0,-6.249204712E0,1.046473846E0,8.850608255E0
9.170834333E0,-6.909781036E0,-6.783892822E0,-7.429051208E-1,9.711754930E0
9.180914333E0,-6.610403595E0,-8.182883606E0,-7.563771057E-1,1.054652199E1
9.190993333E0,-5.386099548E0,-9.114845581E0,4.842430115E-1,1.059834749E1
9.201073333E0,-4.835245056E0,-9.229956207E0,1.635948029E0,1.054741733E1
9.211153333E0,-4.254303131E0,-8.753197632E0,2.059267731E0,9.947770981E0
9.221232333E0,-3.677552490E0,-8.040080566E0,1.771266632E0,9.016910408E0
9.231312333E0,-3.160976715E0,-7.077133026E0,7.607180786E-1,7.788214022E0
9.241392333E0,-2.826422424E0,-6.100563812E0,-6.044430542E-1,6.750621746E0
9.251471333E0,-2.315834198E0,-5.136269073E0,-1.832489319E0,5.924724899E0
9.261551333E0,-1.625020752E0,-4.309238892E0,-2.109563141E0,5.065618315E0
9.271630333E0,-9.779164124E-1,-4.054917755E0,-1.444346466E0,4.414160761E0
9.281710333E0,-5.776487732E-1,-4.241130524E0,-8.761280823E-1,4.369034978E0
9.291790333E0,-3.718267822E-1,-4.495900726E0,-5.349874878E-1,4.542861445E0
9.301869333E0,-3.475772095E-1,-4.732408905E0,-3.014730835E-1,4.754722913E0
9.311949333E0,-5.162763977E-1,-5.085973663E0,-2.381547546E-1,5.117654454E0
9.322029333E0,-7.140151978E-1,-5.485492859E0,-1.401086426E-1,5.533541365E0
9.332108333E0,-7.234455872E-1,-6.021827545E0,1.507365417E-1,6.067001072E0
9.342188333E0,-6.956034851E-1,-7.098239136E0,5.743556213E-1,7.155330001E0
9.352267333E0,-6.890171814E-1,-8.768166504E0,7.827223206E-1,8.829957120E0
9.362347333E0,-7.797285461E-1,-1.087054459E1,6.433621216E-1,1.091744618E1
9.372427333E0,-9.400451660E-1,-1.317485275E1,3.252735901E-1,1.321235153E1
9.382506333E0,-9.110055542E-1,-1.546404236E1,-1.634600830E-1,1.549171573E1
9.392586333E0,-8.165519714E-1,-1.704625214E1,-6.432124329E-1,1.707791531E1
9.402666333E0,-9.095086670E-1,-1.716735031E1,-8.699908447E-1,1.721342519E1
9.412745333E0,-1.275198212E0,-1.495150818E1,-1.427581329E0,1.507354357E1
9.422825333E0,-2.890189819E0,-1.186702240E1,-2.286495209E0,1.242608056E1
9.432904333E0,-4.441264343E0,-1.025652145E1,-2.698588257E0,1.149797547E1
9.442984333E0,-5.005740509E0,-9.430090027E0,-2.151475983E0,1.089095427E1
9.453064333E0,-4.902455292E0,-9.054970093E0,-1.062191162E0,1.035156033E1
9.463143333E0,-4.527934113E0,-8.777147827E0,-3.891906738E-2,9.876336669E0
9.473223333E0,-4.137994995E0,-8.411158905E0,6.839277649E-1,9.398848541E0
9.483303333E0,-3.939807129E0,-7.973768463E0,1.227896576E0,8.978351392E0
9.493382333E0,-4.075425110E0,-7.583380280E0,1.628912659E0,8.761854983E0
9.503462333E0,-4.174519043E0,-7.239245911E0,1.923649750E0,8.575180404E0
9.513541333E0,-4.098477173E0,-7.056925049E0,2.039957886E0,8.411844890E0
9.523621333E0,-4.011657715E0,-7.087910614E0,2.126777344E0,8.417544557E0
9.533701333E0,-4.090244293E0,-7.315287781E0,2.073338470E0,8.633786313E0
9.543780333E0,-4.107608185E0,-7.876919861E0,1.727856903E0,9.050071877E0
9.553860333E0,-3.781885529E0,-8.574169922E0,1.096769257E0,9.435144451E0
9.563940333E0,-3.247945862E0,-9.022337952E0,2.939886475E-1,9.593652264E0
9.574019333E0,-2.901566162E0,-9.381441193E0,-5.674699402E-1,9.836287266E0
9.584099333E0,-2.677332458E0,-9.627978516E0,-1.365759888E0,1.008619747E1
9.594179333E0,-2.444566498E0,-9.741442566E0,-2.014361115E0,1.024349839E1
9.604258333E0,-2.213896179E0,-9.774074707E0,-2.342628479E0,1.029183078E1
9.614338333E0,-2.120490417E0,-9.700876923E0,-2.155367889E0,1.016115660E1
9.624417333E0,-2.212548981E0,-9.519903259E0,-1.719773712E0,9.923787215E0
9.634497333E0,-2.469115448E0,-9.290729828E0,-1.271755371E0,9.696986829E0
9.644577333E0,-2.856360168E0,-9.109606476E0,-8.027806091E-1,9.580614817E0
9.654656333E0,-3.053649902E0,-8.963360596E0,-4.743635559E-1,9.481119748E0
9.664736333E0,-3.027454376E0,-8.877439270E0,-2.360591125E-1,9.382437418E0
9.674815333E0,-2.908302155E0,-8.767717438E0,-2.888992310E-2,9.237528085E0
9.684895333E0,-2.708467712E0,-8.664881287E0,7.200027466E-2,9.078609425E0
9.694975333E0,-2.600991211E0,-8.540489960E0,1.137634277E-1,8.928497418E0
9.705054333E0,-2.256707153E0,-8.376730499E0,-1.161584473E-1,8.676164695E0
9.715134333E0,-1.503922577E0,-8.127049713E0,-1.125659180E0,8.341332552E0
9.725214333E0,-8.665480042E-1,-7.706873474E0,-2.188149719E0,8.058213411E0
9.735293333E0,-4.754113770E-1,-7.489375763E0,-3.135230255E0,8.133045804E0
9.745373333E0,-1.236428833E-1,-7.401508484E0,-3.154091034E0,8.046484055E0
9.755452333E0,-1.922003174E-1,-7.170239410E0,-7.999365234E-1,7.217282910E0
9.765532333E0,-8.970845032E-1,-6.791976013E0,2.312840424E0,7.230831874E0
9.775612333E0,-1.074615326E0,-6.417454834E0,3.584446106E0,7.428780420E0
9.785691333E0,-3.713777161E-1,-6.246210938E0,3.085234222E0,6.976513649E0
9.795771333E0,1.247505798E0,-6.455924835E0,1.120869141E0,6.670201183E0
9.805851333E0,3.506757660E0,-7.509284363E0,-2.787952423E0,8.744105423E0
9.815930333E0,5.568719788E0,-9.147926788E0,-6.294859772E0,1.242257880E1
9.826010333E0,4.941973114E0,-9.977501678E0,-6.156397705E0,1.272300557E1
9.836089333E0,1.766476593E0,-1.040935364E1,-2.099384308E0,1.076487330E1
9.846169333E0,-7.982899475E-1,-9.554032288E0,3.152444458E-1,9.592506391E0
9.856248875E0,-1.111289062E0,-7.993677063E0,-2.004331970E-1,8.073042167E0
9.866327875E0,-1.499880981E0,-7.473209381E0,-1.146465912E0,7.707975448E0
9.876407875E0,-5.495072937E-1,-7.576494598E0,-3.817062378E0,8.501481863E0
9.886487875E0,1.796264648E-2,-8.142317963E0,-4.837789764E0,9.471107341E0
9.896566875E0,5.792953491E-2,-9.158554688E0,-2.599045258E0,9.520373735E0
9.906646875E0,7.876620483E-1,-1.071307205E1,-1.274150391E0,1.081729095E1
9.916725875E0,2.105072479E0,-1.141346558E1,-5.876779175E-1,1.162083869E1
9.926805875E0,2.932551727E0,-1.162078445E1,-2.165397034E0,1.217913935E1
9.936885875E0,2.963836670E0,-1.160312119E1,-3.175795898E0,1.238960970E1
9.946964875E0,2.884801025E0,-1.114672028E1,-3.296295319E0,1.197651922E1
9.957044875E0,2.186054077E0,-1.109402985E1,-2.312990112E0,1.154150137E1
9.967124875E0,9.274713135E-1,-1.172302185E1,-2.207459564E0,1.196504585E1
9.977203875E0,-1.383123779E-1,-1.251203110E1,-2.223027191E0,1.270873331E1
9.987283875E0,-9.541159058E-1,-1.324610458E1,-2.422412567E0,1.349954468E1
9.997362875E0,-1.173409882E0,-1.395338379E1,-2.418969727E0,1.421003957E1