"Time (s)","Acceleration x (m/s^2)","Acceleration y (m/s^2)","Acceleration z (m/s^2)","Absolute acceleration (m/s^2)"
3.362499956E-5,4.075425110E0,8.272247772E0,4.357139282E0,1.019920760E1
1.004162500E-2,4.616998901E0,7.458988953E0,5.160069580E0,1.017740208E1
2.004962500E-2,5.226082306E0,6.850953369E0,5.793701935E0,1.038337520E1
3.005862500E-2,5.780080261E0,6.260581055E0,5.787864075E0,1.030065889E1
4.006662500E-2,6.121969299E0,5.711223450E0,5.048252106E0,9.776575613E0
5.007462500E-2,6.156547394E0,5.434299316E0,3.596121826E0,8.964751924E0
6.008362500E-2,5.456902313E0,5.956263885E0,1.931134186E0,8.305669243E0
7.009162500E-2,4.352199554E0,7.316335602E0,8.006849670E-1,8.550526534E0
8.009962500E-2,3.122357025E0,8.633296967E0,6.948550415E-1,9.206831889E0
9.010762500E-2,2.074835358E0,9.604776764E0,1.383722534E0,9.923273981E0
1.001166250E-1,1.349743195E0,1.004381378E1,2.345921631E0,1.040208394E1
1.101246250E-1,9.297166443E-1,9.891280975E0,3.054697723E0,1.039389198E1
1.201326250E-1,8.220904541E-1,9.256151733E0,3.613635406E0,9.970483362E0
1.301416250E-1,1.052910461E0,8.373137970E0,3.946543121E0,9.316290169E0
1.401496250E-1,1.521885223E0,7.631280670E0,3.858526154E0,8.685666548E0
1.501576250E-1,1.735940094E0,7.143594818E0,3.742218018E0,8.249159389E0
1.601656250E-1,1.883084106E0,6.645580444E0,3.817810822E0,7.892111547E0
1.701746250E-1,2.228565674E0,6.184090118E0,4.106859741E0,7.750856242E0
1.801826250E-1,2.760260010E0,5.904920654E0,4.558470612E0,7.954041587E0
1.901906250E-1,3.449277191E0,5.861510925E0,4.974305878E0,8.426063282E0
2.001996250E-1,4.222868500E0,6.220763855E0,5.336103516E0,9.219789696E0
2.102076250E-1,4.985981598E0,7.023394775E0,5.651647339E0,1.030190295E1
2.202156250E-1,5.672304382E0,8.274193726E0,5.768254852E0,1.157195242E1
2.302246250E-1,6.188730469E0,9.510023804E0,5.685327301E0,1.269109468E1
2.402326250E-1,6.529571686E0,1.056233551E1,5.637875977E0,1.363759082E1
2.502406250E-1,6.743177490E0,1.114731903E1,5.561834106E0,1.416570375E1
2.602496250E-1,6.844067688E0,1.121333176E1,5.288203125E0,1.416139696E1
2.702576250E-1,6.786886597E0,1.078941330E1,4.741090851E0,1.359967689E1
2.802656250E-1,6.577472076E0,1.013003448E1,3.882775726E0,1.268687057E1
2.902736250E-1,6.259682922E0,9.354646912E0,2.965782623E0,1.163997061E1
3.002826250E-1,5.933361511E0,8.471932526E0,2.149679718E0,1.056406846E1
3.102906250E-1,5.601351929E0,7.837102661E0,1.575473785E0,9.761016299E0
3.202986250E-1,5.344935150E0,7.865543518E0,1.326242065E0,9.601771952E0
3.303076250E-1,5.223687286E0,9.007818146E0,1.250649261E0,1.048769852E1
3.403156250E-1,5.346132660E0,1.087563400E1,1.266516266E0,1.218460557E1
3.503236250E-1,5.345084839E0,1.295076874E1,1.145268402E0,1.405716837E1
3.603316250E-1,5.000351715E0,1.458312424E1,1.073118439E0,1.545388666E1
3.703406250E-1,4.228556671E0,1.538500671E1,8.936416626E-1,1.598054187E1
3.803486250E-1,3.168610840E0,1.502590347E1,6.909631348E-1,1.537189968E1
3.903566250E-1,2.193688202E0,1.349608475E1,6.801855469E-1,1.369011409E1
4.003656250E-1,1.481169891E0,1.141810593E1,8.211923218E-1,1.154302231E1
4.103736250E-1,1.016087036E0,9.780661011E0,1.014739838E0,9.885517670E0
4.203816250E-1,6.221063232E-1,8.501870270E0,1.200204163E0,8.608676112E0
4.303906250E-1,-3.936813354E-2,7.577542419E0,9.255253601E-1,7.633956783E0
4.403986250E-1,-8.068222046E-1,7.115603027E0,6.755451965E-1,7.192991716E0
4.504066250E-1,-7.620652771E-1,7.203470306E0,4.480183411E-1,7.257509792E0
4.604146250E-1,-3.068618774E-1,7.728129272E0,2.698887634E-1,7.738926683E0
4.704236250E-1,2.992277527E-1,8.600814514E0,3.210823059E-1,8.612005655E0
4.804316250E-1,7.583230591E-1,9.527986450E0,6.598278809E-1,9.580863870E0
4.904396250E-1,9.900411987E-1,1.029723679E1,9.846524048E-1,1.039147763E1
5.004486250E-1,1.037642212E0,1.083342178E1,1.318009186E0,1.096252148E1
5.104572500E-1,9.595046997E-1,1.096784225E1,1.559756470E0,1.111966965E1
5.204652500E-1,8.735833740E-1,1.063658112E1,1.603315887E0,1.079215584E1
5.304742500E-1,8.690927124E-1,9.725725250E0,1.354233856E0,9.857941120E0
5.404822500E-1,8.337661743E-1,8.559051361E0,9.924362183E-1,8.656642298E0
5.504902500E-1,8.946894836E-1,7.511230316E0,7.726931763E-1,7.603690215E0
5.604982500E-1,9.669891357E-1,6.885531464E0,5.014572144E-1,6.971159937E0
5.705072500E-1,9.870474243E-1,6.778504028E0,2.242337036E-1,6.853660353E0
5.805152500E-1,9.681866455E-1,7.161407776E0,4.131408691E-2,7.226676523E0
5.905232500E-1,1.004710693E0,7.884553986E0,-9.145980835E-2,7.948836394E0
6.005322500E-1,1.070723419E0,8.709787903E0,-1.477427673E-1,8.776598537E0
6.105402500E-1,1.113085327E0,9.402098236E0,-1.255888367E-1,9.468589269E0
6.205482500E-1,1.166673889E0,9.788594513E0,-1.871109009E-2,9.857893315E0
6.305572500E-1,1.238973541E0,9.742191010E0,1.362167358E-1,9.821603540E0
6.405652500E-1,1.353186035E0,9.367220764E0,4.320016479E-1,9.474310672E0
6.505732500E-1,1.483265533E0,8.955277405E0,8.583151245E-1,9.117772474E0
6.605822500E-1,1.564546509E0,8.640931091E0,1.263522491E0,8.871864798E0
6.705902500E-1,1.709145813E0,8.397986298E0,1.618434448E0,8.721621600E0
6.805982500E-1,1.910626831E0,8.207881622E0,1.944755859E0,8.648808644E0
6.906062500E-1,2.181264038E0,8.128247223E0,2.182162170E0,8.694144435E0
7.006152500E-1,2.543361053E0,8.281528473E0,2.317929840E0,8.968009703E0
7.106232500E-1,2.987786865E0,8.456215210E0,2.428998871E0,9.291635031E0
7.206312500E-1,3.374283142E0,8.510552216E0,2.448009338E0,9.476710160E0
7.306402500E-1,3.762276306E0,8.582552490E0,2.247127075E0,9.636623389E0
7.406482500E-1,4.147874451E0,8.696016541E0,1.994602203E0,9.838902585E0
7.506562500E-1,4.543651428E0,8.737779694E0,1.805994415E0,1.001275078E1
7.606652500E-1,4.884642334E0,8.774603119E0,1.439406738E0,1.014520982E1
7.706732500E-1,5.163213043E0,8.722062378E0,9.816586304E-1,1.018316231E1
7.806812500E-1,5.347779236E0,8.666827240E0,4.748126221E-1,1.019500290E1
7.906892500E-1,5.373825073E0,8.632398834E0,7.499404907E-2,1.016867394E1
8.006982500E-1,5.442382507E0,8.583600311E0,-5.703140259E-2,1.016370869E1
8.107062500E-1,5.466033325E0,8.581205292E0,3.607498169E-2,1.017427668E1
8.207142500E-1,5.408702545E0,8.629854126E0,3.707789612E-1,1.019146322E1
8.307232500E-1,5.397775269E0,8.652457123E0,8.901988220E-1,1.023686700E1
8.407312500E-1,5.420827332E0,8.684191132E0,1.366358643E0,1.032799499E1
8.507392500E-1,5.245242462E0,8.780440979E0,1.507215729E0,1.033829829E1
8.607482500E-1,5.203329620E0,8.893306274E0,1.562001801E0,1.042139075E1
8.707562500E-1,5.060376892E0,9.030271454E0,1.576820984E0,1.047089209E1
8.807642500E-1,4.835245056E0,9.139843597E0,1.631008301E0,1.046788058E1
8.907722500E-1,4.714296570E0,9.352401581E0,1.834734650E0,1.063288572E1
9.007812500E-1,4.616100769E0,9.740544434E0,2.098037109E0,1.098127278E1
9.107892500E-1,4.464316406E0,1.015518219E1,2.321522369E0,1.133345986E1
9.207972500E-1,4.307592316E0,1.057640625E1,2.529290314E0,1.169671023E1
9.308062500E-1,4.081113281E0,1.095242432E1,2.469564514E0,1.194612209E1
9.408142500E-1,3.816164246E0,1.109941864E1,2.199825439E0,1.194150056E1
9.508222500E-1,3.538791046E0,1.104642883E1,1.782493286E0,1.173558326E1
9.608312500E-1,3.275039520E0,1.080722626E1,1.360670471E0,1.137424491E1
9.708392500E-1,3.039279785E0,1.040127045E1,1.030157776E0,1.088507573E1
9.808472500E-1,2.845283203E0,9.992021484E0,7.921527100E-1,1.041938749E1
9.908562500E-1,2.950065308E0,9.625284119E0,6.038442993E-1,1.008531644E1
1.000864250E0,3.330723724E0,9.662257233E0,5.566923523E-1,1.023537209E1
1.010872250E0,3.847299500E0,1.001881577E1,-5.254074097E-2,1.073224782E1
1.020880250E0,4.331243134E0,1.026759842E1,-1.252295837E0,1.121389715E1
1.030889250E0,4.393813019E0,1.056098831E1,-1.948797455E0,1.160335635E1
1.040897250E0,3.785627747E0,1.084569626E1,-1.170865173E0,1.154690565E1
1.050905250E0,3.076252899E0,1.104059097E1,4.155358887E-1,1.146868131E1
1.060914250E0,2.556084595E0,1.064211960E1,1.008752289E0,1.099117187E1
1.070922250E0,2.088606720E0,9.875264282E0,6.773414612E-1,1.011641805E1
1.080930250E0,1.673968964E0,9.027127991E0,-8.761280823E-1,9.222733449E0
1.090939250E0,1.262025604E0,7.380701752E0,-6.842570801E0,1.014338416E1
1.100947250E0,5.281018066E-1,6.998097382E0,-8.894803162E0,1.133003891E1
1.110955250E0,-3.659889221E-1,8.331973572E0,-5.157225494E0,9.805748635E0
1.120964250E0,-5.769003296E-1,9.213340759E0,-1.892364807E0,9.423349007E0
1.130972250E0,-6.424639893E-1,9.902357941E0,8.153544617E-1,9.956618686E0
1.140980250E0,-2.694396973E-1,1.064810715E1,2.561772766E0,1.095524821E1
1.150988250E0,5.210664368E-1,1.092383377E1,2.904559937E0,1.131539318E1
1.160997250E0,1.006656647E0,1.179831528E1,3.249742126E0,1.227902378E1
1.171005250E0,1.547931061E0,1.261516663E1,3.273093567E0,1.312446803E1
1.181013250E0,2.162103882E0,1.305061111E1,2.910846863E0,1.354496855E1
1.191022250E0,3.224594421E0,1.305480240E1,1.179547119E0,1.349878536E1
1.201030250E0,5.129383392E0,1.302561310E1,-3.636388092E0,1.446376469E1
1.211038250E0,6.735094299E0,1.317455338E1,-7.737859039E0,1.669744934E1
1.221047250E0,7.383396149E0,1.223286163E1,-7.051386566E0,1.593359642E1
1.231055250E0,7.073989563E0,9.956096191E0,-2.744692383E0,1.251792778E1
1.241063250E0,6.710545349E0,7.708819427E0,3.628454590E-1,1.022687502E1
1.251072250E0,6.483766937E0,5.987848206E0,3.224444733E0,9.396307980E0
1.261080250E0,6.214177551E0,4.640649719E0,5.842201080E0,9.709940572E0
1.271088250E0,5.839356995E0,3.822151794E0,7.862250366E0,1.051294037E1
1.281096250E0,5.498515778E0,3.165617065E0,8.871601410E0,1.090688401E1
1.291105250E0,4.882247314E0,3.104843445E0,8.951984253E0,1.065900623E1
1.301113250E0,3.642675018E0,4.160897369E0,7.264992371E0,9.130293662E0
1.311121250E0,2.161355438E0,5.665867767E0,4.525688782E0,7.566728080E0
1.321130250E0,1.080004120E0,7.073989563E0,2.700085144E0,7.648411405E0
1.331138250E0,1.794767761E-1,8.333320770E0,1.616189117E0,8.490495524E0
1.341146250E0,-6.346801758E-1,9.295370178E0,1.163680115E0,9.389402382E0
1.351155250E0,-1.176253967E0,1.005384293E1,1.436562653E0,1.022384679E1
1.361163250E0,-1.444945221E0,1.055036041E1,2.018851776E0,1.083853007E1
1.371171250E0,-1.456920319E0,1.050680099E1,2.636617126E0,1.093010676E1
1.381180250E0,-7.455995178E-1,9.703122253E0,3.253035278E0,1.026103010E1
1.391188250E0,3.969744873E-1,8.798403625E0,3.726650391E0,9.563337191E0
1.401196250E0,1.135239258E0,8.094417572E0,4.207300873E0,9.192918179E0
1.411204250E0,1.772164764E0,7.700287170E0,4.681664429E0,9.184387420E0
1.421213250E0,2.341430969E0,7.354057159E0,5.088368683E0,9.244238830E0
1.431221250E0,3.022963715E0,6.904242554E0,5.507646790E0,9.334936958E0
1.441229250E0,3.756887512E0,6.508465576E0,5.888155518E0,9.546973517E0
1.451238250E0,4.616849213E0,6.414461060E0,5.923631744E0,9.876741385E0
1.461246250E0,5.511538696E0,6.655310211E0,5.638774109E0,1.031823562E1
1.471254250E0,6.325845337E0,7.107968903E0,5.152734833E0,1.082082332E1
1.481263250E0,6.892417145E0,7.744295654E0,4.422702942E0,1.127119473E1
1.491271250E0,7.314090271E0,8.287965088E0,3.632496185E0,1.163534745E1
1.501279250E0,7.652087402E0,8.647068329E0,3.098706207E0,1.195525878E1
1.511288000E0,7.827073517E0,9.053323517E0,2.886297913E0,1.231082703E1
1.521296000E0,7.784861298E0,9.567803650E0,2.838996277E0,1.265728375E1
1.531304000E0,7.490573273E0,1.005204666E1,2.818937988E0,1.284907551E1
1.541313000E0,7.106771393E0,1.021386017E1,2.855012970E0,1.276637138E1
1.551321000E0,6.723418579E0,1.030023056E1,2.958896942E0,1.265125204E1
1.561329000E0,6.392456818E0,1.083521805E1,2.955603790E0,1.292288853E1
1.571337000E0,6.180946655E0,1.196521820E1,2.809357910E0,1.375729043E1
1.581346000E0,6.098917236E0,1.347288300E1,2.610421600E0,1.501764524E1
1.591354000E0,5.879323883E0,1.497321304E1,2.371668091E0,1.626002361E1
1.601362000E0,5.202281799E0,1.537318130E1,2.074835358E0,1.636164359E1
1.611371000E0,3.985462189E0,1.369816452E1,1.103954315E0,1.430882019E1
1.621379000E0,2.685565338E0,1.152812714E1,-3.478765869E-1,1.184191685E1
1.631387000E0,1.689985657E0,9.668095093E0,-7.246430969E-1,9.841403450E0
1.641396000E0,1.059945831E0,8.023165741E0,-7.914042664E-1,8.131481684E0
1.651404000E0,6.153703308E-1,6.779252472E0,-5.466632080E-1,6.829039858E0
1.661412000E0,5.093907166E-1,6.165528717E0,1.483415222E-1,6.188313863E0
1.671421000E0,6.366261292E-1,6.134393463E0,9.898915100E-1,6.246275786E0
1.681429000E0,7.991880798E-1,6.807843018E0,1.748364258E0,7.074051577E0
1.691437000E0,1.020428009E0,8.134833527E0,2.428998871E0,8.550837698E0
1.701446000E0,1.271605682E0,9.830806732E0,2.733166351E0,1.028260377E1
1.711454000E0,1.467398529E0,1.119941071E1,2.619253235E0,1.159484998E1
1.721462000E0,1.570683746E0,1.205143890E1,2.345322876E0,1.237759130E1
1.731470000E0,1.637744293E0,1.234902008E1,2.097138977E0,1.263243821E1
1.741479000E0,1.614692230E0,1.199111435E1,1.795965271E0,1.223190687E1
1.751487000E0,1.493144989E0,1.082683548E1,1.313219147E0,1.100792410E1
1.761495000E0,1.345851288E0,9.321565704E0,8.704399109E-1,9.458359716E0
1.771504000E0,1.293460236E0,7.983647919E0,5.920188904E-1,8.109387143E0
1.781512000E0,1.250798950E0,7.077881470E0,2.727328491E-1,7.192724610E0
1.791520000E0,1.167422333E0,6.638096008E0,6.885681152E-3,6.739973363E0
1.801529000E0,1.162033539E0,6.662046204E0,-1.543290710E-1,6.764391992E0
1.811537000E0,1.154549103E0,7.057972870E0,-2.505789185E-1,7.156168979E0
1.821545000E0,1.075962524E0,7.761958923E0,-2.386038208E-1,7.839810805E0
1.831554000E0,9.984237671E-1,8.564589844E0,-1.504371643E-1,8.623901701E0
1.841562000E0,9.011260986E-1,9.283395081E0,3.098556519E-2,9.327079531E0
1.851570000E0,7.908055115E-1,9.761500854E0,2.392025757E-1,9.796401899E0
1.861579000E0,6.858737183E-1,9.951605530E0,4.755610657E-1,9.986542630E0
1.871587000E0,6.662644958E-1,9.765093384E0,8.393046570E-1,9.823715666E0
1.881595000E0,7.843688965E-1,9.304650879E0,1.226100311E0,9.417806779E0
1.891603000E0,9.255253601E-1,8.805588684E0,1.498833160E0,8.980060696E0
1.901612000E0,1.073417816E0,8.455915833E0,1.749711456E0,8.701507258E0
1.911620000E0,1.259780273E0,8.314160614E0,1.936522980E0,8.629161854E0
1.921628000E0,1.493743744E0,8.362061005E0,2.146236877E0,8.761373600E0
1.931637000E0,1.760189667E0,8.531358948E0,2.393223267E0,9.033818172E0
1.941645000E0,2.050585785E0,8.734785919E0,2.621797943E0,9.347470865E0
1.951653000E0,2.323618011E0,8.904233551E0,2.810106354E0,9.621916312E0
1.961662000E0,2.585872650E0,8.980275421E0,2.877915344E0,9.778265732E0
1.971670000E0,2.833607483E0,8.919052734E0,2.817890167E0,9.773399513E0
1.981678000E0,3.075055389E0,8.766819305E0,2.630030823E0,9.655576032E0
1.991687000E0,3.372636566E0,8.544681244E0,2.263143768E0,9.460870715E0
2.001695000E0,3.683540039E0,8.377778320E0,1.762434998E0,9.319968558E0
2.011703000E0,4.037404175E0,8.310418396E0,1.053060150E0,9.299065656E0
2.021712000E0,4.310137024E0,8.347541199E0,4.140390015E-1,9.403730830E0
2.031720000E0,4.646936646E0,8.369844818E0,-3.876937866E-1,9.581160104E0
2.041728000E0,5.048551483E0,8.345744934E0,-1.091829529E0,9.814857223E0
2.051736000E0,5.242098999E0,8.448281708E0,-1.417552185E0,1.004303340E1
2.061745000E0,5.340743866E0,8.556955719E0,-1.138233032E0,1.015089211E1
2.071753000E0,5.308111725E0,8.625513153E0,-3.065625000E-1,1.013259630E1
2.081761000E0,5.268893280E0,8.798104248E0,4.514611816E-1,1.026507145E1
2.091770000E0,5.441334686E0,9.023535461E0,1.057550812E0,1.059012413E1
2.101778000E0,5.585035858E0,9.289083252E0,1.455273743E0,1.093606487E1
2.111786000E0,5.804030457E0,9.496551819E0,1.829944611E0,1.127918274E1
2.121795000E0,6.024222565E0,9.602082367E0,2.250420227E0,1.155662730E1
2.131803000E0,5.927373962E0,9.809401245E0,2.340233459E0,1.169764111E1
2.141811000E0,5.532794495E0,1.001731888E1,2.228116608E0,1.165860180E1
2.151820000E0,5.003195801E0,9.982890472E0,1.801204376E0,1.131080933E1
2.161828000E0,4.511468353E0,9.875713348E0,1.396895142E0,1.094688891E1
2.171836000E0,4.165388031E0,9.820178833E0,1.143771515E0,1.072821435E1
2.181845000E0,3.935615845E0,9.867929535E0,9.714797974E-1,1.066812441E1
2.191853000E0,3.863166504E0,1.003498215E1,8.216413879E-1,1.078424855E1
2.201861000E0,4.066593475E0,1.033046768E1,6.357279968E-1,1.112024708E1
2.211870000E0,4.396357727E0,1.080153809E1,3.053649902E-1,1.166595191E1
2.221878000E0,4.541705475E0,1.133547775E1,-5.557942200E-1,1.222411763E1
2.231886000E0,4.302951965E0,1.173035660E1,-2.764002228E0,1.279673278E1
2.241895000E0,3.782633972E0,1.177526321E1,-4.269122314E0,1.308398062E1
2.251903000E0,3.162922668E0,1.155956177E1,-3.659589844E0,1.253076797E1
2.261911000E0,2.725382538E0,1.109013794E1,-1.655257874E0,1.153944315E1
2.271919000E0,2.435884552E0,1.037507492E1,1.417552185E-1,1.065813341E1
2.281928000E0,2.122136993E0,9.675280151E0,1.025966492E0,9.958268859E0
2.291936000E0,1.725312195E0,9.235644379E0,1.254690857E0,9.478822628E0
2.301944000E0,1.109642487E0,9.001680908E0,1.048270111E0,9.130193637E0
2.311953000E0,4.102967834E-1,8.728798370E0,-1.474134521E0,8.861903691E0
2.321961000E0,1.986369324E-1,8.574918365E0,-9.185798035E0,1.256771925E1
2.331969000E0,-8.562194824E-2,1.063179108E1,-6.348598022E0,1.238333596E1
2.341978000E0,-4.236190796E-2,1.214574280E1,-8.542735291E-1,1.217582219E1
2.351986000E0,7.601193237E-1,1.197285233E1,1.142723694E0,1.205125685E1
2.361994000E0,1.412762146E0,1.209469894E1,1.830094299E0,1.231368688E1
2.372003000E0,2.153571625E0,1.242206818E1,1.461710358E0,1.269181806E1
2.382011000E0,2.820285187E0,1.239662109E1,2.619552612E-1,1.271608602E1
2.392019000E0,3.415148163E0,1.209110641E1,-1.504970398E0,1.265397278E1
2.402028000E0,4.055516510E0,1.163051422E1,-3.546125793E0,1.281760833E1
2.412036000E0,4.585264893E0,1.102083206E1,-4.408332825E0,1.272465291E1
2.422044000E0,4.758754120E0,1.002480331E1,-3.126697998E0,1.152903563E1
2.432053000E0,4.682562561E0,8.643775177E0,-1.675016785E-1,9.832054631E0
2.442061000E0,4.812192993E0,7.205116882E0,2.329455872E0,8.972027382E0
2.452069000E0,5.198689270E0,6.020779724E0,4.133055267E0,8.964279361E0
2.462078000E0,5.401966553E0,5.176385651E0,6.012546844E0,9.598277481E0
2.472086000E0,5.628445587E0,4.342170410E0,7.443720703E0,1.029285293E1
2.482094000E0,5.933960266E0,3.876488800E0,8.233628082E0,1.086423864E1
2.492102000E0,5.867947540E0,4.189038849E0,7.787256317E0,1.061236146E1
2.502111000E0,5.252277832E0,5.429509277E0,5.868695984E0,9.565959752E0
2.512119167E0,4.088148651E0,6.817572784E0,2.986439667E0,8.491824300E0
2.522127167E0,3.022514648E0,8.009394379E0,9.412426758E-1,8.612312749E0
2.532136167E0,2.037712555E0,9.108109589E0,-1.146615601E-1,9.333974502E0
2.542144167E0,1.083446960E0,9.718989258E0,-1.978884888E-1,9.781194680E0
2.552152167E0,4.132905579E-1,9.779164124E0,5.882766724E-1,9.805556052E0
2.562161167E0,-2.185455322E-2,9.457632751E0,2.027982788E0,9.672642300E0
2.572169167E0,-2.104623413E-1,8.902137909E0,3.426374817E0,9.541089987E0
2.582177167E0,-1.354682922E-1,8.259673920E0,4.475393372E0,9.395196153E0
2.592186167E0,2.546205139E-1,7.635172577E0,4.974305878E0,9.116162068E0
2.602194167E0,9.753717041E-1,7.217091980E0,5.103636932E0,8.892967814E0
2.612202167E0,1.487456818E0,7.037016449E0,5.139861603E0,8.840266149E0
2.622211167E0,2.029329987E0,7.060218201E0,5.236560516E0,9.021442638E0
2.632219167E0,2.702180786E0,7.283104706E0,5.442831573E0,9.485241731E0
2.642227167E0,3.486100616E0,7.575746155E0,5.643264771E0,1.006932295E1
2.652236167E0,4.388424225E0,7.793992310E0,5.582940216E0,1.054389894E1
2.662244167E0,5.272635498E0,7.930358734E0,5.357359314E0,1.092669088E1
2.672252167E0,6.006409607E0,8.043074341E0,4.970114594E0,1.120134100E1
2.682261167E0,6.464906158E0,8.118667145E0,4.569547577E0,1.133968840E1
2.692269167E0,6.714886322E0,8.080346832E0,4.330494690E0,1.136375323E1
2.702277167E0,6.828050995E0,7.969277802E0,4.188140717E0,1.129921200E1
2.712286167E0,6.784940643E0,7.919431458E0,3.986659698E0,1.116450938E1
2.722294167E0,6.615493011E0,8.066425781E0,3.700903931E0,1.106926658E1
2.732302167E0,6.316265259E0,8.340056763E0,3.312312012E0,1.097374888E1
2.742310167E0,5.987399139E0,8.516090698E0,2.931354218E0,1.081506296E1
2.752319167E0,5.661227417E0,8.449030151E0,2.679128723E0,1.051728753E1
2.762327167E0,5.400769043E0,8.360713806E0,2.682122498E0,1.030842484E1
2.772335167E0,5.169350281E0,8.450377350E0,2.793790283E0,1.029253729E1
2.782344167E0,5.046755219E0,9.047186279E0,2.939138031E0,1.076846554E1
2.792352167E0,5.125790863E0,1.034558624E1,3.035687256E0,1.193818595E1
2.802360167E0,5.326373749E0,1.237237152E1,2.946472778E0,1.378867420E1
2.812369167E0,5.458548889E0,1.476559479E1,2.483784943E0,1.593699260E1
2.822377167E0,5.265300751E0,1.685015991E1,1.757195892E0,1.774088550E1
2.832385167E0,4.578079834E0,1.758079056E1,1.001716919E0,1.819468187E1
2.842394167E0,3.519481201E0,1.613539627E1,2.613565063E-1,1.651684195E1
2.852402167E0,2.519859924E0,1.340881622E1,-2.715353394E-1,1.364623677E1
2.862410167E0,1.641486511E0,1.076651093E1,-1.000818787E0,1.093681278E1
2.872419167E0,8.175997925E-1,8.427325287E0,-1.368154907E0,8.576720163E0
2.882427167E0,3.432362366E-1,6.536307678E0,-1.058299255E0,6.630318732E0
2.892435167E0,1.187031555E-1,5.451962585E0,-2.622546387E-1,5.459557122E0
2.902444167E0,-4.191284180E-2,5.168901215E0,7.542814636E-1,5.223814409E0
2.912452167E0,2.047741699E-1,5.663622437E0,1.402134247E0,5.838195955E0
2.922460167E0,8.740324402E-1,7.001240845E0,2.032473450E0,7.342496469E0
2.932469167E0,1.425934753E0,8.661288757E0,2.562371521E0,9.144231005E0
2.942477167E0,1.689237213E0,1.020143600E1,2.884651337E0,1.073517733E1
2.952485167E0,1.801503754E0,1.152977371E1,3.074157257E0,1.206778938E1
2.962494167E0,1.751358032E0,1.234452942E1,3.160078583E0,1.286237763E1
2.972502167E0,1.541344757E0,1.243254639E1,2.940185852E0,1.286812520E1
2.982510167E0,1.290616150E0,1.146720383E1,2.310295715E0,1.176859889E1
2.992519167E0,1.117426300E0,9.769584045E0,1.584006042E0,9.960044633E0
3.002527167E0,1.031654663E0,8.266409912E0,9.859996033E-1,8.388685201E0
3.012535167E0,1.075962524E0,7.294031982E0,3.884422302E-1,7.383189371E0
3.022543167E0,1.097966766E0,6.756948853E0,-4.864883423E-2,6.845747258E0
3.032552167E0,1.072220306E0,6.689738617E0,-2.772235107E-1,6.780789926E0
3.042560167E0,1.064586182E0,7.057224426E0,-4.026626587E-1,7.148419235E0
3.052568167E0,1.042581940E0,7.663912811E0,-4.243675232E-1,7.746136100E0
3.062577167E0,1.041234741E0,8.256231079E0,-3.679348755E-1,8.329759750E0
3.072585167E0,1.001866608E0,8.749156036E0,-2.258802795E-1,8.809227546E0
3.082593167E0,1.008303223E0,9.035211182E0,6.331832886E-2,9.091519438E0
3.092602167E0,1.132694550E0,8.999884644E0,3.981719971E-1,9.079617915E0
3.102610167E0,1.331181793E0,8.816216583E0,7.048841858E-1,8.943969003E0
3.112618167E0,1.445843353E0,8.763077087E0,1.070424042E0,8.945825321E0
3.122627167E0,1.621877289E0,8.749754791E0,1.486858063E0,9.022163917E0
3.132635167E0,1.828896790E0,8.785829773E0,1.931433563E0,9.179657067E0
3.142643167E0,2.051783295E0,8.849148102E0,2.288141785E0,9.367648032E0
3.152652167E0,2.358046417E0,8.905431061E0,2.545456696E0,9.557532897E0
3.162660167E0,2.695893860E0,9.014254761E0,2.697091370E0,9.787693010E0
3.172668167E0,3.041076050E0,9.102421417E0,2.739602966E0,9.980362900E0
3.182677167E0,3.391048279E0,9.136999512E0,2.677033081E0,1.010695180E1
3.192685167E0,3.763174438E0,9.087302856E0,2.457439728E0,1.013802570E1
3.202693167E0,4.027674408E0,9.005123749E0,2.095492401E0,1.008491464E1
3.212702167E0,4.276756439E0,8.927435303E0,1.601669312E0,1.002771616E1
3.222710167E0,4.592749329E0,8.777147827E0,1.054107971E0,9.962068761E0
3.232718167E0,4.946613464E0,8.572673035E0,3.128494263E-1,9.902402864E0
3.242727167E0,5.217550049E0,8.436456299E0,-6.156697083E-1,9.938595101E0
3.252735167E0,5.649701385E0,8.189918976E0,-1.637893982E0,1.008348131E1
3.262743167E0,5.614823914E0,8.092172241E0,-9.857002258E-1,9.898540503E0
3.272752167E0,5.395230560E0,8.037386169E0,4.315525818E-1,9.689908507E0
3.282760167E0,5.201832733E0,8.200995941E0,1.327888641E0,9.801973600E0
3.292768167E0,5.181774445E0,8.199199677E0,1.900747375E0,9.883850581E0
3.302777167E0,5.152585144E0,8.177494812E0,2.166145477E0,9.905187595E0
3.312785167E0,5.134622498E0,8.150401154E0,2.134561157E0,9.866597108E0
3.322793167E0,4.894372101E0,8.209528198E0,1.767524414E0,9.719844343E0
3.332802167E0,4.615502014E0,8.362510071E0,1.334474945E0,9.644441762E0
3.342810167E0,4.454137573E0,8.608598328E0,1.060843964E0,9.750522889E0
3.352818167E0,4.393962708E0,9.023236084E0,1.021475830E0,1.008806773E1
3.362827167E0,4.356091461E0,9.648485870E0,1.125509491E0,1.064591866E1
3.372835167E0,4.280049591E0,1.033825150E1,1.268162842E0,1.126083947E1
3.382843167E0,4.172124023E0,1.092772568E1,1.408870239E0,1.178162649E1
3.392851167E0,4.053869934E0,1.134550690E1,1.552721100E0,1.214764714E1
3.402860167E0,3.951632538E0,1.161240189E1,1.756746826E0,1.239150664E1
3.412868167E0,3.905528412E0,1.172646469E1,2.021097107E0,1.252389555E1
3.422876167E0,4.021387482E0,1.152423523E1,2.285746765E0,1.241789810E1
3.432885167E0,4.278103638E0,1.143756546E1,2.531236267E0,1.247105575E1
3.442893167E0,4.504283295E0,1.178963333E1,2.567910004E0,1.287937048E1
3.452901167E0,4.785099335E0,1.210158463E1,2.144141235E0,1.318874019E1
3.462910167E0,5.108576660E0,1.202763840E1,7.795788574E-1,1.309081297E1
3.472918167E0,5.162314911E0,1.169712570E1,-1.196461945E0,1.284148613E1
3.482926167E0,4.531526642E0,1.138352783E1,-1.945803680E0,1.240586924E1
3.492935167E0,3.709585876E0,1.091051147E1,-1.263821869E0,1.159299503E1
3.502943167E0,3.216361542E0,1.017643799E1,-3.924838257E-1,1.067983686E1
3.512950500E0,2.813698883E0,9.436975708E0,7.858657837E-2,9.847821473E0
3.522959500E0,2.453098755E0,8.752898254E0,3.131488037E-1,9.095547456E0
3.532967500E0,2.208657074E0,8.023914185E0,3.733236694E-1,8.330710382E0
3.542975500E0,1.890418854E0,7.512727203E0,-4.311035156E-2,7.747038917E0
3.552984500E0,1.308429108E0,7.211254120E0,-1.633103943E0,7.508741652E0
3.562992500E0,7.101232910E-1,6.472839661E0,-6.284980316E0,9.050022427E0
3.573000500E0,2.266287231E-1,6.242768097E0,-1.040022263E1,1.213211213E1
3.583009500E0,-4.929249573E-1,8.261919250E0,-6.146518250E0,1.030931478E1
3.593017500E0,-9.226812744E-1,1.056952057E1,-4.596940613E-1,1.061967158E1
3.603025500E0,-8.101153564E-1,1.206790466E1,2.765050049E0,1.240709924E1
3.613034500E0,-3.441343689E-1,1.263013550E1,3.790118408E0,1.319104805E1
3.623042500E0,4.272116089E-1,1.263208145E1,3.495531006E0,1.311376104E1
3.633050500E0,1.227297821E0,1.252445526E1,2.755919037E0,1.288267555E1
3.643059500E0,2.146985321E0,1.211326035E1,1.945653992E0,1.245496654E1
3.653067500E0,3.495680695E0,1.134236343E1,-3.905378723E-1,1.187524785E1
3.663075500E0,5.469925232E0,1.094014984E1,-4.826263733E0,1.314913618E1
3.673084500E0,7.062613220E0,1.105705673E1,-6.136189728E0,1.448419254E1
3.683092500E0,7.840695190E0,1.075737991E1,-3.367846527E0,1.373099100E1
3.693100500E0,8.404422913E0,9.704170074E0,-5.884263611E-1,1.285112785E1
3.703109500E0,8.691226501E0,8.372539215E0,2.062560883E0,1.224299753E1
3.713117500E0,8.678952026E0,7.039411469E0,4.617447968E0,1.209125088E1
3.723125500E0,8.423583069E0,5.876779175E0,6.499184875E0,1.215453369E1
3.733134500E0,8.035589905E0,5.140909424E0,7.280709686E0,1.200034951E1
3.743142500E0,7.364235992E0,4.313579865E0,7.336842957E0,1.125469713E1
3.753150500E0,5.710924072E0,4.339326324E0,6.104306030E0,9.418437175E0
3.763159500E0,3.667373657E0,5.335654449E0,3.649411011E0,7.432162449E0
3.773167500E0,2.166893921E0,6.631958771E0,2.209854584E0,7.318590280E0
3.783175500E0,1.046024780E0,7.883805542E0,2.016307068E0,8.204514115E0
3.793184500E0,1.571731567E-1,8.786278839E0,2.209704895E0,9.061246877E0
3.803192500E0,-5.029541016E-1,9.006021881E0,2.490670624E0,9.357608301E0
3.813200500E0,-1.011895752E0,8.826694794E0,2.682272186E0,9.280574232E0
3.823209500E0,-1.334624634E0,8.498726807E0,2.993325348E0,9.108763741E0
3.833217500E0,-1.299747162E0,7.992629242E0,3.329675903E0,8.755467235E0
3.843225500E0,-8.963360596E-1,7.430548096E0,3.459605713E0,8.245322008E0
3.853234500E0,-7.738906860E-2,6.758745117E0,3.641926575E0,7.677906863E0
3.863242500E0,4.222718811E-1,6.374344482E0,3.948788452E0,7.510227118E0
3.873250500E0,8.318202209E-1,6.114035797E0,4.470303955E0,7.619512849E0
3.883259500E0,1.448687439E0,6.048472137E0,5.227130127E0,8.124383045E0
3.893267500E0,2.232158203E0,6.140381012E0,5.859564972E0,8.776178603E0
3.903275500E0,3.233575745E0,6.514004059E0,6.079906769E0,9.479110047E0
3.913284500E0,4.346960449E0,7.293133850E0,6.088139648E0,1.044755047E1
3.923292500E0,5.498515778E0,8.230185242E0,5.836662598E0,1.149070299E1
3.933300500E0,6.586154022E0,9.114695892E0,5.332361298E0,1.244544829E1
3.943309500E0,7.533384247E0,9.648485870E0,4.786446533E0,1.314363832E1
3.953317500E0,8.203690338E0,9.643995209E0,4.322860565E0,1.337887522E1
3.963325500E0,8.648116150E0,9.308542786E0,4.049229584E0,1.333548432E1
3.973334500E0,8.746761017E0,8.815767517E0,3.752097473E0,1.297311916E1
3.983342500E0,8.447084198E0,8.183931427E0,3.264411621E0,1.220599641E1
3.993350500E0,7.813002777E0,7.680228882E0,2.856659546E0,1.132207719E1
4.003359500E0,6.968309326E0,7.742649078E0,2.695145416E0,1.075963561E1
4.013367500E0,6.323300629E0,8.585546265E0,2.786904602E0,1.102100598E1
4.023375500E0,5.973777466E0,1.006162674E1,2.798580322E0,1.203139234E1
4.033384500E0,5.955066376E0,1.218436249E1,2.710713043E0,1.383002061E1
4.043392500E0,5.973328400E0,1.472158630E1,2.319726105E0,1.605574304E1
4.053400500E0,5.802533569E0,1.686902069E1,1.762734375E0,1.792597242E1
4.063409500E0,5.297034760E0,1.810784454E1,4.827461243E-1,1.887288147E1
4.073417500E0,4.197271729E0,1.758543091E1,-2.285447388E0,1.822327468E1
4.083425500E0,2.946472778E0,1.441741882E1,-2.865341492E0,1.499179273E1
4.093433500E0,2.096091156E0,1.087593338E1,-1.851200409E0,1.122971362E1
4.103442500E0,1.749861145E0,8.286168823E0,-2.332150269E-1,8.472130608E0
4.113450500E0,1.745819550E0,6.493496704E0,1.395398254E0,6.867351865E0
4.123458500E0,1.899400177E0,5.421126709E0,2.483934631E0,6.258295861E0
4.133467500E0,2.049537964E0,4.901706848E0,3.039579163E0,6.120978466E0
4.143475500E0,1.931433563E0,4.889432373E0,3.105142822E0,6.105644641E0
4.153483500E0,1.685644684E0,5.570066986E0,2.994073792E0,6.544579597E0
4.163492500E0,1.540446625E0,6.850055237E0,3.041076050E0,7.651429676E0
4.173500500E0,1.517843628E0,8.430768127E0,3.054398346E0,9.094561548E0
4.183508500E0,1.510658569E0,9.887987823E0,2.931503906E0,1.042344030E1
4.193517500E0,1.485510864E0,1.102547241E1,2.655627594E0,1.143766333E1
4.203525500E0,1.412163391E0,1.163844772E1,2.299817505E0,1.194725204E1
4.213533500E0,1.163081360E0,1.177197006E1,1.798210602E0,1.196518277E1
4.223542500E0,8.104147339E-1,1.141376495E1,1.145418091E0,1.149968630E1
4.233550500E0,4.980143738E-1,1.064990341E1,5.126838684E-1,1.067386086E1
4.243558500E0,3.598516846E-1,9.718091125E0,1.657054138E-1,9.726162997E0
4.253567500E0,4.134402466E-1,8.827892303E0,-7.873626709E-2,8.837919142E0
4.263575500E0,4.260140991E-1,8.097411346E0,-1.564247131E-1,8.110118816E0
4.273583500E0,3.845503235E-1,7.711513824E0,-7.828720093E-2,7.721492945E0
4.283592500E0,3.287164307E-1,7.640860748E0,-1.796264648E-3,7.647928523E0
4.293600500E0,2.308200073E-1,7.797734528E0,9.340576172E-2,7.801709189E0
4.303608500E0,1.113684082E-1,8.188122711E0,2.477348328E-1,8.192626502E0
4.313617500E0,3.098556519E-2,8.812923431E0,4.372407532E-1,8.823817711E0
4.323625500E0,-4.101470947E-2,9.546248474E0,6.408174133E-1,9.567820499E0
4.333633500E0,-8.023315430E-2,1.020457947E1,8.619076538E-1,1.024122865E1
4.343642500E0,8.083190918E-2,1.056517960E1,1.177900543E0,1.063094555E1
4.353650500E0,3.499722290E-1,1.053075119E1,1.379231873E0,1.062645198E1
4.363658500E0,5.361849976E-1,1.027193939E1,1.396146698E0,1.038024368E1
4.373667500E0,7.584727478E-1,9.784403229E0,1.467548218E0,9.922878878E0
4.383675500E0,1.041234741E0,9.299711151E0,1.656455383E0,9.503296361E0
4.393683500E0,1.353635101E0,8.969946899E0,1.928888855E0,9.274313321E0
4.403692500E0,1.644330597E0,8.774303741E0,2.209255829E0,9.196360181E0
4.413700500E0,1.929936676E0,8.615034943E0,2.416425018E0,9.153283154E0
4.423708500E0,2.220033417E0,8.495882721E0,2.494562531E0,9.128604154E0
4.433717500E0,2.566263428E0,8.405321045E0,2.371817780E0,9.102782510E0
4.443725500E0,2.986739044E0,8.343798981E0,1.976040802E0,9.079885946E0
4.453733500E0,3.530857544E0,8.315657501E0,1.251697083E0,9.120518640E0
4.463742500E0,4.043840790E0,8.405470734E0,-1.116677856E-1,9.328293321E0
4.473750500E0,4.597090302E0,8.536598053E0,-1.641187134E0,9.833628057E0
4.483758500E0,5.116510162E0,8.537496185E0,-2.237996063E0,1.020177160E1
4.493767500E0,5.203479309E0,8.546926575E0,-1.426982574E0,1.010754323E1
4.503775500E0,4.974904633E0,8.587492218E0,-7.828720093E-2,9.924758314E0
4.513784667E0,4.834047546E0,8.593330078E0,1.135388947E0,9.924839826E0
4.523793667E0,4.717739410E0,8.739126892E0,1.917662201E0,1.011468399E1
4.533801667E0,4.727169800E0,8.790320435E0,2.269580383E0,1.023556851E1
4.543809667E0,4.759053497E0,8.757538605E0,2.273771667E0,1.022316537E1
4.553818667E0,4.796176300E0,8.666378174E0,2.020797729E0,1.010905739E1
4.563826667E0,4.891827393E0,8.534203033E0,1.703307953E0,9.983178584E0
4.573834667E0,4.982987823E0,8.407416687E0,1.475631409E0,9.883942081E0
4.583843667E0,5.016069031E0,8.192763062E0,1.354383545E0,9.701374639E0
4.593851667E0,4.983436890E0,7.964038696E0,1.303190002E0,9.484664452E0
4.603859667E0,4.683909760E0,8.166567535E0,1.213227081E0,9.492299821E0
4.613868667E0,4.373455353E0,8.634943542E0,1.253193970E0,9.760115616E0
4.623876667E0,4.211641846E0,9.160650330E0,1.363813934E0,1.017425329E1
4.633884667E0,4.052672424E0,9.695637817E0,1.446442108E0,1.060762656E1
4.643893667E0,3.864513702E0,1.010129425E1,1.451381836E0,1.091224637E1
4.653901667E0,3.658392334E0,1.034274216E1,1.394649811E0,1.105898720E1
4.663909667E0,3.495980072E0,1.048569489E1,1.349892883E0,1.113525414E1
4.673918667E0,3.333867188E0,1.059481796E1,1.323397980E0,1.118553621E1
4.683926667E0,3.254232788E0,1.065349594E1,1.365310822E0,1.122279290E1
4.693934667E0,3.311264191E0,1.029573990E1,1.452279968E0,1.091218803E1
4.703943667E0,3.510200500E0,9.810598755E0,1.514251099E0,1.052911734E1
4.713951667E0,3.734583893E0,9.822424164E0,1.624871063E0,1.063331271E1
4.723959667E0,4.017944641E0,1.020353165E1,1.624721375E0,1.108583135E1
4.733968667E0,4.424050140E0,1.059197388E1,1.156345367E0,1.153686547E1
4.743976667E0,4.865033112E0,1.091814560E1,2.311193848E-1,1.195524432E1
4.753984667E0,4.917873230E0,1.144160706E1,-8.449928284E-1,1.248238206E1
4.763993667E0,4.382586365E0,1.207658661E1,-1.145118713E-1,1.284772822E1
4.774001667E0,3.861519928E0,1.225756027E1,9.592053223E-1,1.288717172E1
4.784009667E0,3.411555634E0,1.165042282E1,1.047821045E0,1.218478530E1
4.794018667E0,2.940335541E0,1.066412384E1,4.279600525E-1,1.107033243E1
4.804026667E0,2.354453888E0,9.787995758E0,-4.507127380E-1,1.007727424E1
4.814034667E0,1.744771729E0,8.748407593E0,-1.676962738E0,9.076952562E0
4.824043667E0,9.662406921E-1,7.485633545E0,-3.678001556E0,8.396191166E0
4.834051667E0,1.004411316E-1,6.416407013E0,-5.884712677E0,8.706905918E0
4.844059667E0,-4.022135925E-1,6.845714264E0,-4.804109802E0,8.372875883E0
4.854068667E0,-7.782316589E-1,8.044421539E0,-1.934876404E0,8.310361551E0
4.864076667E0,-9.747729492E-1,8.866961060E0,6.378236389E-1,8.943153791E0
4.874084667E0,-8.922944641E-1,9.348509674E0,2.513572998E0,9.721567351E0
4.884093667E0,-3.586541748E-1,9.542356567E0,2.968027954E0,9.999719577E0
4.894101667E0,1.062789917E-1,9.887538757E0,2.867437134E0,1.029548025E1
4.904109667E0,5.037025452E-1,1.039917480E1,2.399510193E0,1.068429698E1
4.914118667E0,1.068328400E0,1.083491867E1,1.991458740E0,1.106809361E1
4.924126667E0,1.707948303E0,1.141017242E1,1.772164764E0,1.167260426E1
4.934134667E0,2.507136383E0,1.220442078E1,1.411414948E0,1.253896772E1
4.944143667E0,3.767665100E0,1.284763321E1,-7.476951599E-1,1.340954986E1
4.954151667E0,5.750292206E0,1.331541046E1,-4.916376343E0,1.531459345E1
4.964160667E0,6.889423370E0,1.370145767E1,-5.121749268E0,1.616868616E1
4.974168667E0,7.678731995E0,1.305734711E1,-3.824995880E0,1.562331053E1
4.984176667E0,8.061785431E0,1.169667664E1,-1.788181458E0,1.431789864E1
4.994185667E0,8.124205627E0,1.015727783E1,5.060975647E-1,1.301649510E1
5.004193667E0,7.824828186E0,8.764723663E0,2.897674255E0,1.210143930E1
5.014201667E0,7.660469971E0,7.327861633E0,4.726121979E0,1.160674740E1
5.024210667E0,7.405550079E0,6.458020477E0,5.058281250E0,1.105144378E1
5.034218667E0,7.068750458E0,5.989794159E0,5.235961761E0,1.064237580E1
5.044226667E0,6.547534332E0,5.724994812E0,4.932243347E0,9.998639701E0
5.054235667E0,6.059698792E0,5.236710205E0,4.496948547E0,9.185076453E0
5.064243667E0,5.248685303E0,5.218148804E0,3.826792145E0,8.331993307E0
5.074251667E0,4.333338776E0,5.696553955E0,2.969075775E0,7.748803964E0
5.084260667E0,3.507356415E0,6.835535431E0,2.292782135E0,8.017664471E0
5.094268667E0,2.790497131E0,8.015980682E0,2.302661591E0,8.794604649E0
5.104276667E0,2.104024658E0,8.963510284E0,2.716999969E0,9.599662766E0
5.114285667E0,1.439107361E0,9.450747070E0,3.458408203E0,1.016603352E1
5.124293667E0,8.571176147E-1,9.396260376E0,4.155807953E0,1.030995147E1
5.134301667E0,4.188290405E-1,9.116492157E0,4.639152832E0,1.023755762E1
5.144310667E0,1.119671631E-1,8.708440704E0,4.791386261E0,9.940163905E0
5.154318667E0,-6.586303711E-2,8.326584778E0,4.617148590E0,9.521261109E0
5.164326667E0,-5.418731689E-2,8.002508698E0,4.293970642E0,9.081919709E0
5.174335667E0,1.826202393E-1,7.638615417E0,3.916156311E0,8.585923125E0
5.184343667E0,5.090913391E-1,7.388784943E0,3.577710114E0,8.225164228E0
5.194351667E0,8.898994446E-1,7.411687317E0,3.371289368E0,8.190886515E0
5.204360667E0,1.324745178E0,7.753875732E0,3.319347382E0,8.537892345E0
5.214368667E0,1.865570526E0,8.254734192E0,3.459306335E0,9.142635850E0
5.224376667E0,2.463277588E0,8.693771210E0,3.658542023E0,9.748554973E0
5.234385667E0,3.183280334E0,9.299262085E0,3.792363739E0,1.053525376E1
5.244393667E0,3.821103973E0,1.012988480E1,3.689826965E0,1.143810406E1
5.254401667E0,4.214485931E0,1.086156326E1,3.075803833E0,1.204973101E1
5.264410667E0,4.209246826E0,1.105780518E1,2.061213684E0,1.201005479E1
5.274418667E0,3.910917206E0,1.097278198E1,9.627978516E-1,1.168863540E1
5.284426667E0,3.293750610E0,1.066906357E1,1.486408997E-1,1.116690667E1
5.294435667E0,2.673141174E0,9.929451599E0,-4.637356567E-1,1.029343206E1
5.304443667E0,2.163750458E0,9.009913788E0,-3.089575195E-1,9.271236016E0
5.314451667E0,1.790127411E0,8.247100067E0,3.153941345E-1,8.445039320E0
5.324460667E0,1.563498688E0,7.763605499E0,8.984317017E-1,7.970274651E0
5.334468667E0,1.369502106E0,7.765701141E0,1.373843079E0,8.004317275E0
5.344476667E0,1.192420349E0,8.221802673E0,1.712139587E0,8.482412832E0
5.354485667E0,9.925859070E-1,9.050479431E0,1.821412354E0,9.285146616E0
5.364493667E0,7.385641479E-1,1.006941055E1,1.649869080E0,1.023037506E1
5.374501667E0,3.902384949E-1,1.122380997E1,1.274300079E0,1.130265619E1
5.384510667E0,1.044827271E-1,1.247610580E1,9.187893677E-1,1.251032800E1
5.394518667E0,-8.113128662E-2,1.343441299E1,3.522175598E-1,1.343927424E1
5.404526667E0,-5.013075256E-1,1.413286057E1,-2.286345520E0,1.432537723E1
5.414535667E0,-1.101858673E0,1.407927200E1,-3.958368530E0,1.466658359E1
5.424543667E0,-1.083596649E0,1.261052628E1,-9.880952454E-1,1.269550656E1
5.434551667E0,-7.381150818E-1,1.096290253E1,1.564546509E0,1.109855177E1
5.444560667E0,-3.649411011E-1,9.698182526E0,2.526745605E0,1.002857765E1
5.454568667E0,-6.421646118E-2,8.670719147E0,2.563569031E0,9.041978791E0
5.464576667E0,1.742376709E-1,8.040230255E0,2.245480499E0,8.349721193E0
5.474585667E0,3.504212952E-1,7.739804993E0,2.046843567E0,8.013547591E0
5.484593667E0,5.031037903E-1,7.846982117E0,2.006128235E0,8.114973337E0
5.494601667E0,5.867797852E-1,8.063432007E0,2.007625122E0,8.330294405E0
5.504610667E0,6.782395935E-1,8.322992249E0,1.891167297E0,8.562051312E0
5.514618250E0,9.014254761E-1,8.570427704E0,1.901196442E0,8.824927582E0
5.524626250E0,1.158590698E0,8.849896545E0,1.965861969E0,9.139344317E0
5.534635250E0,1.404678955E0,9.164991302E0,2.067350922E0,9.499690962E0
5.544643250E0,1.682201843E0,9.482331390E0,2.235151978E0,9.886370214E0
5.554651250E0,1.939067688E0,9.787546692E0,2.473456421E0,1.027978796E1
5.564660250E0,2.210902405E0,1.010069550E1,2.776576080E0,1.070614373E1
5.574668250E0,2.464624786E0,1.034573593E1,3.029849396E0,1.105841827E1
5.584676250E0,2.687211914E0,1.052865555E1,3.214265900E0,1.133160186E1
5.594685250E0,2.867886200E0,1.055904236E1,3.312611389E0,1.143204011E1
5.604693250E0,3.013084259E0,1.041803558E1,3.252735901E0,1.132229804E1
5.614701250E0,3.087928619E0,1.009291168E1,3.075354767E0,1.099363345E1
5.624710250E0,3.057242432E0,9.682016144E0,2.794089661E0,1.053067448E1
5.634718250E0,2.967578888E0,9.273515625E0,2.515968018E0,1.005657554E1
5.644727250E0,2.866688690E0,8.960516510E0,2.210303650E0,9.664067591E0
5.654735250E0,2.717449036E0,8.834328918E0,1.889371033E0,9.433960971E0
5.664743250E0,2.528691559E0,8.810528412E0,1.573976898E0,9.300381453E0
5.674752250E0,2.336640930E0,8.720116425E0,1.278042297E0,9.117769103E0
5.684760250E0,2.158062286E0,8.669222260E0,1.073567505E0,8.998066159E0
5.694768250E0,2.002685394E0,8.705297241E0,9.292675781E-1,8.980895672E0
5.704777250E0,1.866618347E0,8.828191681E0,8.428971863E-1,9.062654582E0
5.714785250E0,1.751058655E0,9.010811920E0,9.183403015E-1,9.225198468E0
5.724793250E0,1.635349274E0,9.281598816E0,1.034648438E0,9.481188808E0
5.734802250E0,1.505868530E0,9.535470886E0,1.158291321E0,9.722884543E0
5.744810250E0,1.328188019E0,9.781708832E0,1.241817627E0,9.949272441E0
5.754818250E0,1.123413849E0,1.000249969E1,1.309776306E0,1.015024989E1
5.764827250E0,8.987310791E-1,1.009830048E1,1.438059540E0,1.023969752E1
5.774835250E0,6.623725891E-1,1.013557297E1,1.634301453E0,1.028783350E1
5.784843250E0,4.002676392E-1,1.011746063E1,1.747316437E0,1.027503472E1
5.794852250E0,2.026785278E-1,1.000699036E1,1.866169281E0,1.018152849E1
5.804860250E0,7.484436035E-3,9.902357941E0,1.935026093E0,1.008965187E1
5.814868250E0,-2.016307068E-1,9.868378601E0,1.960323486E0,1.006322112E1
5.824877250E0,-3.656895447E-1,9.885742493E0,2.029030609E0,1.009844536E1
5.834885250E0,-5.370831299E-1,9.971514130E0,2.121538239E0,1.020884307E1
5.844893250E0,-7.102729797E-1,1.009650421E1,2.220632172E0,1.036219534E1
5.854902250E0,-8.731343079E-1,1.023287064E1,2.326462097E0,1.053026262E1
5.864910250E0,-1.021625519E0,1.033974838E1,2.417772217E0,1.066769599E1
5.874918250E0,-1.190624084E0,1.052880524E1,2.499202881E0,1.088665883E1
5.884927250E0,-1.357227631E0,1.076980408E1,2.559228058E0,1.115259588E1
5.894935250E0,-1.533560944E0,1.089494385E1,2.530038757E0,1.128949541E1
5.904943250E0,-1.686243439E0,1.087069427E1,2.499352570E0,1.128105377E1
5.914952250E0,-1.792522430E0,1.065364563E1,2.383044434E0,1.106310095E1
5.924960250E0,-1.866318970E0,1.030217651E1,2.258054352E0,1.071059274E1
5.934968250E0,-1.864971771E0,9.817334747E0,2.206711121E0,1.023365796E1
5.944977250E0,-1.850751343E0,9.347761230E0,2.166893921E0,9.772479205E0
5.954985250E0,-1.798659668E0,8.924890594E0,2.124382324E0,9.348895602E0
5.964993250E0,-1.783990173E0,8.686436462E0,2.030377808E0,9.097210198E0
5.975002250E0,-1.729204102E0,8.630452881E0,2.005230103E0,9.027503061E0
5.985010250E0,-1.466799774E0,8.660690002E0,2.133663025E0,9.039445271E0
5.995018250E0,-1.159638519E0,8.854237518E0,2.331701202E0,9.229253167E0
6.005027250E0,-8.643026733E-1,9.168134766E0,2.582130432E0,9.563948544E0
6.015035250E0,-6.198609924E-1,9.425898743E0,2.753524017E0,9.839394761E0
6.025043250E0,-3.815565491E-1,9.651329956E0,2.852019196E0,1.007113543E1
6.035052250E0,-1.848655701E-1,9.905351715E0,2.854563904E0,1.031012623E1
6.045060250E0,-2.559677124E-2,1.014365616E1,2.712359619E0,1.050006239E1
6.055068250E0,1.185534668E-1,1.037956558E1,2.480791168E0,1.067257052E1
6.065077250E0,2.692900085E-1,1.061532532E1,2.167342987E0,1.083766692E1
6.075085250E0,4.330494690E-1,1.090766739E1,1.755549316E0,1.105652265E1
6.085093250E0,6.444099426E-1,1.130808472E1,1.281784515E0,1.139872869E1
6.095102250E0,8.761280823E-1,1.179262711E1,7.764353943E-1,1.185059097E1
6.105110250E0,1.124461670E0,1.221340210E1,2.264790344E-1,1.226714709E1
6.115118250E0,1.554667053E0,1.250873795E1,-1.295855255E0,1.267141490E1
6.125127250E0,2.705623627E0,1.269764511E1,-6.965914307E0,1.473345013E1
6.135135250E0,2.995121613E0,1.159743301E1,-7.351662140E0,1.405411478E1
6.145144250E0,2.184557190E0,1.040022263E1,-4.188440094E0,1.142278211E1
6.155152250E0,1.223106537E0,1.003318588E1,-1.829196167E0,1.027164871E1
6.165160250E0,4.526586914E-1,9.722132721E0,-1.571731567E-1,9.733933837E0
6.175169250E0,2.321672058E-1,9.107361145E0,1.054856415E0,9.171185893E0
6.185177250E0,2.532733154E-1,8.488398285E0,1.803599396E0,8.681591075E0
6.195185250E0,2.365081787E-1,8.167016602E0,2.148332520E0,8.448161274E0
6.205194250E0,2.282752991E-1,8.095166016E0,2.363584900E0,8.436252486E0
6.215202250E0,2.857557678E-1,8.159981232E0,2.544109497E0,8.552160148E0
6.225210250E0,5.173242188E-1,8.250393219E0,2.710114288E0,8.699501829E0
6.235219250E0,7.707472229E-1,8.404572601E0,2.784509583E0,8.887315990E0
6.245227250E0,9.815089417E-1,8.777297516E0,2.798430634E0,9.264746381E0
6.255235250E0,1.206640778E0,9.419013062E0,2.697241058E0,9.871620857E0
6.265244250E0,1.533411255E0,1.035995636E1,2.238894196E0,1.070946745E1
6.275252250E0,1.995949402E0,1.135852982E1,1.373992767E0,1.161412372E1
6.285260250E0,2.450703735E0,1.197225357E1,-3.697311401E-2,1.222056346E1
6.295269250E0,3.313509521E0,1.231444199E1,-3.003653870E0,1.310140311E1
6.305277250E0,5.099295959E0,1.209215424E1,-8.285270691E0,1.551994600E1
6.315285250E0,6.837930450E0,1.184412003E1,-1.281724640E1,1.874359297E1
6.325294250E0,6.880442047E0,1.210068649E1,-8.374036102E0,1.624473998E1
6.335302250E0,6.198909302E0,1.198078583E1,-1.961371307E0,1.363131259E1
6.345310250E0,6.418053589E0,1.119596786E1,9.767189026E-1,1.294198934E1
6.355319250E0,6.671925659E0,1.013168106E1,2.407443695E0,1.236775397E1
6.365327250E0,6.496939545E0,9.066945190E0,4.014052734E0,1.185463360E1
6.375335250E0,5.963299255E0,8.269553375E0,4.679868164E0,1.121818243E1
6.385344250E0,5.299729156E0,7.232060852E0,4.748575287E0,1.014587604E1
6.395352250E0,4.520299988E0,6.412814484E0,4.987628174E0,9.296974582E0
6.405361250E0,3.653153229E0,6.110742645E0,4.911137238E0,8.649044638E0
6.415369250E0,3.117566986E0,6.162385254E0,4.915029144E0,8.476539826E0
6.425377250E0,2.780318298E0,6.387666779E0,5.024152222E0,8.589211970E0
6.435386250E0,2.454595642E0,6.742728424E0,5.051994324E0,8.775652284E0
6.445394250E0,2.124831390E0,7.297025757E0,4.817132721E0,8.998125415E0
6.455402250E0,1.736089783E0,7.528444519E0,4.345762939E0,8.864374774E0
6.465411250E0,1.326541443E0,7.455546112E0,4.210893402E0,8.664669831E0
6.475419250E0,7.599696350E-1,7.511679382E0,4.304598541E0,8.690940662E0
6.485427250E0,1.916015625E-2,7.837701416E0,4.120481415E0,8.854846000E0
6.495436250E0,-6.734495544E-1,8.381221161E0,3.867956543E0,9.255241232E0
6.505444250E0,-8.199948120E-1,8.798703003E0,4.002377014E0,9.700958086E0
6.515455500E0,-3.034190369E-1,8.992250519E0,4.016298065E0,9.853084931E0
6.525464500E0,6.174659729E-1,8.719517670E0,3.577261047E0,9.445001282E0
6.535472500E0,1.408421173E0,8.245902557E0,3.098107452E0,8.920584565E0
6.545480500E0,1.767374725E0,8.036488037E0,2.839744720E0,8.704763263E0
6.555489500E0,2.002984772E0,7.900720367E0,2.884351959E0,8.645971116E0
6.565497500E0,2.288740540E0,7.740553436E0,3.155438232E0,8.666677056E0
6.575505500E0,2.539169769E0,7.590415649E0,3.451672211E0,8.716411756E0
6.585514500E0,2.798879700E0,7.581584015E0,3.788471832E0,8.925618330E0
6.595522500E0,3.059787140E0,7.561076660E0,4.085304565E0,9.122603301E0
6.605530500E0,3.451821899E0,7.489675140E0,4.425097961E0,9.359049102E0
6.615539500E0,3.801644440E0,7.471862183E0,4.580325165E0,9.553041586E0
6.625547500E0,4.036506042E0,7.438930664E0,4.618046722E0,9.641443149E0
6.635555500E0,4.182302856E0,7.319329376E0,4.705165558E0,9.654160897E0
6.645564500E0,4.169279938E0,7.288493500E0,4.707859955E0,9.626472773E0
6.655572500E0,4.043391724E0,7.400310974E0,4.548291779E0,9.581261777E0
6.665580500E0,3.767964478E0,7.773934021E0,4.293222198E0,9.646935436E0
6.675589500E0,3.408412170E0,8.328381042E0,4.287833405E0,9.968185372E0
6.685597500E0,3.118016052E0,8.968150635E0,4.455185394E0,1.048801348E1
6.695606500E0,2.845283203E0,9.666448517E0,4.393513641E0,1.099267145E1
6.705614500E0,2.707120514E0,1.034139496E1,4.205803986E0,1.148746005E1
6.715622500E0,2.719544678E0,1.093251572E1,3.948638763E0,1.193765351E1
6.725631500E0,2.847678223E0,1.140059235E1,3.611090698E0,1.229319947E1
6.735639500E0,3.106340332E0,1.172601562E1,3.437002716E0,1.260800461E1
6.745647500E0,3.497626648E0,1.230067062E1,3.234773254E0,1.319104423E1
6.755656500E0,3.975283356E0,1.343516144E1,2.989732819E0,1.432637229E1
6.765664500E0,4.453089752E0,1.491169098E1,2.847229156E0,1.582072217E1
6.775672500E0,4.954397278E0,1.629182098E1,2.772833862E0,1.725277053E1
6.785681500E0,5.139711914E0,1.632355499E1,2.579286346E0,1.730687159E1
6.795689500E0,4.937033386E0,1.378169083E1,2.115999756E0,1.479144197E1
6.805697500E0,4.262086945E0,1.016805542E1,1.800156555E0,1.117118166E1
6.815706500E0,3.405119019E0,7.760911102E0,1.632654877E0,8.630882841E0
6.825714500E0,2.902015228E0,6.224057007E0,1.447190552E0,7.018186269E0
6.835722500E0,2.753524017E0,5.545218658E0,1.313967590E0,6.329127532E0
6.845731500E0,2.762355652E0,5.531147919E0,9.488768005E-1,6.254963887E0
6.855739500E0,2.735860748E0,6.087690582E0,-3.270698547E-1,6.682206623E0
6.865747500E0,2.751428375E0,7.677534485E0,-2.086660767E0,8.418375557E0
6.875756500E0,2.765648804E0,9.934690704E0,-2.662363586E0,1.065059024E1
6.885764500E0,2.755469971E0,1.201356766E1,-1.690883789E0,1.244096100E1
6.895772500E0,2.639760590E0,1.318847443E1,-8.771759033E-2,1.345034899E1
6.905781500E0,2.426753540E0,1.315090256E1,1.545086975E0,1.346189677E1
6.915789500E0,2.128872986E0,1.184801193E1,2.436333618E0,1.228182431E1
6.925798500E0,1.808688812E0,9.738299103E0,2.608924713E0,1.024267117E1
6.935806500E0,1.583706665E0,8.179740143E0,2.386187897E0,8.666612273E0
6.945814500E0,1.376836853E0,7.171736298E0,1.993255005E0,7.569844566E0
6.955823500E0,1.224902802E0,6.487060089E0,1.560205536E0,6.783551930E0
6.965831500E0,1.095422058E0,6.075865173E0,1.193168793E0,6.288063204E0
6.975839500E0,9.918374634E-1,6.019432526E0,8.428971863E-1,6.158553820E0
6.985848500E0,9.207353210E-1,6.335425415E0,5.995033264E-1,6.429990121E0
6.995856500E0,8.662486267E-1,7.078330536E0,4.614903259E-1,7.146056477E0
7.005864500E0,8.210426331E-1,8.161478119E0,3.537144470E-1,8.210295366E0
7.015873500E0,7.244934082E-1,9.361532593E0,2.983296204E-1,9.394263342E0
7.025881500E0,6.092330933E-1,1.044303360E1,2.733316040E-1,1.046435979E1
7.035889500E0,4.441264343E-1,1.124820923E1,2.676434326E-1,1.126015507E1
7.045898500E0,2.315684509E-1,1.162692169E1,3.242257690E-1,1.163374636E1
7.055906500E0,3.427871704E-2,1.144265488E1,4.089495850E-1,1.145001159E1
7.065914500E0,-1.284329224E-1,1.076546310E1,5.031037903E-1,1.077797775E1
7.075923500E0,-1.703457642E-1,9.771080933E0,6.334826660E-1,9.793076154E0
7.085931500E0,-9.056167603E-2,8.809630280E0,8.237370300E-1,8.848521333E0
7.095939500E0,1.212478638E-1,7.987390137E0,1.032702484E0,8.054785948E0
7.105948500E0,3.409909058E-1,7.385641479E0,1.259480896E0,7.500017799E0
7.115956500E0,5.578898621E-1,7.037914581E0,1.508712616E0,7.219397240E0
7.125965500E0,8.264314270E-1,7.009324036E0,1.803150330E0,7.284570231E0
7.135973500E0,1.139131165E0,7.401508484E0,2.142344971E0,7.789068598E0
7.145981500E0,1.474733276E0,8.043822784E0,2.489622803E0,8.548458629E0
7.155990500E0,1.828747101E0,8.800349579E0,2.835703125E0,9.425056015E0
7.165998500E0,2.208357697E0,9.485175476E0,3.033292236E0,1.020030682E1
7.176006500E0,2.620301056E0,1.000235001E1,3.014730835E0,1.077040321E1
7.186015500E0,3.063080292E0,1.019724472E1,2.804717560E0,1.101057225E1
7.196023500E0,3.521876221E0,1.006821304E1,2.290536804E0,1.090958683E1
7.206031500E0,4.025578766E0,9.763446808E0,1.623523865E0,1.068484945E1
7.216040500E0,4.464765472E0,9.506281586E0,7.991880798E-1,1.053291137E1
7.226048500E0,4.911586304E0,9.265282745E0,-2.300715637E-1,1.048914092E1
7.236056500E0,5.736520844E0,8.785081329E0,-3.216062164E0,1.097398657E1
7.246065500E0,6.530020752E0,8.345894623E0,-5.689518585E0,1.202770759E1
7.256073500E0,5.828729095E0,8.331075439E0,-2.370769958E0,1.044037600E1
7.266081500E0,5.116360474E0,8.545429688E0,2.493814087E-1,9.963117189E0
7.276090500E0,4.893024902E0,8.783734131E0,1.732946320E0,1.020288101E1
7.286098500E0,4.796924744E0,9.014404449E0,2.525099030E0,1.051884498E1
7.296106500E0,4.914280701E0,9.001531219E0,2.840792542E0,1.064179597E1
7.306115500E0,5.009632416E0,8.965007172E0,2.774330750E0,1.063788897E1
7.316123500E0,5.076692963E0,8.775052185E0,2.214644623E0,1.037684938E1
7.326131500E0,5.176984406E0,8.386759644E0,1.579216003E0,9.981624519E0
7.336140500E0,4.975204010E0,8.143216095E0,1.257834320E0,9.625319241E0
7.346148500E0,4.489913177E0,8.146808624E0,1.137634277E0,9.371447212E0
7.356157500E0,4.227508850E0,8.154293060E0,1.182391205E0,9.260797771E0
7.366165500E0,4.081412659E0,8.358767853E0,1.231040039E0,9.383090583E0
7.376173500E0,3.953279114E0,8.901838531E0,1.312620392E0,9.828230628E0
7.386182500E0,3.823948059E0,9.645941162E0,1.456770630E0,1.047802178E1
7.396190500E0,3.745062103E0,1.045620621E1,1.751507721E0,1.124391025E1
7.406198500E0,3.679947510E0,1.123608444E1,2.129022675E0,1.201350677E1
7.416207500E0,3.651057587E0,1.182960022E1,2.581831055E0,1.264656137E1
7.426215500E0,3.723955994E0,1.215202972E1,3.047213287E0,1.307001084E1
7.436223500E0,3.902384949E0,1.214963470E1,3.280128937E0,1.317579135E1
7.446232500E0,4.106560364E0,1.216146011E1,3.106190643E0,1.320656543E1
7.456240500E0,4.299509125E0,1.205997116E1,2.465223541E0,1.303863529E1
7.466248500E0,4.425846405E0,1.155387360E1,1.654509430E0,1.248268853E1
7.476257500E0,4.419110413E0,1.063523392E1,3.266207886E-1,1.152143300E1
7.486265500E0,4.116439819E0,9.560917969E0,-2.126028900E0,1.062432248E1
7.496273500E0,3.202440491E0,9.167985077E0,-3.590433655E0,1.035368482E1
7.506282500E0,2.215393066E0,9.252708893E0,-3.012784882E0,9.979852756E0
7.516288000E0,1.680106201E0,9.315129089E0,-1.897005157E0,9.653652955E0
7.526297000E0,1.589394836E0,9.258247375E0,-7.918533325E-1,9.427001226E0
7.536305000E0,1.637893982E0,9.258995819E0,1.965412903E-1,9.404803494E0
7.546313000E0,1.618733826E0,9.407487030E0,8.747808838E-1,9.585736957E0
7.556322000E0,1.634451141E0,9.766440582E0,1.401385803E0,1.000093367E1
7.566330000E0,1.707648926E0,1.050949539E1,2.061662750E0,1.084509159E1
7.576338000E0,1.792372742E0,1.153396500E1,2.604284363E0,1.195939989E1
7.586347000E0,2.556683350E0,1.293295578E1,1.216370544E0,1.323924213E1
7.596355000E0,6.230643311E0,1.506437347E1,-1.221160583E1,2.036859301E1
7.606363000E0,9.298513641E0,1.634600830E1,-1.859298569E1,2.644529183E1
7.616372000E0,7.147486725E0,1.532049088E1,-2.877615967E0,1.714889736E1
7.626380000E0,5.974076843E0,1.372166565E1,-9.050180054E-1,1.499309041E1
7.636388000E0,4.984335022E0,1.161749130E1,-2.591111755E-1,1.264424131E1
7.646397000E0,4.250860291E0,9.684411163E0,-2.020797729E-1,1.057820727E1
7.656405000E0,3.396137695E0,8.062982941E0,1.220711517E0,8.833775057E0
7.666413000E0,2.586621094E0,6.627019043E0,3.348237305E0,7.862485811E0
7.676422000E0,2.575394440E0,5.207371216E0,4.327800293E0,7.244254749E0
7.686430000E0,3.060236206E0,4.714296570E0,5.944737854E0,8.181047973E0
7.696439000E0,3.444337463E0,4.357738037E0,7.093149719E0,9.009223846E0
7.706447000E0,3.652554474E0,3.923640747E0,7.887697449E0,9.536869609E0
7.716455000E0,3.689976654E0,3.803141327E0,7.822283478E0,9.448170747E0
7.726464000E0,3.202141113E0,4.434827728E0,6.515650635E0,8.507356104E0
7.736472000E0,2.308050385E0,5.081932068E0,4.330644379E0,7.064531892E0
7.746480000E0,1.389410706E0,5.661975861E0,2.745590515E0,6.444121354E0
7.756489000E0,4.352947998E-1,6.608307953E0,1.475930786E0,6.785100386E0
7.766497000E0,-4.602928162E-1,7.666457520E0,8.705895996E-1,7.729448016E0
7.776505000E0,-8.940907288E-1,8.588090973E0,1.156495056E0,8.711612113E0
7.786514000E0,-8.867559814E-1,9.037755890E0,1.415755920E0,9.190850479E0
7.796522000E0,-1.890568542E-1,8.744515686E0,1.537452850E0,8.880656414E0
7.806530000E0,8.652008057E-1,8.114026794E0,1.633403320E0,8.321899402E0
7.816539000E0,1.457369385E0,7.777227173E0,2.003284149E0,8.162250634E0
7.826547000E0,1.912123718E0,7.687713318E0,2.404150543E0,8.278713246E0
7.836555000E0,2.286495209E0,7.782615967E0,2.800675964E0,8.581430969E0
7.846564000E0,2.646197205E0,7.889643402E0,3.275937653E0,8.943187360E0
7.856572000E0,3.039878540E0,8.110134888E0,3.761527863E0,9.442681891E0
7.866581000E0,3.517984314E0,8.323441315E0,4.207899628E0,9.968064417E0
7.876589000E0,4.182003479E0,8.557404785E0,4.403842163E0,1.049343393E1
7.886597000E0,5.062023468E0,8.841364288E0,4.477489014E0,1.112841911E1
7.896606000E0,6.118975525E0,9.198222198E0,4.292773132E0,1.185230164E1
7.906614000E0,7.348069611E0,9.799970856E0,4.026776276E0,1.289373813E1
7.916622000E0,8.463100891E0,1.034244278E1,3.554658051E0,1.382844146E1
7.926631000E0,9.128317566E0,1.063942520E1,3.040776672E0,1.434468100E1
7.936639000E0,9.425749054E0,1.064077240E1,2.721041565E0,1.447324600E1
7.946647000E0,9.346114655E0,1.037073395E1,2.619253235E0,1.420431164E1
7.956656000E0,8.899742889E0,9.949360199E0,2.966680756E0,1.367466221E1
7.966664000E0,8.049361267E0,9.250613251E0,3.303480377E0,1.269956869E1
7.976672000E0,7.279811554E0,8.272397461E0,3.699257355E0,1.162379977E1
7.986681000E0,6.607559509E0,7.495662689E0,3.947141876E0,1.074359022E1
7.996689000E0,5.970634003E0,7.257208557E0,3.901486816E0,1.017532043E1
8.006698000E0,5.533093872E0,8.055498505E0,3.681444397E0,1.044314209E1
8.016706000E0,5.436394958E0,9.722731476E0,3.398083649E0,1.164615258E1
8.026714000E0,5.547763367E0,1.166209854E1,2.911146240E0,1.323846642E1
8.036723000E0,5.657485199E0,1.374277176E1,2.280507660E0,1.503567855E1
8.046731000E0,5.458249512E0,1.551433777E1,1.427731018E0,1.650834880E1
8.056739000E0,4.791086884E0,1.615440674E1,5.764512634E-1,1.685976473E1
8.066748000E0,3.870501251E0,1.535746399E1,1.574725342E-1,1.583847460E1
8.076756000E0,2.931653595E0,1.356838440E1,4.954696655E-2,1.388157422E1
8.086764000E0,2.012415161E0,1.153336624E1,2.933898926E-2,1.170765615E1
8.096773000E0,1.341959381E0,9.599387970E0,6.331832886E-2,9.692941431E0
8.106781000E0,7.134164429E-1,8.009693756E0,-2.665956116E-1,8.045820673E0
8.116789000E0,-4.721182251E-1,7.137307892E0,-1.198407898E0,7.252602364E0
8.126798000E0,-1.256487122E0,6.905140686E0,-4.041595459E-1,7.030154530E0
8.136806000E0,-9.354048157E-1,7.167245636E0,5.879772949E-1,7.251903852E0
8.146814000E0,-1.487905884E-1,7.657027130E0,9.904902649E-1,7.722258353E0
8.156823000E0,5.370831299E-1,8.221054230E0,1.213227081E0,8.327431230E0
8.166831000E0,9.602531433E-1,8.788374481E0,1.559157715E0,8.977114509E0
8.176840000E0,1.115330658E0,9.383387146E0,1.899100800E0,9.638386828E0
8.186848000E0,1.018332367E0,9.865534515E0,2.219434662E0,1.016325058E1
8.196856000E0,8.446934509E-1,1.015982254E1,2.402953033E0,1.047423908E1
8.206865000E0,6.462062073E-1,1.022882904E1,2.245330811E0,1.049228462E1
8.216873000E0,4.480183411E-1,9.957593079E0,1.804796906E0,1.012974196E1
8.226881000E0,2.787203979E-1,9.437125397E0,1.205143890E0,9.517846007E0
8.236890000E0,2.056723022E-1,8.901090088E0,4.770579529E-1,8.916237443E0
8.246898000E0,2.347119141E-1,8.526868286E0,-3.353027344E-2,8.530163933E0
8.256906000E0,3.245251465E-1,8.393196259E0,-3.462300110E-1,8.406600694E0
8.266915000E0,4.405339050E-1,8.365054779E0,-5.378315735E-1,8.393895066E0
8.276923000E0,7.692503357E-1,8.310568085E0,-5.505551147E-1,8.364233312E0
8.286931000E0,1.066083069E0,8.362659760E0,-4.037104797E-1,8.439999616E0
8.296940000E0,1.248254242E0,8.475674744E0,-1.450483704E-1,8.568327727E0
8.306948000E0,1.328487396E0,8.535400543E0,2.059716797E-1,8.640622983E0
8.316956000E0,1.392105103E0,8.566086731E0,5.942642212E-1,8.698790057E0
8.326965000E0,1.473535767E0,8.563691711E0,1.022972717E0,8.749548363E0
8.336973000E0,1.600771179E0,8.548423462E0,1.432521057E0,8.814200397E0
8.346982000E0,1.810335388E0,8.523724823E0,1.820214844E0,8.901931316E0
8.356990000E0,2.085463257E0,8.561147003E0,2.251917114E0,9.094697669E0
8.366998000E0,2.391576691E0,8.566685486E0,2.578687592E0,9.260527467E0
8.377007000E0,2.770289154E0,8.658294983E0,2.626288605E0,9.462450309E0
8.387015000E0,3.165317688E0,8.719068604E0,2.539319458E0,9.617148054E0
8.397023000E0,3.496129761E0,8.723559265E0,2.411185913E0,9.702434079E0
8.407032000E0,3.830534363E0,8.939560089E0,2.368374939E0,1.000989151E1
8.417040000E0,4.269272003E0,9.043294373E0,2.292183380E0,1.025972520E1
8.427048000E0,4.613106995E0,9.166937256E0,1.985770569E0,1.045259678E1
8.437057000E0,5.060227203E0,9.184450836E0,1.669328613E0,1.061822464E1
8.447065000E0,5.386099548E0,9.229806519E0,1.010997620E0,1.073412842E1
8.457073000E0,5.734574890E0,9.135053558E0,3.393443298E-1,1.079118655E1
8.467082000E0,6.001320190E0,8.942853241E0,-4.436773682E-1,1.077902211E1
8.477090000E0,6.149661713E0,8.699758759E0,-1.104403381E0,1.071092192E1
8.487099000E0,6.095175018E0,8.450826416E0,-1.176553345E0,1.048579532E1
8.497107000E0,5.890849915E0,8.262218628E0,-6.288423157E-1,1.016670114E1
8.507115000E0,5.686973877E0,8.095016327E0,2.314187622E-1,9.895681677E0
8.517122625E0,5.475912781E0,7.931705933E0,9.478289795E-1,9.684831416E0
8.527130625E0,5.303471375E0,7.765551453E0,1.452279968E0,9.515235945E0
8.537138625E0,5.169499969E0,7.630981293E0,1.637145538E0,9.361402189E0
8.547147625E0,5.158423004E0,7.397466888E0,1.737436981E0,9.184254543E0
8.557155625E0,5.194797363E0,7.253765717E0,1.780098267E0,9.097900118E0
8.567163625E0,5.043312378E0,7.483388214E0,1.587448883E0,9.162755746E0
8.577172625E0,4.872816925E0,7.920628967E0,1.328188019E0,9.393869886E0
8.587180625E0,4.844525757E0,8.408913574E0,1.193318481E0,9.777692279E0
8.597189625E0,4.828808441E0,9.006620636E0,1.132694550E0,1.028200385E1
8.607197625E0,4.764442291E0,9.500892792E0,1.075214081E0,1.068283481E1
8.617205625E0,4.655319214E0,9.940678253E0,1.111738129E0,1.103290727E1
8.627214625E0,4.475243683E0,1.027897476E1,1.142124939E0,1.126896524E1
8.637222625E0,4.290228424E0,1.058478882E1,1.203647003E0,1.148444950E1
8.647230625E0,4.110003204E0,1.087159241E1,1.337019653E0,1.169919952E1
8.657239625E0,3.979774017E0,1.116632950E1,1.472637634E0,1.194546681E1
8.667247625E0,4.067341919E0,1.120914047E1,1.694326630E0,1.204403766E1
8.677255625E0,4.461472321E0,1.128263763E1,1.878294067E0,1.227724056E1
8.687264625E0,4.851561127E0,1.177047318E1,1.845362549E0,1.286417689E1
8.697272625E0,5.341043243E0,1.226339813E1,1.018931122E0,1.341476415E1
8.707280625E0,5.703888702E0,1.258777359E1,-1.452878723E0,1.389594354E1
8.717289625E0,5.435796204E0,1.267324585E1,-3.411705322E0,1.420558953E1
8.727297625E0,4.655319214E0,1.238030502E1,-2.017953644E0,1.337968932E1
8.737306625E0,3.857328644E0,1.178050232E1,-2.890489197E-1,1.239930516E1
8.747314625E0,3.260370026E0,1.086665268E1,5.313949585E-1,1.135766410E1
8.757322625E0,2.918930054E0,9.841734009E0,7.048841858E-1,1.028964249E1
8.767331625E0,2.531086578E0,9.049730988E0,3.942800903E-1,9.405290373E0
8.777339625E0,2.060016174E0,8.189769287E0,-1.767075348E0,8.627777402E0
8.787347625E0,1.710642700E0,7.043602753E0,-8.097261658E0,1.086757952E1
8.797356625E0,9.940827942E-1,8.201594696E0,-7.166646881E0,1.093687266E1
8.807364625E0,5.385800171E-1,1.018332367E1,-2.211351471E0,1.043456874E1
8.817372625E0,4.192781067E-1,1.163904648E1,1.429676971E0,1.173401778E1
8.827381625E0,6.333329773E-1,1.241458374E1,3.426374817E0,1.289430279E1
8.837389625E0,1.260079651E0,1.261501694E1,3.465144196E0,1.314281847E1
8.847397625E0,1.940714264E0,1.222867035E1,2.832110596E0,1.270148026E1
8.857406625E0,2.265688477E0,1.183139648E1,1.947300568E0,1.220275651E1
8.867414625E0,2.772983551E0,1.108609634E1,1.926493835E-1,1.142926436E1
8.877423625E0,3.772155762E0,1.031415161E1,-3.293900299E0,1.146562958E1
8.887431625E0,5.236560516E0,9.918524323E0,-7.141499176E0,1.329660488E1
8.897439625E0,6.041736145E0,9.544152832E0,-7.268435211E0,1.343218446E1
8.907448625E0,6.050118713E0,8.633446655E0,-4.540657654E0,1.147858482E1
8.917456625E0,5.811514893E0,7.182364197E0,-7.143145752E-1,9.266623231E0
8.927464625E0,5.735173645E0,6.078559570E0,2.354902954E0,8.682549805E0
8.937473625E0,5.462291107E0,5.578748932E0,5.291945343E0,9.432059653E0
8.947481625E0,5.260061646E0,4.972509613E0,7.914192352E0,1.072513594E1
8.957489625E0,5.422024841E0,4.098327484E0,9.922715607E0,1.202725765E1
8.967498625E0,5.360652466E0,3.859274597E0,1.031849258E1,1.225160742E1
8.977506625E0,4.594545593E0,4.556973724E0,8.875792694E0,1.098433224E1
8.987515625E0,3.304677887E0,5.826483765E0,5.968238983E0,8.971548671E0
8.997523625E0,2.156116333E0,6.977889404E0,3.537294159E0,8.114938579E0
9.007531625E0,1.039438477E0,8.145461426E0,2.083816681E0,8.471792381E0
9.017540625E0,-6.541397095E-2,9.108408966E0,1.324445801E0,9.204430974E0
9.027548625E0,-6.941065979E-1,9.679172058E0,1.220861206E0,9.780524413E0
9.037556625E0,-7.590715027E-1,9.921667786E0,1.517095184E0,1.006564747E1
9.047565625E0,1.770817566E-1,9.536219330E0,1.930086365E0,9.731190597E0
9.057573625E0,1.743274841E0,8.234526215E0,2.609224091E0,8.812177909E0
9.067581625E0,2.368075562E0,7.405400391E0,3.372636566E0,8.474810571E0
9.077590625E0,2.660567322E0,7.375013580E0,3.961062927E0,8.784045953E0
9.087598625E0,2.853366394E0,7.492968292E0,4.167184296E0,9.036132943E0
9.097606625E0,2.996019745E0,7.573351135E0,4.064497833E0,9.102303245E0
9.107615625E0,3.140768738E0,7.627837830E0,4.014501801E0,9.174124641E0
9.117623625E0,3.378175049E0,7.556585999E0,4.229305115E0,9.295218145E0
9.127632625E0,3.782334595E0,7.446115723E0,4.769531708E0,9.617646648E0
9.137640625E0,4.244723053E0,7.421117706E0,5.227728882E0,1.002096857E1
9.147648625E0,4.733756104E0,7.444169769E0,5.319637756E0,1.030158513E1
9.157657625E0,5.218897247E0,7.650291138E0,5.156477051E0,1.059967445E1
9.167665625E0,5.619913330E0,7.948920135E0,4.784949646E0,1.084732687E1
9.177673625E0,5.956563263E0,8.233478394E0,4.265679474E0,1.102119929E1
9.187682625E0,6.203549652E0,8.501720581E0,3.719165955E0,1.116223439E1
9.197690625E0,6.278693390E0,8.812025299E0,3.218606873E0,1.128863193E1
9.207698625E0,6.173462219E0,9.117689667E0,2.659070435E0,1.132760152E1
9.217707625E0,5.755381622E0,9.335486755E0,2.115850067E0,1.116926820E1
9.227715625E0,5.160818024E0,9.245374146E0,1.952839050E0,1.076682711E1
9.237724625E0,4.637057190E0,8.987011414E0,2.234403534E0,1.035669989E1
9.247732625E0,4.292024689E0,8.657845917E0,2.805615692E0,1.006236807E1
9.257740625E0,4.098028107E0,8.382718048E0,3.489244080E0,9.961858285E0
9.267749625E0,4.024680634E0,8.454119568E0,4.150269470E0,1.024182252E1
9.277757625E0,4.125720520E0,9.141939240E0,4.571343842E0,1.102242294E1
9.287765625E0,4.481829987E0,1.054661819E1,4.522545319E0,1.231955241E1
9.297774625E0,5.035528564E0,1.258537857E1,4.241579590E0,1.420349602E1
9.307782625E0,5.483247528E0,1.500374954E1,3.888164520E0,1.644069120E1
9.317790625E0,5.567971344E0,1.712139587E1,3.121159515E0,1.827255150E1
9.327799625E0,5.192252655E0,1.804437653E1,1.873504028E0,1.886979145E1
9.337807625E0,4.240831146E0,1.673953995E1,3.580554199E-1,1.727208876E1
9.347815625E0,2.850222931E0,1.390832748E1,-1.768272858E0,1.430706584E1
9.357824625E0,1.770218811E0,1.038330780E1,-2.214494934E0,1.076339832E1
9.367832625E0,1.398092651E0,7.413333893E0,-1.589993591E0,7.709751104E0
9.377841625E0,1.250200195E0,5.641767883E0,-5.420228577E-1,5.803992949E0
9.387849625E0,1.158141632E0,4.650529175E0,2.588117981E-1,4.799551770E0
9.397857625E0,1.094224548E0,4.280798035E0,6.625222778E-1,4.467828885E0
9.407866625E0,1.139131165E0,4.719385986E0,9.186396790E-1,4.941064942E0
9.417874625E0,1.653162231E0,6.190975800E0,1.245260468E0,6.527771469E0
9.427882625E0,2.234403534E0,7.986192627E0,1.818867645E0,8.490000668E0
9.437891625E0,2.552941132E0,9.549092560E0,2.432890778E0,1.017947124E1
9.447899625E0,2.627336426E0,1.088910599E1,2.664309540E0,1.151408143E1
9.457907625E0,2.512974243E0,1.167751648E1,2.583926697E0,1.222113366E1
9.467916625E0,2.293979645E0,1.179412399E1,2.277064819E0,1.222901172E1
9.477924625E0,1.965113525E0,1.113070358E1,1.594633942E0,1.141477511E1
9.487933625E0,1.587299194E0,9.935439148E0,8.122109985E-1,1.009416448E1
9.497941625E0,1.315464478E0,8.841663666E0,2.375559998E-1,8.942141579E0
9.507949625E0,1.125808868E0,8.207731934E0,-1.416055298E-1,8.285792734E0
9.517962750E0,1.057401123E0,7.844886475E0,-3.293151855E-1,7.922675648E0
9.527970750E0,1.040037231E0,7.629634094E0,-4.306544495E-1,7.712227766E0
9.537978750E0,9.666897583E-1,7.613467712E0,-4.074526978E-1,7.685401577E0
9.547987750E0,9.168434143E-1,7.803572388E0,-2.525248718E-1,7.861304769E0
9.557995750E0,8.536747742E-1,8.186027069E0,3.233276367E-2,8.230482684E0
9.568003750E0,7.240443420E-1,8.705746307E0,4.085005188E-1,8.745349144E0
9.578012750E0,6.249504089E-1,9.149872742E0,8.358618164E-1,9.209201875E0
9.588020750E0,5.908213806E-1,9.420659637E0,1.217717743E0,9.517391156E0
9.598029750E0,6.017486572E-1,9.586963806E0,1.541195068E0,9.728682270E0
9.608037750E0,8.074209595E-1,9.398655396E0,1.772015076E0,9.598264910E0
9.618045750E0,1.164428558E0,8.978628845E0,1.759890289E0,9.223279441E0
9.628054750E0,1.527723083E0,8.572673035E0,1.808688812E0,8.893594099E0
9.638062750E0,1.845961304E0,8.320597229E0,1.974693604E0,8.748675683E0
9.648070750E0,2.173779602E0,8.233628082E0,2.185455322E0,8.791709966E0
9.658079750E0,2.566113739E0,8.250093842E0,2.316133575E0,8.945024475E0
9.668087750E0,3.054997101E0,8.368796997E0,2.281106415E0,9.196369770E0
9.678095750E0,3.659440155E0,8.470435638E0,1.953288116E0,9.431602018E0
9.688104750E0,4.103716278E0,8.713081055E0,1.484313354E0,9.744816822E0
9.698112750E0,4.597539368E0,8.856931915E0,8.723858643E-1,1.001716868E1
9.708121750E0,5.089715881E0,8.984317017E0,1.504371643E-1,1.032694492E1
9.718129750E0,5.567222900E0,8.958869934E0,-5.771997070E-1,1.056354490E1
9.728137750E0,5.904920654E0,8.819958801E0,-9.379495239E-1,1.065549203E1
9.738146750E0,5.853427734E0,8.705446930E0,-4.490661621E-1,1.049995633E1
9.748154750E0,5.699547729E0,8.476872253E0,2.820135498E-1,1.021869557E1
9.758162750E0,5.491480408E0,8.343050537E0,8.196954346E-1,1.002171392E1
9.768171750E0,5.247637482E0,8.315956879E0,1.009949799E0,9.884980351E0
9.778179750E0,5.078339539E0,8.273744659E0,1.115180969E0,9.771796751E0
9.788187750E0,4.973707123E0,8.263116760E0,1.212778015E0,9.720477954E0
9.798196750E0,4.722529449E0,8.379424896E0,1.478325806E0,9.731520600E0
9.808204750E0,4.451443176E0,8.632548523E0,1.714833984E0,9.862905046E0
9.818213750E0,4.290976868E0,8.682993622E0,1.671424255E0,9.828556341E0
9.828221750E0,4.153263245E0,8.669222260E0,1.450483704E0,9.721569479E0
9.838229750E0,4.047433319E0,8.613538055E0,1.332229614E0,9.609869409E0
9.848238750E0,3.917204132E0,8.481512604E0,1.329834595E0,9.436577998E0
9.858246750E0,3.765719147E0,8.368796997E0,1.361867981E0,9.277504420E0
9.868254750E0,3.597169647E0,8.392148438E0,1.417252808E0,9.239934545E0
9.878263750E0,3.397634583E0,8.607251129E0,1.506317596E0,9.375376550E0
9.888271750E0,3.230132904E0,8.958271179E0,1.633852386E0,9.661979855E0
9.898280750E0,3.135529633E0,9.457333374E0,1.850901031E0,1.013402858E1
9.908288750E0,3.083887024E0,1.006866211E1,2.120340729E0,1.074170194E1
9.918296750E0,3.073857880E0,1.059601547E1,2.457439728E0,1.130323654E1
9.928305750E0,3.135679321E0,1.096574661E1,2.836002502E0,1.175257392E1
9.938313750E0,3.383114777E0,1.100721039E1,3.054997101E0,1.191373801E1
9.948321750E0,3.788172455E0,1.096350128E1,2.982697449E0,1.197685664E1
9.958330750E0,4.242627411E0,1.140523270E1,2.761158142E0,1.247810941E1
9.968338750E0,4.830155640E0,1.205817490E1,1.831291809E0,1.311806445E1
9.978346750E0,5.337151337E0,1.302800812E1,-9.256750488E-1,1.410925420E1
9.988355750E0,5.231471100E0,1.452354813E1,-2.892435150E0,1.570566526E1
9.998363750E0,4.692591705E0,1.522019943E1,-1.757644958E0,1.602386356E1
1.000837275E1,4.130809937E0,1.462443832E1,3.592529297E-3,1.519663778E1
1.001838075E1,3.643722839E0,1.316317703E1,7.891589355E-1,1.368096186E1
1.002838875E1,3.203188934E0,1.151330795E1,5.783972168E-1,1.196458201E1
1.003839775E1,2.807561646E0,9.324709167E0,-3.042423248E0,1.020239887E1
1.004840575E1,2.047142944E0,7.858807526E0,-8.410111084E0,1.169109141E1
1.005841375E1,1.292113037E0,8.099506989E0,-7.015012207E0,1.079268112E1
1.006842275E1,9.027726746E-1,8.433911591E0,-3.914210358E0,9.341675757E0
1.007843075E1,8.312214661E-1,8.701854401E0,-1.133442993E0,8.814640784E0
1.008843875E1,1.014440460E0,8.951535187E0,1.149010620E0,9.081811331E0
1.009844775E1,1.284778290E0,9.251960449E0,2.336491241E0,9.628531494E0
1.010845575E1,1.366957397E0,9.549092560E0,2.286794586E0,9.913786901E0
1.011846475E1,1.433568878E0,9.767189026E0,1.765279083E0,1.002842517E1
1.012847275E1,2.002535706E0,9.683662720E0,2.411485291E-1,9.891492584E0
1.013848075E1,2.709665222E0,9.594897308E0,-1.533111877E0,1.008735704E1
1.014848975E1,3.244652710E0,9.902507629E0,-2.877615967E0,1.081055513E1
1.015849775E1,4.107308807E0,1.017134857E1,-4.040397949E0,1.168978755E1
1.016850575E1,5.082680511E0,9.962832184E0,-5.300627289E0,1.237692676E1
1.017851475E1,5.540877686E0,9.544751587E0,-4.843477936E0,1.205250542E1
1.018852275E1,5.521268463E0,8.843459930E0,-2.528092804E0,1.072764849E1
1.019853075E1,5.429808655E0,8.069269867E0,1.166075134E-1,9.726743315E0
1.020853975E1,5.535189514E0,7.231162720E0,3.149001617E0,9.635572034E0
1.021854775E1,5.709876251E0,6.554569702E0,5.532195740E0,1.030389540E1
1.022855675E1,5.816155243E0,6.027964783E0,6.796915741E0,1.078712588E1
1.023856475E1,6.052364044E0,5.522166595E0,7.168592834E0,1.088642079E1
1.024857275E1,6.098468170E0,5.100643158E0,6.813830566E0,1.047072880E1
1.025858175E1,5.735622711E0,5.311554565E0,5.301675110E0,9.445514213E0
1.026858975E1,4.994962921E0,6.129453735E0,3.307671661E0,8.570912991E0
1.027859775E1,3.986959076E0,6.659202118E0,1.353335724E0,7.878599692E0
1.028860675E1,2.969824219E0,7.251370697E0,3.203338623E-1,7.842502576E0
1.029861475E1,2.046095123E0,8.089328156E0,3.400927734E-1,8.351011816E0
1.030862375E1,1.323397980E0,8.914412384E0,1.069974976E0,9.075405050E0
1.031863175E1,8.860075378E-1,9.526489563E0,2.230511627E0,9.824163825E0
1.032863975E1,8.363108826E-1,9.850565643E0,3.332819366E0,1.043267676E1
1.033864875E1,1.083896027E0,9.716145172E0,3.956572266E0,1.054669482E1
1.034865675E1,1.739382935E0,9.016500092E0,3.961062927E0,1.000063730E1
1.035866475E1,2.191293182E0,8.268056488E0,3.536545715E0,9.255791673E0
1.036867375E1,2.090852051E0,7.927215271E0,3.161126404E0,8.786644661E0
1.037868175E1,1.790277100E0,7.779771881E0,3.150348816E0,8.582228165E0
1.038869075E1,1.595681763E0,7.528294830E0,3.377576294E0,8.404132612E0
1.039869875E1,1.598525848E0,7.196734314E0,3.744313660E0,8.268503762E0
1.040870675E1,1.765129395E0,6.993007965E0,4.161645813E0,8.326892461E0
1.041871575E1,2.030078430E0,6.931934967E0,4.610262909E0,8.568982723E0
1.042872375E1,2.411185913E0,7.073091431E0,5.050198059E0,9.019253868E0
1.043873175E1,2.963686981E0,7.183262329E0,5.404211884E0,9.465104558E0
1.044874075E1,3.620970154E0,7.202123108E0,5.620811462E0,9.827284651E0
1.045874875E1,4.387077026E0,7.234306183E0,5.590274963E0,1.014065111E1
1.046875675E1,5.223836975E0,7.497758331E0,5.414989471E0,1.062200375E1
1.047876575E1,6.100713501E0,8.002059631E0,5.309159546E0,1.137711908E1
1.048877375E1,6.941215668E0,8.524323578E0,5.089117126E0,1.211378060E1
1.049878275E1,7.604037323E0,9.059909821E0,4.613556061E0,1.269599343E1
1.050879075E1,8.166866913E0,9.490564270E0,3.786376190E0,1.308071749E1
1.051879475E1,8.621172180E0,9.819729767E0,2.481539612E0,1.330074213E1
1.052880375E1,8.852590942E0,9.948462067E0,-3.472778320E-1,1.332144383E1
1.053881175E1,7.979306946E0,9.638157349E0,-1.600172424E-1,1.251355353E1
1.054881975E1,7.280709686E0,8.463999023E0,2.105371857E0,1.136136452E1
1.055882875E1,6.603817291E0,7.484286346E0,3.833378448E0,1.069204074E1
1.056883675E1,5.821693726E0,7.214397583E0,4.862338715E0,1.046814158E1
1.057884575E1,5.038821716E0,7.890691223E0,4.918771362E0,1.057577628E1
1.058885375E1,4.511318665E0,9.386380920E0,4.645589447E0,1.140340494E1
1.059886175E1,4.493954773E0,1.147977768E1,4.383783875E0,1.308428394E1
1.060887075E1,4.789739685E0,1.369936203E1,4.087250519E0,1.507712649E1
1.061887875E1,5.011728058E0,1.552391785E1,3.766617279E0,1.674206825E1
1.062888675E1,4.882247314E0,1.635184616E1,3.287313995E0,1.737888503E1
1.063889575E1,4.392615509E0,1.528426620E1,2.448907471E0,1.609040125E1
1.064890375E1,3.849694519E0,1.302621185E1,1.677860870E0,1.368640056E1
1.065891275E1,3.356320496E0,1.091305618E1,1.174008636E0,1.147771662E1
1.066892075E1,2.869682465E0,9.198222198E0,6.831793213E-1,9.659663713E0
1.067892875E1,2.631976776E0,7.838599548E0,6.123765564E-1,8.291317729E0
1.068893775E1,2.489024048E0,6.964267731E0,5.658233643E-1,7.417305563E0
1.069894575E1,2.188449097E0,6.576723633E0,5.716612244E-1,6.954811266E0
1.070895375E1,1.686842194E0,6.659950562E0,4.381388855E-1,6.884209740E0
1.071896275E1,1.334474945E0,7.057823181E0,2.465373230E-1,7.187104569E0
1.072897075E1,1.240021362E0,7.718249817E0,2.745291138E-1,7.822045733E0
1.073897875E1,1.216071167E0,8.480015717E0,5.798941040E-1,8.586371341E0
1.074898775E1,1.252295837E0,9.267827454E0,9.927355957E-1,9.404594331E0
1.075899575E1,1.221909027E0,9.968370667E0,1.343755646E0,1.013248018E1
1.076900475E1,1.159488831E0,1.036384827E1,1.607357483E0,1.055165216E1
1.077901275E1,1.039139099E0,1.041399399E1,1.694925385E0,1.060206833E1
1.078902075E1,8.825646973E-1,1.000938538E1,1.536704407E0,1.016504680E1
1.079902975E1,8.029302979E-1,9.278904419E0,1.243613892E0,9.396240727E0
1.080903775E1,8.390052795E-1,8.532556458E0,9.892927551E-1,8.630593822E0
1.081904575E1,8.463400269E-1,8.102800140E0,7.427554321E-1,8.180669116E0
1.082905475E1,9.114546204E-1,7.996371460E0,5.795947266E-1,8.068992260E0
1.083906275E1,9.611512756E-1,8.195158081E0,5.694158936E-1,8.270952920E0
1.084907175E1,1.029259644E0,8.593479767E0,6.486012268E-1,8.679167787E0
1.085907975E1,1.044976959E0,9.020242310E0,6.517446899E-1,9.103928784E0
1.086908775E1,1.085692291E0,9.308991852E0,6.502478027E-1,9.394619697E0
1.087909675E1,1.128203888E0,9.471703491E0,6.394702148E-1,9.560069727E0
1.088910475E1,1.153201904E0,9.473948822E0,6.221063232E-1,9.564130760E0
1.089911275E1,1.235530701E0,9.388177185E0,6.800358582E-1,9.493516511E0
1.090912175E1,1.386566620E0,9.228609009E0,7.482939148E-1,9.362143719E0
1.091912975E1,1.649719391E0,9.070837097E0,9.782157898E-1,9.271384246E0
1.092913875E1,1.938319244E0,9.012458496E0,1.300944672E0,9.309884354E0
1.093914675E1,2.210453339E0,9.103469238E0,1.627565460E0,9.508324009E0
1.094915475E1,2.508932648E0,9.232051849E0,1.966760101E0,9.766968295E0
1.095916375E1,2.830314331E0,9.332343292E0,2.195634155E0,9.996205274E0
1.096917175E1,3.158581696E0,9.354197845E0,2.302811279E0,1.013807652E1
1.097917975E1,3.509751434E0,9.251062317E0,2.250719604E0,1.014722858E1
1.098918875E1,3.927532654E0,9.051377563E0,2.122885437E0,1.009255127E1
1.099919675E1,4.274511108E0,8.875493317E0,1.927541656E0,1.003799002E1
1.100920575E1,4.627926178E0,8.666078796E0,1.692380676E0,9.969090970E0
1.101921375E1,4.975204010E0,8.523275757E0,1.219663696E0,9.944167341E0
1.102922175E1,5.233417053E0,8.435558167E0,6.188131714E-1,9.946367446E0
1.103923075E1,5.400020599E0,8.285270691E0,3.034190369E-1,9.894341616E0
1.104923875E1,5.551355896E0,8.020022278E0,-2.844085693E-3,9.753887313E0
1.105924675E1,5.500312042E0,7.821235657E0,-2.395019531E-1,9.564649546E0
1.106925575E1,5.340594177E0,7.770191803E0,-5.373825073E-2,9.428717549E0
1.107926375E1,5.270539856E0,7.764803009E0,3.224295044E-1,9.390139345E0
1.108927175E1,5.225184174E0,7.784711609E0,5.599855042E-1,9.392436758E0
1.109928075E1,4.943170624E0,7.915988617E0,7.330256653E-1,9.361364122E0
1.110928875E1,4.571194153E0,7.988587646E0,8.430468750E-1,9.242514625E0
1.111929775E1,4.311484222E0,7.877219238E0,8.875044250E-1,9.023698977E0
1.112930575E1,4.138593750E0,7.736511841E0,8.077203369E-1,8.811015029E0
1.113931375E1,4.065994720E0,7.650740204E0,7.694000244E-1,8.698167343E0
1.114932275E1,4.034260712E0,7.669301605E0,8.146060181E-1,8.703851421E0
1.115933075E1,3.968996429E0,7.868986359E0,8.408015442E-1,8.853294653E0
1.116933875E1,3.898043976E0,8.149802399E0,9.142987061E-1,9.080196479E0
1.117934775E1,3.843706970E0,8.487200775E0,9.668394470E-1,9.367040023E0
1.118935575E1,3.775299225E0,8.886869659E0,9.942324829E-1,9.706587187E0
1.119936475E1,3.741020508E0,9.335786133E0,1.077758789E0,1.011502354E1
1.120937275E1,3.757336578E0,9.762099609E0,1.259031830E0,1.053571678E1
1.121938075E1,3.782035217E0,1.010338989E1,1.455722809E0,1.088583514E1
1.122938975E1,3.782334595E0,1.032852173E1,1.674118652E0,1.112596465E1
1.123939775E1,3.706442413E0,1.036040543E1,1.912423096E0,1.116839640E1
1.124940575E1,3.636238403E0,1.025592270E1,2.123184814E0,1.108666288E1
1.125941475E1,3.508703613E0,1.007195526E1,2.234852600E0,1.089724048E1
1.126942275E1,3.338806915E0,9.807305603E0,2.253863068E0,1.060239471E1
1.127943175E1,3.244353333E0,9.638756104E0,2.252066803E0,1.041648946E1
1.128943975E1,3.244053955E0,9.555678864E0,2.333048401E0,1.035750933E1
1.129944775E1,3.366349640E0,9.325607300E0,2.482288055E0,1.022061717E1
1.130945675E1,3.707639923E0,9.330846405E0,2.517015839E0,1.035116695E1
1.131946475E1,4.152664490E0,9.709109802E0,2.248025208E0,1.079652967E1
1.132947275E1,4.742138672E0,1.045590683E1,1.293609924E0,1.155367013E1
1.133948175E1,5.449417877E0,1.134700378E1,-5.086422729E-1,1.259799060E1
1.134948975E1,5.685177612E0,1.276186157E1,-2.088307343E0,1.412612413E1
1.135949875E1,5.508844299E0,1.436323151E1,-2.011217651E0,1.551434115E1
1.136950675E1,5.184618530E0,1.512963776E1,-1.345701599E-1,1.599388374E1
1.137951475E1,4.568799133E0,1.469119949E1,7.972421265E-1,1.540587106E1
1.138952375E1,3.761527863E0,1.260334122E1,-6.185137939E-1,1.316722678E1
1.139953175E1,2.676733704E0,1.032941986E1,-3.587290192E0,1.125746281E1
1.140953975E1,1.647474060E0,9.280700684E0,-4.687801666E0,1.052715823E1
1.141954875E1,8.788224792E-1,8.712482300E0,-3.906725922E0,9.588648716E0
1.142955675E1,4.070036316E-1,8.102500763E0,-2.732567596E0,8.560554669E0
1.143956575E1,1.175056458E-1,7.632627869E0,-1.617985382E0,7.803120687E0
1.144957375E1,1.437011719E-1,7.288942566E0,-4.372407532E-1,7.303458991E0
1.145958175E1,4.504133606E-1,7.045548706E0,6.186634827E-1,7.086986191E0
1.146959075E1,9.366023254E-1,7.243437195E0,1.147513733E0,7.393334436E0
1.147959875E1,1.634002075E0,7.483537903E0,1.509161682E0,7.807103900E0
1.148960675E1,2.238445129E0,8.030350800E0,1.581760712E0,8.485230551E0
1.149961575E1,2.424059143E0,9.294022980E0,1.684896240E0,9.751605059E0
1.150962375E1,2.815644836E0,1.038270905E1,1.334175568E0,1.084013503E1
1.151963288E1,3.634891205E0,1.116692825E1,5.334906006E-1,1.175573617E1
1.152964088E1,4.911586304E0,1.184262314E1,-1.472787323E0,1.290505735E1
1.153964887E1,6.665638733E0,1.224289078E1,-5.498366089E0,1.498503066E1
1.154965788E1,7.980504456E0,1.210577591E1,-7.822882233E0,1.647530723E1
1.155966588E1,8.112679596E0,1.150866760E1,-5.378914490E0,1.507307936E1
1.156967387E1,7.842341766E0,1.018886215E1,-1.744322662E0,1.297528026E1
1.157968288E1,7.863747253E0,8.692723389E0,4.713697815E-1,1.173133199E1
1.158969088E1,7.923922119E0,7.427105255E0,2.359094238E0,1.111376443E1
1.159969987E1,7.861950989E0,6.382727051E0,4.150868225E0,1.094436773E1
1.160970788E1,7.650590515E0,5.398673401E0,5.972430267E0,1.110617545E1
1.161971588E1,6.967261505E0,4.923711090E0,6.648125153E0,1.081587869E1
1.162972487E1,5.939349060E0,5.041067047E0,6.271658020E0,1.000109587E1
1.163973288E1,4.865332489E0,5.614674225E0,5.344635773E0,9.152112238E0
1.164974088E1,3.941304016E0,6.437962189E0,4.476141815E0,8.775937559E0
1.165974987E1,3.148103485E0,7.353608093E0,4.028123474E0,8.956108880E0
1.166975788E1,2.365680542E0,8.204438782E0,3.860921173E0,9.371017685E0
1.167976688E1,1.504221954E0,9.080716553E0,3.744313660E0,9.936899999E0
1.168977487E1,7.517367554E-1,9.741891632E0,3.877386932E0,1.051207354E1
1.169978288E1,1.178050232E-1,1.006312363E1,4.059109039E0,1.085157598E1
1.170979188E1,-2.668949890E-1,1.004680756E1,4.297263794E0,1.093051010E1
1.171979987E1,-4.049079895E-1,9.791737976E0,4.444258118E0,1.076073944E1
1.172980787E1,-8.307723999E-2,9.063951416E0,4.311334534E0,1.003741613E1
1.173981688E1,5.936654663E-1,8.287665710E0,3.763473816E0,9.121489833E0
1.174982487E1,9.553134155E-1,7.946525116E0,3.265459442E0,8.644253034E0
1.175983387E1,1.487307129E0,7.650590515E0,3.056344299E0,8.371669977E0
1.176984188E1,2.048340454E0,7.442223816E0,3.036735077E0,8.294826934E0
1.177984987E1,2.461181946E0,7.380402374E0,3.003055115E0,8.339430184E0
1.178985887E1,2.856659546E0,7.368576965E0,3.107537842E0,8.491950406E0
1.179986688E1,3.231779480E0,7.425308990E0,3.322041779E0,8.753032263E0
1.180987588E1,3.670966187E0,7.705526276E0,3.585044861E0,9.257627913E0
1.181988387E1,4.157753906E0,8.110583954E0,3.742068329E0,9.852490294E0
1.182989188E1,4.738845520E0,8.705147552E0,3.735482025E0,1.059198172E1
1.183990088E1,5.412145386E0,9.281449127E0,3.354973297E0,1.125577458E1
1.184990887E1,6.271508331E0,9.839488678E0,2.013163605E0,1.184061577E1
1.185991688E1,7.164401550E0,1.023331970E1,5.049000549E-1,1.250217604E1
1.186992588E1,7.778574371E0,1.043255539E1,-8.053253174E-2,1.301348980E1
1.187993387E1,8.105494537E0,1.024544449E1,7.382647705E-1,1.308484655E1
1.188994287E1,7.748486938E0,1.004561005E1,1.679806824E0,1.279746389E1
1.189995088E1,6.671925659E0,9.790241089E0,2.326462097E0,1.207376654E1
1.190995887E1,5.314698029E0,9.084458771E0,2.576292572E0,1.083562133E1
1.191996787E1,4.224365387E0,8.451874237E0,2.403402100E0,9.749655517E0
1.192997588E1,3.493135986E0,8.307424622E0,1.998344421E0,9.230854960E0
1.193998387E1,2.954855347E0,8.429570618E0,1.624272308E0,9.078936692E0
1.194999287E1,2.544558563E0,8.853938141E0,1.518592072E0,9.336654688E0
1.196000088E1,2.222578125E0,9.393865356E0,1.634900208E0,9.790682231E0
1.197000987E1,1.880988464E0,9.715995483E0,1.729952545E0,1.004646314E1
1.198001787E1,1.494192810E0,9.877808990E0,1.804347839E0,1.015181726E1
1.199002588E1,1.043629761E0,9.967322845E0,1.797911224E0,1.018180596E1
1.200003487E1,6.586303711E-1,9.983189850E0,1.819017334E0,1.016890838E1
1.201004287E1,2.365081787E-1,9.810449066E0,1.991159363E0,1.001326933E1
1.202005088E1,-1.968406677E-1,9.483079834E0,2.026635590E0,9.699216525E0
1.203005988E1,-6.035449219E-1,9.211694183E0,1.926344147E0,9.430290450E0
1.204006787E1,-1.020428009E0,9.059909821E0,1.834584961E0,9.299943078E0
1.205007688E1,-1.441502380E0,8.971743164E0,1.761387177E0,9.255948860E0
1.206008488E1,-1.844165039E0,9.058263245E0,1.746268616E0,9.407578423E0
1.207009287E1,-2.292931824E0,9.416468353E0,1.843865662E0,9.865457576E0
1.208010188E1,-2.833457794E0,9.997260590E0,1.988315277E0,1.057956048E1
1.209010988E1,-3.528013458E0,1.088311844E1,2.222578125E0,1.165456989E1
1.210011787E1,-4.317172394E0,1.202763840E1,2.543361053E0,1.302961044E1
1.211012688E1,-5.075645142E0,1.305390427E1,2.762056274E0,1.427569771E1
1.212013488E1,-5.541177063E0,1.345881226E1,2.745291138E0,1.481151221E1
1.213014387E1,-5.574707336E0,1.296394135E1,2.419867859E0,1.431771272E1
1.214015188E1,-4.951253815E0,1.149010620E1,1.936073914E0,1.266040430E1
1.215015988E1,-3.936813354E0,9.766141205E0,1.664239197E0,1.066047398E1
1.216016887E1,-3.119363251E0,8.536148987E0,1.398092651E0,9.195157947E0
1.217017688E1,-2.459086304E0,7.759264526E0,1.290616150E0,8.241297318E0
1.218018488E1,-1.970202942E0,7.418123932E0,1.331930237E0,7.790012866E0
1.219019387E1,-1.626966705E0,7.427853699E0,1.434167633E0,7.738014476E0
1.220020188E1,-1.363664246E0,7.709268494E0,1.622925110E0,7.995391597E0
1.221021088E1,-1.180594940E0,8.104746094E0,1.782792664E0,8.382067963E0
1.222021887E1,-1.035097504E0,8.587192841E0,1.916464691E0,8.859127758E0
1.223022688E1,-8.753796387E-1,9.077872467E0,1.959275665E0,9.328066208E0
1.224023588E1,-6.646179199E-1,9.420210571E0,1.853146362E0,9.623732936E0
1.225024387E1,-4.546046448E-1,9.795629883E0,1.765728149E0,9.963876057E0
1.226025287E1,-1.743873596E-1,1.017314484E1,1.625918884E0,1.030373229E1
1.227026088E1,1.678010559E-1,1.038106247E1,1.426084442E0,1.047990134E1
1.228026887E1,5.580395508E-1,1.042911255E1,1.161883850E0,1.050846187E1
1.229027787E1,9.834548950E-1,1.037402710E1,8.211923218E-1,1.045284548E1
1.230028588E1,1.411564636E0,1.033855087E1,4.251159668E-1,1.044312561E1
1.231029387E1,1.866917725E0,1.041129959E1,3.293151855E-3,1.057736034E1
1.232030287E1,2.319875793E0,1.061682220E1,-3.553610229E-1,1.087313289E1
1.233031088E1,2.856809235E0,1.089748856E1,-8.259823608E-1,1.129596666E1
1.234031988E1,3.553161163E0,1.102532272E1,-1.753603363E0,1.171570827E1
1.235032787E1,4.994513855E0,1.106633743E1,-1.256322464E1,1.747122223E1
1.236033588E1,5.506449280E0,1.084644470E1,-1.549682419E1,1.970070827E1
1.237034488E1,3.518433380E0,1.022493713E1,-3.087629242E0,1.124553988E1
1.238035287E1,3.166964264E0,9.852810974E0,5.843847656E-1,1.036576347E1
1.239036088E1,3.114872589E0,9.615554352E0,2.682870941E0,1.045749077E1
1.240036988E1,2.945125580E0,9.411977692E0,4.129762115E0,1.069177365E1
1.241037787E1,2.786904602E0,9.027577057E0,4.588707733E0,1.050334344E1
1.242038687E1,2.607577515E0,8.646170197E0,4.605921936E0,1.013756561E1
1.243039488E1,2.344424744E0,8.414152679E0,4.253854065E0,9.715429332E0
1.244040287E1,2.009421387E0,8.430019684E0,3.654350739E0,9.405173337E0
1.245041187E1,1.706301727E0,8.715775452E0,3.197051697E0,9.439139095E0
1.246041988E1,1.442400513E0,9.093889160E0,2.914589081E0,9.657855290E0
1.247042787E1,1.232387238E0,9.440717926E0,2.536475372E0,9.852900110E0
1.248043687E1,1.017883301E0,9.782906342E0,2.146985321E0,1.006731786E1
1.249044488E1,7.987390137E-1,1.008333160E1,1.813179474E0,1.027614617E1
1.250045387E1,5.192701721E-1,1.034513718E1,1.627864838E0,1.048529678E1
1.251046187E1,2.013313293E-1,1.061158310E1,1.569486237E0,1.072891035E1
1.252046992E1,-1.332229614E-1,1.084644470E1,1.522034912E0,1.095352461E1
1.253047892E1,-4.737648010E-1,1.097667389E1,1.545985107E0,1.109512923E1
1.254048692E1,-7.952961731E-1,1.095571747E1,1.553170166E0,1.109380813E1
1.255049592E1,-1.097218323E0,1.080812439E1,1.543590088E0,1.097278958E1
1.256050392E1,-1.338067474E0,1.062819855E1,1.556463318E0,1.082458346E1
1.257051192E1,-1.530417480E0,1.046189438E1,1.585203552E0,1.069141160E1
1.258052092E1,-1.694476318E0,1.029648834E1,1.593286743E0,1.055592179E1
1.259052892E1,-1.833686829E0,1.013003448E1,1.575174408E0,1.041446976E1
1.260053692E1,-1.920356598E0,9.962383118E0,1.494641876E0,1.025528162E1
1.261054592E1,-1.904489594E0,9.683513031E0,1.513951721E0,9.984465687E0
1.262055392E1,-1.648072815E0,9.209748230E0,1.765578461E0,9.521180272E0
1.263056292E1,-1.369352417E0,8.839268646E0,1.904339905E0,9.145179425E0
1.264057092E1,-1.144370270E0,8.644074554E0,1.981878662E0,8.941893046E0
1.265057892E1,-8.937913513E-1,8.544830933E0,2.176923065E0,8.862956204E0
1.266058792E1,-6.728507996E-1,8.540939026E0,2.345921631E0,8.882776364E0
1.267059592E1,-4.477189636E-1,8.557404785E0,2.516417084E0,8.930956492E0
1.268060392E1,-2.264790344E-1,8.623866577E0,2.634970551E0,9.020279225E0
1.269061292E1,-2.918930054E-2,8.669371948E0,2.682870941E0,9.075056941E0
1.270062092E1,1.865121460E-1,8.807684326E0,2.721640320E0,9.220488924E0
1.271062992E1,4.002676392E-1,9.065298615E0,2.736908569E0,9.477896479E0
1.272063792E1,5.965095520E-1,9.435478821E0,2.721191254E0,9.838138343E0
1.273064592E1,8.003855896E-1,1.006581802E1,2.712658997E0,1.045561229E1
1.274065492E1,1.057700500E0,1.088596252E1,2.736908569E0,1.127446579E1
1.275066292E1,1.301693115E0,1.176583282E1,2.700833588E0,1.214181737E1
1.276067192E1,1.493743744E0,1.261082565E1,2.528541870E0,1.294827085E1
1.277067992E1,1.636995850E0,1.327469513E1,2.221380615E0,1.355845928E1
1.278068792E1,1.547781372E0,1.359832214E1,1.580563202E0,1.377708867E1
1.279069692E1,1.150357819E0,1.349413879E1,8.481362915E-1,1.356961459E1
1.280070492E1,6.667135620E-1,1.287487656E1,3.818559265E-1,1.289778149E1
1.281071292E1,3.405418396E-1,1.196896042E1,1.179547119E-1,1.197438498E1
1.282072192E1,1.327738953E-1,1.105945175E1,-4.984634399E-2,1.106036105E1
1.283072992E1,3.667373657E-2,1.026849655E1,-1.740879822E-1,1.027003763E1
1.284073892E1,1.781295776E-1,9.675579529E0,-2.896476746E-1,9.681552827E0
1.285074692E1,6.471043396E-1,9.264384613E0,-5.792953491E-1,9.305006684E0
1.286075492E1,1.886526947E0,9.348809052E0,-6.687193909E0,1.164808040E1
1.287076392E1,3.003204803E0,9.748477936E0,-1.223211319E1,1.592722996E1
1.288077192E1,3.183430023E0,9.646988983E0,-9.621990967E0,1.399218830E1
1.289077992E1,3.967948608E0,8.820108490E0,-5.396877136E0,1.107543285E1
1.290078892E1,3.946692810E0,8.814719696E0,-8.611592102E-1,9.696249927E0
1.291079692E1,3.723955994E0,9.203161926E0,1.402283936E0,1.002658655E1
1.292080592E1,3.361409912E0,9.403445435E0,2.699187012E0,1.034453833E1
1.293081392E1,3.277584229E0,9.742939453E0,3.165167999E0,1.075572945E1
1.294082192E1,3.401975555E0,9.601782990E0,3.010689240E0,1.062223724E1
1.295083092E1,3.389102325E0,9.254355469E0,2.838547211E0,1.025604505E1
1.296083892E1,3.453917542E0,9.018895111E0,2.486030273E0,9.972480230E0
1.297084792E1,3.815116425E0,8.898096313E0,1.207838287E0,9.756541634E0
1.298085592E1,4.152514801E0,9.044791260E0,-5.713618469E-1,9.968855625E0
1.299086392E1,4.401596832E0,9.237590332E0,-2.102827148E0,1.044648323E1
1.300087292E1,4.336781616E0,9.433532867E0,-2.419269104E0,1.066077296E1
1.301088092E1,3.767964478E0,9.699679413E0,-1.784139862E0,1.055767456E1
1.302088892E1,3.137176208E0,9.792486420E0,-5.791456604E-1,1.029903270E1
1.303089792E1,2.768492889E0,9.470505981E0,2.894979858E-1,9.871111665E0
1.304090592E1,2.503244476E0,8.964857483E0,7.836204529E-1,9.340715369E0
1.305091492E1,2.357597351E0,8.353977814E0,1.321751404E0,8.780332417E0
1.306092292E1,2.340981903E0,7.752079468E0,1.998643799E0,8.340833854E0
1.307093092E1,2.370769958E0,7.265441437E0,2.809956665E0,8.142668231E0
1.308093992E1,2.477348328E0,7.067852325E0,3.669469299E0,8.340071712E0
1.309094792E1,2.613115997E0,6.986571350E0,4.728067932E0,8.831488030E0
1.310095692E1,2.761158142E0,6.927444305E0,5.562582550E0,9.303537151E0
1.311096492E1,2.854414215E0,7.180418243E0,6.066584473E0,9.823926599E0
1.312097292E1,2.991828461E0,7.531288605E0,6.306385803E0,1.026848808E1
1.313098192E1,3.139571228E0,7.933202820E0,6.164480896E0,1.052584625E1
1.314098992E1,3.191213837E0,8.297395477E0,5.663323059E0,1.054058089E1
1.315099792E1,2.880010986E0,8.713829498E0,4.688101044E0,1.030551208E1
1.316100692E1,2.392923889E0,9.163344727E0,3.578608246E0,1.012419914E1
1.317101492E1,1.961371307E0,9.492360535E0,2.903362427E0,1.011836940E1
1.318102392E1,1.614692230E0,9.747579803E0,2.730322266E0,1.025071718E1
1.319103192E1,1.581012268E0,9.818232880E0,3.078498230E0,1.041030490E1
1.320103992E1,1.923949127E0,9.743837585E0,3.549868011E0,1.054729890E1
1.321104892E1,2.424358521E0,9.462572479E0,3.622317352E0,1.041820403E1
1.322105692E1,2.833457794E0,8.975485382E0,3.261417847E0,9.961157929E0
1.323106592E1,2.989583130E0,8.539442139E0,3.046165466E0,9.546664516E0
1.324107392E1,3.000061340E0,8.200097809E0,3.294349365E0,9.332454654E0
1.325108192E1,3.030597839E0,7.880512390E0,3.811523895E0,9.263623114E0
1.326109092E1,3.088377686E0,7.608527985E0,4.114194489E0,9.184463572E0
1.327109892E1,3.122806091E0,7.462282104E0,4.045337677E0,9.044463998E0
1.328110692E1,3.221001892E0,7.357799377E0,4.029919739E0,8.986229352E0
1.329111592E1,3.362308044E0,7.242988129E0,4.075275421E0,8.965147081E0
1.330112392E1,3.536096649E0,7.042854309E0,4.185895386E0,8.923424035E0
1.331113292E1,3.675456848E0,6.855144653E0,4.252057800E0,8.864648149E0
1.332114092E1,3.842060394E0,6.792275391E0,4.231999512E0,8.877288602E0
1.333114892E1,3.995790710E0,6.930887146E0,4.079167328E0,8.980152901E0
1.334115792E1,4.084556122E0,7.261250153E0,3.849544830E0,9.177600334E0
1.335116592E1,4.145180054E0,7.693401489E0,3.689677277E0,9.486024592E0
1.336117492E1,4.018244019E0,8.273295593E0,3.626209259E0,9.886510939E0
1.337118292E1,3.862418060E0,8.785530396E0,3.619173889E0,1.025681419E1
1.338119092E1,3.670367432E0,9.276509399E0,3.661535797E0,1.062695009E1
1.339119992E1,3.512146454E0,9.682914276E0,3.682043152E0,1.093853022E1
1.340120792E1,3.395389252E0,9.911788330E0,3.718716888E0,1.111760187E1
1.341121692E1,3.371588745E0,9.944869537E0,3.798950043E0,1.116691821E1
1.342122492E1,3.550017700E0,9.853709106E0,3.948189697E0,1.119314124E1
1.343123292E1,3.859424286E0,1.000714005E1,4.151766357E0,1.150109436E1
1.344124192E1,4.209097137E0,1.072848999E1,4.324956207E0,1.230943713E1
1.345124992E1,4.649331665E0,1.211311066E1,4.448150024E0,1.371604073E1
1.346125792E1,5.088518372E0,1.403152130E1,4.421954498E0,1.556696152E1
1.347126692E1,5.387895813E0,1.596849335E1,4.303999786E0,1.739386717E1
1.348127492E1,5.547913055E0,1.705448502E1,4.142335968E0,1.840635069E1
1.349128392E1,5.404660950E0,1.573842178E1,3.645519104E0,1.703520149E1
1.350129192E1,4.707111511E0,1.210921875E1,2.546504517E0,1.323913754E1
1.351129992E1,3.631598053E0,8.999734955E0,1.229992218E0,9.782464645E0
1.352130950E1,2.523901520E0,6.483916626E0,5.230123901E-1,6.977449079E0
1.353131750E1,1.832339630E0,5.045108643E0,2.395019531E-1,5.372890369E0
1.354132650E1,1.477577362E0,4.805007935E0,5.060975647E-1,5.052471757E0
1.355133450E1,1.569336548E0,5.233566742E0,9.741741943E-1,5.549959766E0
1.356134250E1,1.895059204E0,6.684050446E0,1.517394562E0,7.111277382E0
1.357135150E1,2.169139252E0,8.712931366E0,1.702110443E0,9.138791936E0
1.358135950E1,2.302062836E0,1.094089828E1,1.441053314E0,1.127294918E1
1.359136750E1,2.418071594E0,1.295615753E1,1.182091827E0,1.323277859E1
1.360137650E1,2.503843231E0,1.405502243E1,1.205143890E0,1.432708129E1
1.361138450E1,2.679877167E0,1.339654175E1,1.233285370E0,1.371750944E1
1.362139350E1,2.764151917E0,1.123518631E1,1.041833496E0,1.161702906E1
1.363140150E1,2.635120239E0,9.111103363E0,9.545649719E-1,9.532431875E0
1.364140950E1,2.408940582E0,7.495962067E0,9.868977356E-1,7.935137628E0
1.365141850E1,2.171833649E0,6.437513123E0,1.114432526E0,6.884794583E0
1.366142650E1,1.964963837E0,5.765111389E0,1.144070892E0,6.197297025E0
1.367143550E1,1.797761536E0,5.324427795E0,1.025667114E0,5.712571305E0
1.368144350E1,1.684147797E0,5.255870361E0,9.337582397E-1,5.597537986E0
1.369145150E1,1.649569702E0,5.697152710E0,9.349557495E-1,6.004396011E0
1.370146050E1,1.654808807E0,6.695277100E0,9.786648560E-1,6.965838968E0
1.371146850E1,1.760339355E0,7.874824219E0,9.937834167E-1,8.130144931E0
1.372147750E1,1.836530914E0,9.019942932E0,9.701325989E-1,9.255991225E0
1.373148550E1,1.789528656E0,1.004665787E1,8.336164856E-1,1.023878233E1
1.374149350E1,1.659299469E0,1.075288925E1,6.794371033E-1,1.090135481E1
1.375150250E1,1.470841370E0,1.094598770E1,5.007087708E-1,1.105571031E1
1.376151050E1,1.246757355E0,1.068493057E1,3.673361206E-1,1.076369272E1
1.377151950E1,1.077459412E0,1.007195526E1,3.438349915E-1,1.013525649E1
1.378152750E1,9.551637268E-1,9.312883759E0,4.061054993E-1,9.370542317E0
1.379153550E1,9.165440369E-1,8.669521637E0,5.388793945E-1,8.734474763E0
1.380154450E1,9.635462952E-1,8.255482635E0,7.894583130E-1,8.348931634E0
1.381155250E1,1.039139099E0,8.035739594E0,1.072220306E0,8.173284362E0
1.382156050E1,1.163530426E0,7.823780365E0,1.246158600E0,8.007387433E0
1.383156950E1,1.315314789E0,7.760462036E0,1.481469269E0,8.009342994E0
1.384157750E1,1.493294678E0,8.036338348E0,1.654958496E0,8.339757231E0
1.385158650E1,1.666933594E0,8.422834625E0,1.885628815E0,8.790813771E0
1.386159450E1,1.857487335E0,8.855285339E0,2.064656525E0,9.280578872E0
1.387160250E1,2.111209717E0,9.278754730E0,2.175276489E0,9.761368942E0
1.388161150E1,2.370620270E0,9.547895050E0,2.194885712E0,1.007966585E1
1.389161950E1,2.644400940E0,9.685159607E0,1.936972046E0,1.022482438E1
1.390162850E1,3.042872314E0,9.785600739E0,9.310638428E-1,1.028999192E1
1.391163650E1,3.497626648E0,9.855655060E0,-6.556365967E-1,1.047841535E1
1.392164450E1,3.856879578E0,9.769434357E0,-2.120041351E0,1.071503351E1
1.393165350E1,3.993545380E0,9.490115204E0,-2.734064484E0,1.065297141E1
1.394166150E1,3.961961060E0,9.024283905E0,-2.369273071E0,1.013648313E1
1.395167050E1,3.795058136E0,8.536598053E0,-1.251996460E0,9.425681286E0
1.396167850E1,3.533402252E0,8.137228546E0,2.459385681E-1,8.874677778E0
1.397168650E1,3.308569794E0,7.866441650E0,1.615290985E0,8.685430518E0
1.398169550E1,3.173400879E0,7.650440826E0,2.688259735E0,8.707838904E0
1.399170350E1,3.199446716E0,7.531737671E0,3.234324188E0,8.799112716E0
1.400171250E1,3.355122986E0,7.589966583E0,3.119363251E0,8.865374785E0
1.401172050E1,3.603905640E0,7.784262543E0,2.568209381E0,8.954249193E0
1.402172850E1,3.832929382E0,8.120313721E0,1.813927917E0,9.160850237E0
1.403173750E1,4.032913513E0,8.548124084E0,1.117725677E0,9.517569409E0
1.404174550E1,4.073479156E0,9.256301422E0,7.571255493E-1,1.014128136E1
1.405175450E1,4.041745148E0,1.005923172E1,9.794132996E-1,1.088499412E1
1.406176250E1,4.006268921E0,1.077564194E1,1.469793549E0,1.158986380E1
1.407177050E1,3.867208099E0,1.146001877E1,1.879341888E0,1.224006759E1
1.408177950E1,3.700903931E0,1.203033279E1,2.188748474E0,1.277561024E1
1.409178750E1,3.521576843E0,1.236638397E1,2.467319183E0,1.309261700E1
1.410179650E1,3.437451782E0,1.244287491E1,2.769540710E0,1.320271057E1
1.411180450E1,3.486549683E0,1.228764771E1,2.942580872E0,1.310729175E1
1.412181250E1,3.611090698E0,1.180205750E1,2.983146515E0,1.269754702E1
1.413182150E1,3.781286774E0,1.123803040E1,2.893782349E0,1.220513962E1
1.414182950E1,4.026776276E0,1.088506439E1,2.673290863E0,1.190991344E1
1.415183750E1,4.325854340E0,1.083806213E1,2.209704895E0,1.187684311E1
1.416184650E1,4.702171783E0,1.102307739E1,1.428329773E0,1.206891796E1
1.417185450E1,5.351820831E0,1.114597183E1,-5.974076843E-1,1.237867401E1
1.418186350E1,6.030659180E0,1.110690308E1,-3.018023987E0,1.299386836E1
1.419187150E1,6.151008911E0,1.111019623E1,-3.642974396E0,1.321145841E1
1.420187950E1,4.658762054E0,1.137768997E1,-2.306403809E0,1.250901241E1
1.421188850E1,3.230581970E0,1.091111023E1,-8.057743835E-1,1.140781568E1
1.422189650E1,2.622696075E0,9.668394470E0,1.981878662E-1,1.001976371E1
1.423190550E1,2.231409760E0,8.429570618E0,7.677534485E-1,8.753644708E0
1.424191350E1,1.796713715E0,7.619155884E0,8.967851257E-1,7.879336274E0
1.425192150E1,1.418300629E0,7.179819489E0,8.026309204E-1,7.362445311E0
1.426193050E1,9.610015869E-1,7.080875244E0,-1.933978271E-1,7.148406885E0
1.427193850E1,7.529342651E-2,6.638994141E0,-6.368955688E0,9.200299390E0
1.428194750E1,-7.384144592E-1,6.693630524E0,-1.273791138E1,1.440848124E1
1.429195550E1,-1.010847931E0,9.812095642E0,-6.280639343E0,1.169382166E1
1.430196350E1,-4.399351501E-1,1.285137543E1,4.706213379E-1,1.286751249E1
1.431197250E1,2.538720703E-1,1.411669418E1,2.583777008E0,1.435344590E1
1.432198050E1,1.112187195E0,1.418195847E1,2.808160400E0,1.450002314E1
1.433198950E1,1.738335114E0,1.382899246E1,1.585353241E0,1.402769355E1
1.434199750E1,2.675087128E0,1.287397842E1,-1.113384705E0,1.319602353E1
1.435200550E1,4.206552429E0,1.166075134E1,-5.692063293E0,1.364066676E1
1.436201450E1,5.497018890E0,1.102412521E1,-8.186625824E0,1.479085514E1
1.437202250E1,5.758974152E0,1.013542328E1,-6.022276611E0,1.312099096E1
1.438203150E1,5.526357880E0,8.822503510E0,-2.128872986E0,1.062587878E1
1.439203950E1,5.687722321E0,7.161258087E0,1.327289886E0,9.240968620E0
1.440204750E1,5.843099213E0,5.913153534E0,3.933520203E0,9.196726282E0
1.441205650E1,6.178851013E0,5.129982147E0,6.461613007E0,1.030763597E1
1.442206450E1,6.448739777E0,4.567601624E0,8.629105682E0,1.170088433E1
1.443207350E1,6.739884338E0,4.295617218E0,9.660011902E0,1.253771104E1
1.444208150E1,6.725963287E0,4.305197296E0,9.451495514E0,1.237352308E1
1.445208950E1,6.010002136E0,4.971312103E0,7.402556305E0,1.075322787E1
1.446209850E1,4.534520416E0,6.098468170E0,4.011657715E0,8.593403694E0
1.447210650E1,3.089575195E0,7.289391632E0,1.676064606E0,8.092582889E0
1.448211550E1,1.807042236E0,8.685388641E0,8.274792480E-1,8.909887732E0
1.449212350E1,7.450007629E-1,9.880653076E0,1.200653229E0,9.981177261E0
1.450213150E1,3.293151855E-2,1.053973251E1,2.322719879E0,1.079268611E1
1.451214050E1,-1.267863464E-1,1.052910461E1,3.007845154E0,1.095103882E1
1.452214817E1,8.467890930E-1,9.467362518E0,3.025209045E0,9.974963388E0
1.453215717E1,2.134261780E0,8.007149048E0,2.836152191E0,8.758611104E0
1.454216517E1,2.465373230E0,7.113357697E0,2.974314880E0,8.094718765E0
1.455217317E1,2.363584900E0,6.805447998E0,3.077001343E0,7.833810905E0
1.456218217E1,2.154020691E0,6.633455658E0,3.226839752E0,7.684727314E0
1.457219017E1,2.001338196E0,6.472240906E0,3.515888672E0,7.632609650E0
1.458219917E1,2.028880920E0,6.236780548E0,4.073030090E0,7.720321464E0
1.459220717E1,2.303709412E0,5.976172485E0,4.748575287E0,7.973122468E0
1.460221517E1,2.760260010E0,5.759123840E0,5.050946503E0,8.142395428E0
1.461222417E1,3.437451782E0,5.821244659E0,5.246140594E0,8.557158131E0
1.462223217E1,4.271068268E0,6.301895142E0,5.395230560E0,9.330831652E0
1.463224117E1,5.200934601E0,7.317832489E0,5.320984955E0,1.043615226E1
1.464224917E1,6.043981476E0,8.522826691E0,4.890779572E0,1.153637775E1
1.465225717E1,6.694079590E0,9.569001160E0,4.444108429E0,1.249506240E1
1.466226617E1,6.969506836E0,1.020338196E1,4.043840790E0,1.300137213E1
1.467227417E1,6.860982513E0,1.058568695E1,3.800446930E0,1.317471996E1
1.468228317E1,6.374344482E0,1.082339264E1,3.482358398E0,1.303475799E1
1.469229117E1,5.758076019E0,1.077055252E1,3.019221497E0,1.258077659E1
1.470229917E1,5.259911957E0,1.042177780E1,2.748284912E0,1.199304783E1
1.471230817E1,5.064867554E0,9.942923584E0,2.912343750E0,1.153240473E1
1.472231617E1,5.163362732E0,9.458381195E0,3.461401978E0,1.131824161E1
1.473232517E1,5.244344330E0,9.466464386E0,3.950435028E0,1.152054827E1
1.474233317E1,5.233117676E0,1.045635590E1,4.012555847E0,1.236209948E1
1.475234117E1,5.304219818E0,1.249481689E1,3.738475800E0,1.407946726E1
1.476235017E1,5.212161255E0,1.491139160E1,2.940335541E0,1.606741415E1
1.477235817E1,4.707560577E0,1.672382263E1,7.643106079E-1,1.739055895E1
1.478236717E1,3.477867737E0,1.740505600E1,-4.570595398E0,1.832817178E1
1.479237517E1,1.980381775E0,1.607372452E1,-7.556436310E0,1.787138108E1
1.480238417E1,1.107846222E0,1.319446198E1,-5.418731689E0,1.430677473E1
1.481239217E1,1.154998169E0,1.023721161E1,-1.099763031E0,1.036069501E1
1.482240017E1,1.691332855E0,8.180189209E0,2.124831390E0,8.619223327E0
1.483240917E1,2.050735474E0,7.018005981E0,3.501219177E0,8.106568921E0
1.484241717E1,1.980531464E0,6.186485138E0,4.030518494E0,7.644617882E0
1.485242617E1,1.793270874E0,5.654641113E0,3.968247986E0,7.137070731E0
1.486243417E1,1.532812500E0,5.783074036E0,3.678001556E0,7.022902172E0
1.487244217E1,1.398691406E0,6.591093750E0,3.413501587E0,7.553201146E0
1.488245117E1,1.425934753E0,7.783963165E0,3.183280334E0,8.529750651E0
1.489245917E1,1.460961914E0,9.042396240E0,3.000061340E0,9.638449436E0
1.490246817E1,1.495240631E0,1.011446686E1,2.629132690E0,1.055701298E1
1.491247617E1,1.516795807E0,1.085512665E1,2.136207733E0,1.116681815E1
1.492248417E1,1.500479736E0,1.111827942E1,1.507365417E0,1.131988194E1
1.493249317E1,1.389261017E0,1.086500610E1,7.839198303E-1,1.098148142E1
1.494250117E1,1.276994476E0,1.014739838E1,2.511776733E-1,1.023051802E1
1.495251017E1,1.145867157E0,9.288185120E0,-2.454895020E-2,9.358632219E0
1.496251817E1,1.037941589E0,8.528514862E0,-1.038839722E-1,8.592070785E0
1.497252617E1,8.714877319E-1,7.926167450E0,-9.280700684E-2,7.974473929E0
1.498253517E1,7.363188171E-1,7.508086853E0,-3.742218018E-3,7.544106812E0
1.499254317E1,6.083349609E-1,7.280859375E0,1.112187195E-1,7.307075630E0
1.500255217E1,4.715194702E-1,7.281009064E0,2.502795410E-1,7.300552270E0
1.501256017E1,3.273692322E-1,7.510481873E0,4.083508301E-1,7.528695702E0
1.502256817E1,1.836680603E-1,7.972720642E0,5.845344543E-1,7.996229669E0
1.503257717E1,6.900650024E-2,8.547225952E0,7.988887024E-1,8.584757220E0
1.504258517E1,-2.724334717E-2,9.171876984E0,1.022673340E0,9.228755624E0
1.505259417E1,-1.056802368E-1,9.727820892E0,1.219514008E0,9.804533749E0
1.506260217E1,-4.625381470E-2,9.997859344E0,1.452429657E0,1.010291457E1
1.507261017E1,1.986369324E-1,9.773775330E0,1.562001801E0,9.899797495E0
1.508261917E1,5.158273315E-1,9.338031464E0,1.498683472E0,9.471587069E0
1.509262717E1,8.818162537E-1,8.825347595E0,1.478475494E0,8.991676700E0
1.510263617E1,1.239123230E0,8.408763885E0,1.553170166E0,8.640316778E0
1.511264417E1,1.546583862E0,8.174201660E0,1.714235229E0,8.494003582E0
1.512265217E1,1.852697296E0,8.089178467E0,1.876048737E0,8.508046450E0
1.513266117E1,2.221829681E0,8.099357300E0,1.887574768E0,8.608080756E0
1.514266917E1,2.694396973E0,8.191864929E0,1.548230438E0,8.761474965E0
1.515267817E1,3.350482635E0,8.449329529E0,4.710704041E-1,9.101582868E0
1.516268617E1,4.179907837E0,8.791068878E0,-1.388213196E0,9.832683124E0
1.517269417E1,4.957690430E0,9.160350952E0,-3.088227997E0,1.086406352E1
1.518270317E1,5.359754333E0,9.201066284E0,-2.955603790E0,1.105089051E1
1.519271117E1,5.155728607E0,9.000932465E0,-8.405021667E-1,1.040695761E1
1.520272017E1,4.778962097E0,9.022787018E0,1.187480621E0,1.027906973E1
1.521272817E1,4.532873840E0,9.052575073E0,2.543959808E0,1.043876392E1
1.522273617E1,4.530927887E0,8.998836823E0,3.104544067E0,1.054260715E1
1.523274517E1,4.511767731E0,8.967851257E0,2.954106903E0,1.046447093E1
1.524275317E1,4.548591156E0,8.878187714E0,2.566263428E0,1.030036924E1
1.525276217E1,4.601580963E0,8.734636230E0,1.993105316E0,1.007178665E1
1.526277017E1,4.693340149E0,8.568631439E0,1.399439850E0,9.869514597E0
1.527277817E1,4.729115753E0,8.446635132E0,1.022823029E0,9.734287226E0
1.528278717E1,4.686005402E0,8.311017151E0,8.776249695E-1,9.581329673E0
1.529279517E1,4.331243134E0,8.550968170E0,9.241781616E-1,9.629788627E0
1.530280417E1,4.031266937E0,9.028026123E0,1.170416107E0,9.956216282E0
1.531281217E1,3.919748840E0,9.645192719E0,1.508562927E0,1.051997793E1
1.532282117E1,3.841910706E0,1.042641815E1,1.884131927E0,1.127033391E1
1.533282917E1,3.752247162E0,1.127889542E1,2.282154236E0,1.210376258E1
1.534283717E1,3.595373383E0,1.181313446E1,2.617756348E0,1.262257913E1
1.535284617E1,3.508553925E0,1.208152634E1,2.958298187E0,1.292380584E1
1.536285417E1,3.577111359E0,1.214753906E1,2.895728302E0,1.299013754E1
1.537286317E1,3.732338562E0,1.221938965E1,2.754272461E0,1.307018941E1
1.538287117E1,3.968098297E0,1.234887039E1,2.564317474E0,1.322180503E1
1.539287917E1,4.339026947E0,1.223570572E1,2.349364471E0,1.319314832E1
1.540288817E1,4.623285828E0,1.199036591E1,1.504371643E0,1.293857722E1
1.541289617E1,5.071603546E0,1.108953918E1,-1.312620392E0,1.226466527E1
1.542290517E1,5.137915649E0,9.877359924E0,-4.490661621E0,1.200526793E1
1.543291317E1,3.694018250E0,9.924362183E0,-4.453089752E0,1.148776497E1
1.544292117E1,2.321372681E0,9.986033936E0,-2.786904602E0,1.062433443E1
1.545293017E1,1.671124878E0,9.479636993E0,-1.264420624E0,9.708498102E0
1.546293817E1,1.404229889E0,8.832981720E0,-1.657054138E-1,8.945439393E0
1.547294717E1,1.183439026E0,8.608897705E0,5.225633240E-1,8.705556849E0
1.548295517E1,1.125659180E0,8.738378448E0,9.081614685E-1,8.857263898E0
1.549296317E1,1.057850189E0,9.405541077E0,1.444496155E0,9.574435707E0
1.550297217E1,8.159532166E-1,1.055395294E1,1.974394226E0,1.076800515E1
1.551298017E1,7.336244202E-1,1.224319016E1,-4.842430115E0,1.318647183E1
1.552298842E1,1.719025269E0,1.523651550E1,-1.336825058E1,2.034248205E1
1.553299642E1,2.739453278E0,1.568273758E1,-3.591032410E0,1.632018309E1
1.554300542E1,3.613785095E0,1.428284866E1,1.188528442E-1,1.473340879E1
1.555301342E1,3.928430786E0,1.362870895E1,1.920506287E-1,1.418489195E1
1.556302142E1,4.507875824E0,1.277593231E1,-2.010768585E0,1.369629808E1
1.557303042E1,5.454058228E0,1.161344971E1,-5.156477051E0,1.382780607E1
1.558303842E1,6.156098328E0,1.032477951E1,-6.564449158E0,1.369637220E1
1.559304742E1,6.032006378E0,8.953780518E0,-4.762795715E0,1.179997922E1
1.560305542E1,5.498066711E0,7.652835846E0,-9.921368408E-1,9.475176492E0
1.561306342E1,5.321134644E0,6.336772614E0,1.815873871E0,8.471514561E0
1.562307242E1,5.437442780E0,5.201533356E0,4.407285004E0,8.720429710E0
1.563308042E1,5.606740723E0,4.098926239E0,6.964417419E0,9.835641709E0
1.564308942E1,5.718408508E0,3.574416962E0,8.822353821E0,1.110452968E1
1.565309742E1,5.465135193E0,3.672612762E0,9.404642944E0,1.148055295E1
1.566310542E1,4.929848328E0,4.024830322E0,8.835077362E0,1.088858373E1
1.567311442E1,3.813170471E0,4.727768555E0,6.973847809E0,9.248060219E0
1.568312242E1,2.741099854E0,5.353018341E0,4.996010742E0,7.818475369E0
1.569313142E1,1.881287842E0,6.186485138E0,4.004772034E0,7.605921466E0
1.570313942E1,1.115180969E0,7.027885437E0,3.627257080E0,7.986976664E0
1.571314742E1,5.433700562E-1,7.604336700E0,3.610042877E0,8.435259169E0
1.572315642E1,-5.761518860E-1,8.287366333E0,3.373684387E0,8.966277827E0
1.573316442E1,-1.526824951E0,9.080417175E0,3.138074341E0,9.727933032E0
1.574317342E1,-1.302890625E0,9.638606415E0,2.322570190E0,9.999729491E0
1.575318142E1,-5.942642212E-1,9.831255798E0,1.185834045E0,9.920329779E0
1.576318942E1,3.194357300E-1,9.317075043E0,4.703219604E-1,9.334405674E0
1.577319842E1,7.342231750E-1,8.642577667E0,6.617738342E-1,8.698918152E0
1.578320642E1,1.158890076E0,7.798782349E0,1.533710632E0,8.032203971E0
1.579321542E1,1.691033478E0,7.061116333E0,2.673739929E0,7.737431312E0
1.580322342E1,2.175126801E0,6.806046753E0,3.564986572E0,7.985147354E0
1.581323242E1,2.776875458E0,6.972650299E0,4.260290680E0,8.630119708E0
1.582324042E1,3.673361206E0,7.518565063E0,4.774321747E0,9.634134694E0
1.583324842E1,4.674778748E0,8.388855286E0,5.012177124E0,1.083274521E1
1.584325742E1,5.835315399E0,9.266031189E0,5.126688995E0,1.209103717E1
1.585326542E1,6.946903839E0,9.984087982E0,5.131329346E0,1.320121307E1
1.586327442E1,7.910899200E0,1.028705795E1,4.904401245E0,1.387296072E1
1.587328242E1,8.667575684E0,1.014994308E1,4.424349518E0,1.406140397E1
1.588329042E1,9.248667297E0,9.579629059E0,3.894301758E0,1.387345400E1
1.589329942E1,9.438771973E0,8.800199890E0,3.296445007E0,1.331917731E1
1.590330742E1,8.849148102E0,8.425229645E0,2.263592834E0,1.242641417E1
1.591331642E1,8.205486603E0,8.044271851E0,1.754052429E0,1.162398468E1
1.592332442E1,7.553442535E0,7.606282654E0,2.102827148E0,1.092391468E1
1.593333242E1,6.732549591E0,7.437882843E0,2.521356812E0,1.034439778E1
1.594334142E1,6.013444977E0,7.464826813E0,2.721640320E0,9.964561499E0
1.595334942E1,5.594017181E0,8.481662292E0,2.854563904E0,1.055367986E1
1.596335842E1,5.540428619E0,1.031924103E1,2.937192078E0,1.207518869E1
1.597336642E1,5.655688934E0,1.282173706E1,2.911146240E0,1.431287990E1
1.598337542E1,5.686225433E0,1.567510345E1,2.604883118E0,1.687683158E1
1.599338342E1,5.416336670E0,1.805231003E1,2.108515320E0,1.896492650E1
1.600339142E1,4.697232056E0,1.844254852E1,1.512155457E0,1.909131214E1
1.601340042E1,3.625460815E0,1.626996643E1,1.023421783E0,1.670039418E1
1.602340842E1,2.719844055E0,1.322050781E1,8.885522461E-1,1.352659985E1
1.603341742E1,2.130070496E0,1.064017365E1,9.324110413E-1,1.089127568E1
1.604342542E1,1.590592346E0,8.674611053E0,6.319857788E-1,8.841847486E0
1.605343342E1,9.255253601E-1,7.190896454E0,1.648072815E-1,7.252085937E0
1.606344242E1,4.104464722E-1,6.172264709E0,1.043330383E-1,6.186776490E0
1.607345042E1,4.131408691E-2,5.691763916E0,2.838098145E-1,5.698985115E0
1.608345942E1,-1.043330383E-1,5.724096680E0,6.481521606E-1,5.761620380E0
1.609346742E1,4.161346436E-2,6.277046814E0,9.328601074E-1,6.346122940E0
1.610347542E1,3.610491943E-1,7.355104980E0,1.171164551E0,7.456510725E0
1.611348442E1,6.394702148E-1,8.527317352E0,1.358125763E0,8.658439176E0
1.612349242E1,7.858657837E-1,9.430389404E0,1.577868805E0,9.593721870E0
1.613350142E1,8.614585876E-1,1.006731491E1,1.817670135E0,1.026629754E1
1.614350942E1,8.575666809E-1,1.046219376E1,1.923649750E0,1.067208261E1
1.615351842E1,8.131091309E-1,1.045830185E1,1.767075348E0,1.063765854E1
1.616352642E1,8.436456299E-1,9.995314636E0,1.384171600E0,1.012590656E1
1.617353442E1,8.223898315E-1,9.330846405E0,8.235873413E-1,9.403154565E0
1.618354342E1,9.160949707E-1,8.731343079E0,3.537144470E-1,8.786392654E0
1.619355142E1,1.132095795E0,8.335715790E0,1.122665405E-1,8.412990098E0
1.620356042E1,1.323847046E0,8.363557892E0,7.634124756E-3,8.467687399E0
1.621356842E1,1.503024445E0,8.657696228E0,9.190887451E-2,8.787675102E0
1.622357642E1,1.603016510E0,9.111103363E0,3.204835510E-1,9.256596358E0
1.623358542E1,1.659149780E0,9.519005127E0,5.493576050E-1,9.678121222E0
1.624359342E1,1.753902740E0,9.709259491E0,8.054750061E-1,9.899226468E0
1.625360242E1,1.854044495E0,9.670340424E0,9.508227539E-1,9.892271165E0
1.626361042E1,1.968406677E0,9.398505707E0,1.098864899E0,9.665093814E0
1.627361842E1,2.088756409E0,9.136849823E0,1.233884125E0,9.453433136E0
1.628362742E1,2.250869293E0,8.864116974E0,1.403930511E0,9.252567383E0
1.629363542E1,2.433339844E0,8.653504944E0,1.534608765E0,9.119172916E0
1.630364442E1,2.619702301E0,8.584648132E0,1.525028687E0,9.104105458E0
1.631365242E1,2.850821686E0,8.564440155E0,1.495240631E0,9.149457033E0
1.632366142E1,3.152893524E0,8.587492218E0,1.541344757E0,9.276933967E0
1.633366942E1,3.406017151E0,8.612789612E0,1.539249115E0,9.388843676E0
1.634367742E1,3.617377625E0,8.620723114E0,1.562899933E0,9.478657293E0
1.635368642E1,3.830384674E0,8.602910156E0,1.657802582E0,9.561915044E0
1.636369442E1,3.981869659E0,8.534951477E0,1.725461884E0,9.574857775E0
1.637370342E1,4.080364838E0,8.422086182E0,1.714085541E0,9.514147471E0
1.638371142E1,4.151017914E0,8.270900574E0,1.583407288E0,9.388606108E0
1.639371942E1,4.225113831E0,8.173752594E0,1.470392303E0,9.317932811E0
1.640372842E1,4.278552704E0,8.081244965E0,1.281185760E0,9.233307661E0
1.641373642E1,4.375101929E0,7.923173676E0,9.885443115E-1,9.104692078E0
1.642374542E1,4.561464386E0,7.807763672E0,4.213737488E-1,9.052385693E0
1.643375342E1,4.864733734E0,7.673193512E0,-6.896159363E-1,9.111481938E0
1.644376142E1,5.022355957E0,7.752378845E0,-1.145418091E0,9.307814981E0
1.645377042E1,4.787045288E0,8.056546326E0,-4.492158508E-1,9.382192503E0
1.646377842E1,4.478686523E0,8.310867462E0,4.625381470E-1,9.452147507E0
1.647378742E1,4.291276245E0,8.430319061E0,1.201701050E0,9.535691726E0
1.648379542E1,4.237687683E0,8.496930542E0,1.654210052E0,9.638061861E0
1.649380442E1,4.242477722E0,8.475525055E0,1.787283325E0,9.645077701E0
1.650381242E1,4.202061768E0,8.341254272E0,1.776356049E0,9.507328055E0
1.651382042E1,4.103117523E0,8.363557892E0,1.641037445E0,9.459264132E0
1.652383012E1,4.132606201E0,8.539891205E0,1.589694214E0,9.619527197E0
1.653383813E1,4.133953400E0,8.682694244E0,1.604513397E0,9.749523747E0
1.654384712E1,4.045487366E0,8.925489349E0,1.591041412E0,9.927826596E0
1.655385512E1,3.884422302E0,9.338330841E0,1.552870789E0,1.023252497E1
1.656386313E1,3.691323853E0,9.791737976E0,1.560953979E0,1.058019762E1
1.657387212E1,3.465144196E0,1.023122406E1,1.542691956E0,1.091169412E1
1.658388012E1,3.298690338E0,1.069690567E1,1.641486511E0,1.131369201E1
1.659388913E1,3.228785706E0,1.113833771E1,1.821711731E0,1.173909101E1
1.660389713E1,3.298840027E0,1.152812714E1,2.181563416E0,1.218766917E1
1.661390612E1,3.536695404E0,1.170041885E1,2.462978210E0,1.246893249E1
1.662391413E1,3.851939850E0,1.171568710E1,2.390079803E0,1.256213542E1
1.663392213E1,4.159550171E0,1.189486450E1,2.133513336E0,1.278051401E1
1.664393112E1,4.574487305E0,1.214200058E1,1.337468719E0,1.304388496E1
1.665393913E1,5.060526581E0,1.240515335E1,1.856140137E-2,1.339765291E1
1.666394813E1,5.347928925E0,1.254616013E1,-1.193767548E0,1.369056458E1
1.667395612E1,4.744084625E0,1.272833130E1,-8.482859802E-1,1.361015598E1
1.668396413E1,3.904480591E0,1.240171051E1,4.200265503E-1,1.300860540E1
1.669397313E1,3.338208160E0,1.126302841E1,9.997709656E-1,1.178978306E1
1.670398112E1,2.827919312E0,1.007899063E1,1.123114471E0,1.052827459E1
1.671399012E1,2.325264587E0,9.107810211E0,1.033450928E0,9.456589399E0
1.672399813E1,1.963616638E0,8.151898041E0,5.905220032E-1,8.405828228E0
1.673400612E1,1.571881256E0,7.356302490E0,-3.830534363E-1,7.532113047E0
1.674401512E1,1.235081635E0,6.727759552E0,-2.808609467E0,7.394353411E0
1.675402313E1,1.303788757E0,6.336323547E0,-8.010591888E0,1.029652580E1
1.676403213E1,9.178912354E-1,7.242539063E0,-8.631351013E0,1.130473868E1
1.677404012E1,2.667453003E-1,8.803942108E0,-4.956792297E0,1.010694512E1
1.678404913E1,-2.215393066E-2,1.035067566E1,-4.493655396E-1,1.036044916E1
1.679405713E1,8.349636841E-1,1.174412796E1,2.235002289E0,1.198402859E1
1.680406512E1,1.861528931E0,1.246607666E1,2.783312073E0,1.290795039E1
1.681407413E1,2.268233185E0,1.302606216E1,2.557282104E0,1.346710322E1
1.682408213E1,2.907703400E0,1.310195435E1,1.455273743E0,1.349939882E1
1.683409112E1,4.036356354E0,1.253568192E1,-1.028211823E0,1.320956900E1
1.684409913E1,5.185816040E0,1.160895905E1,-3.475921783E0,1.318114754E1
1.685410813E1,5.810167694E0,1.050335815E1,-3.674558716E0,1.255312562E1
1.686411612E1,5.664071503E0,9.477840729E0,-1.690734100E0,1.117003817E1
1.687412413E1,5.515430603E0,8.187973022E0,1.393601990E0,9.970205788E0
1.688413313E1,5.667963409E0,7.016509094E0,3.517535248E0,9.681439113E0
1.689414112E1,5.946833496E0,6.052513733E0,5.192851410E0,9.948037841E0
1.690415012E1,6.337820435E0,5.274431763E0,6.470594330E0,1.048123033E1
1.691415813E1,6.507268066E0,4.539909210E0,7.348368988E0,1.081451987E1
1.692416612E1,6.367907867E0,4.280947723E0,7.256909180E0,1.056122601E1
1.693417512E1,5.831573181E0,4.681963806E0,5.989794159E0,9.581527275E0
1.694418313E1,4.678071899E0,5.659730530E0,3.601959686E0,8.178693046E0
