"Time (s)","Acceleration x (m/s^2)","Acceleration y (m/s^2)","Acceleration z (m/s^2)","Absolute acceleration (m/s^2)"
8.397916681E-4,-4.908442841E0,-7.699987793E-1,2.089953918E0,5.390140687E0
1.084879167E-2,-4.481979675E0,-1.071172485E0,1.982028351E0,5.016372064E0
2.085779167E-2,-3.973936157E0,-1.435215454E0,1.758543091E0,4.576514589E0
3.086579167E-2,-3.440744934E0,-1.731000366E0,1.523681488E0,4.142063887E0
4.087479167E-2,-2.888992310E0,-1.995949402E0,1.296903076E0,3.743267045E0
5.088379167E-2,-2.415526886E0,-2.195933533E0,1.106798401E0,3.447012753E0
6.089179167E-2,-2.077230377E0,-2.323917389E0,9.581575012E-1,3.260911509E0
7.090079167E-2,-1.829944611E0,-2.414329376E0,8.641529846E-1,3.150308556E0
8.090979167E-2,-1.660496979E0,-2.482886810E0,8.184979248E-1,3.097081849E0
9.091779167E-2,-1.622326355E0,-2.515518951E0,8.196954346E-1,3.103494644E0
1.009267917E-1,-1.736089783E0,-2.410886536E0,9.328601074E-1,3.113937957E0
1.109357917E-1,-1.993554382E0,-2.265239410E0,1.069376221E0,3.201426895E0
1.209437917E-1,-2.347568207E0,-2.150128784E0,1.257834320E0,3.422904826E0
1.309527917E-1,-2.765349426E0,-1.900298309E0,1.432521057E0,3.648343144E0
1.409617917E-1,-2.984493713E0,-1.636546783E0,1.613195343E0,3.766681207E0
1.509707917E-1,-3.209026794E0,-1.360520782E0,1.591340790E0,3.831610011E0
1.609787917E-1,-3.516786804E0,-1.177451477E0,1.540746002E0,4.015978044E0
1.709877917E-1,-3.937711487E0,-9.581575012E-1,1.607956238E0,4.359949634E0
1.809967917E-1,-4.537065125E0,-4.430786133E-1,1.653012543E0,4.849095696E0
1.910047917E-1,-5.266797638E0,2.421963501E-1,1.729054413E0,5.548643581E0
2.010137917E-1,-5.854176178E0,8.794212341E-1,1.908531189E0,6.219907695E0
2.110227917E-1,-6.394253082E0,1.539997559E0,1.779499512E0,6.813566135E0
2.210307917E-1,-7.026538239E0,2.296524353E0,1.491049347E0,7.541186371E0
2.310397917E-1,-7.609875183E0,3.002456360E0,1.252744904E0,8.276129185E0
2.410487917E-1,-8.352031860E0,3.845353546E0,1.007105713E0,9.249726591E0
2.510567917E-1,-9.226663055E0,4.911436615E0,8.412506104E-1,1.048623971E1
2.610657917E-1,-1.020981857E1,6.276597748E0,7.526348877E-1,1.200843595E1
2.710747917E-1,-1.121003860E1,7.917784882E0,7.057823181E-1,1.374243107E1
2.810827917E-1,-1.219409225E1,9.754166107E0,7.384144592E-1,1.563281479E1
2.910917917E-1,-1.335298233E1,1.196731384E1,9.141490173E-1,1.795423087E1
3.011007917E-1,-1.400951706E1,1.422821228E1,1.327140198E0,2.001174390E1
3.111087917E-1,-1.412477737E1,1.650961807E1,1.939367065E0,2.181371058E1
3.211177917E-1,-1.393347519E1,1.908621002E1,2.668500824E0,2.378121192E1
3.311267917E-1,-1.354533234E1,2.143767014E1,3.060385895E0,2.554242923E1
3.411347917E-1,-1.281979111E1,2.286570053E1,3.230132904E0,2.641251717E1
3.511437917E-1,-1.201551361E1,2.319157288E1,3.545527039E0,2.635891465E1
3.611527917E-1,-1.142514130E1,2.274505142E1,3.844006348E0,2.574194248E1
3.711617917E-1,-1.108175537E1,2.220198074E1,3.943399658E0,2.512535874E1
3.811697917E-1,-1.073926758E1,2.178330139E1,3.836222534E0,2.458781590E1
3.911787917E-1,-1.041564056E1,2.155397827E1,3.443289642E0,2.418503238E1
4.011877917E-1,-9.931397552E0,2.113904114E1,3.140768738E0,2.356599554E1
4.111957917E-1,-9.514664154E0,2.035631882E1,3.003653870E0,2.267003499E1
4.212047917E-1,-9.300309906E0,1.917258041E1,2.875520325E0,2.150237711E1
4.312137917E-1,-9.051527252E0,1.758498184E1,2.692600708E0,1.996025627E1
4.412217917E-1,-8.621022491E0,1.600531677E1,2.454895020E0,1.834444612E1
4.512307917E-1,-8.172704773E0,1.467473373E1,2.315085754E0,1.695584075E1
4.612397917E-1,-7.920628967E0,1.347827179E1,2.292482758E0,1.580049527E1
4.712477917E-1,-7.743247833E0,1.247969833E1,2.287093964E0,1.486376656E1
4.812567917E-1,-7.566764832E0,1.156165741E1,2.331701202E0,1.401301832E1
4.912657917E-1,-7.374414825E0,1.063523392E1,2.503693542E0,1.318175542E1
5.012737917E-1,-7.097640381E0,9.639953613E0,2.636168060E0,1.225783777E1
5.112827917E-1,-6.900650024E0,8.684340820E0,2.596799927E0,1.139210762E1
5.212917917E-1,-6.744524689E0,7.963889008E0,2.641257477E0,1.076514665E1
5.312997917E-1,-6.420897675E0,7.283853149E0,2.788102112E0,1.010227484E1
5.413087917E-1,-6.044430542E0,6.518943787E0,2.769690399E0,9.311442078E0
5.513177917E-1,-5.755980377E0,5.722749481E0,2.639760590E0,8.535192306E0
5.613257917E-1,-5.419629822E0,5.032834167E0,2.470911713E0,7.797897913E0
5.713347917E-1,-4.992717590E0,4.470303955E0,2.198777618E0,7.053046817E0
5.813437917E-1,-4.536166992E0,3.976630554E0,1.911524963E0,6.328058883E0
5.913517917E-1,-4.130959625E0,3.584446106E0,1.641785889E0,5.710388972E0
6.013607917E-1,-3.774700470E0,3.282374268E0,1.330133972E0,5.176060360E0
6.113697917E-1,-3.445385284E0,3.142864380E0,1.179547119E0,4.810364609E0
6.213787917E-1,-3.100352783E0,3.028352509E0,1.239572296E0,4.507731777E0
6.313867917E-1,-2.864443359E0,2.819237366E0,1.319805450E0,4.230250762E0
6.413957917E-1,-2.674338684E0,2.577340393E0,1.371597748E0,3.959299342E0
6.514047917E-1,-2.415077820E0,2.178270264E0,1.292262726E0,3.499629290E0
6.614127917E-1,-2.074985046E0,1.725012817E0,1.096619568E0,2.912697485E0
6.714259167E-1,-1.652563477E0,1.425036621E0,9.906399536E-1,2.396468847E0
6.814349167E-1,-1.313817902E0,1.270108795E0,9.809101868E-1,2.074000633E0
6.914429167E-1,-1.142424316E0,1.085841980E0,8.794212341E-1,1.804873356E0
7.014519167E-1,-1.077309723E0,1.085542603E0,8.210426331E-1,1.735831209E0
7.114609167E-1,-1.099763031E0,1.310674438E0,9.056167603E-1,1.935842949E0
7.214689167E-1,-1.134939880E0,1.499731293E0,9.738748169E-1,2.117950576E0
7.314779167E-1,-1.248403931E0,1.593586121E0,9.265731812E-1,2.226334871E0
7.414869167E-1,-1.357826385E0,1.685494995E0,8.574169922E-1,2.328035603E0
7.514949167E-1,-1.357527008E0,1.750759277E0,8.943901062E-1,2.389136096E0
7.615039167E-1,-1.351389771E0,1.795216827E0,8.749305725E-1,2.411340141E0
7.715129167E-1,-1.338965607E0,1.802102509E0,8.538244629E-1,2.401961399E0
7.815209167E-1,-1.405876465E0,1.884131927E0,9.129515076E-1,2.521888620E0
7.915299167E-1,-1.581311646E0,2.123633881E0,1.004710693E0,2.831927075E0
8.015389167E-1,-1.842219086E0,2.455942841E0,1.094972992E0,3.259507977E0
8.115469167E-1,-2.176473999E0,2.858006744E0,1.198108521E0,3.786912416E0
8.215559167E-1,-2.553240509E0,3.259621582E0,1.231040039E0,4.319679332E0
8.315649167E-1,-2.906805267E0,3.656147003E0,1.210083618E0,4.825062708E0
8.415739167E-1,-3.236868896E0,4.026177521E0,1.206491089E0,5.305002020E0
8.515819167E-1,-3.529061279E0,4.137845306E0,1.251697083E0,5.580571913E0
8.615909167E-1,-3.916904755E0,3.895798645E0,1.334924011E0,5.683433122E0
8.715999167E-1,-4.268373871E0,3.362308044E0,1.404379578E0,5.612166505E0
8.816079167E-1,-4.358336792E0,2.744991760E0,1.417252808E0,5.342161068E0
8.916169167E-1,-4.183799744E0,2.533481598E0,1.319955139E0,5.066062660E0
9.016259167E-1,-4.133654022E0,2.872376862E0,1.039588165E0,5.139882096E0
9.116339167E-1,-4.669090576E0,3.655398560E0,8.560697937E-1,5.991260379E0
9.216429167E-1,-5.874683533E0,4.895120544E0,9.912387085E-1,7.710814868E0
9.316519167E-1,-7.131619720E0,6.185587006E0,1.604214020E0,9.575750052E0
9.416599167E-1,-8.239615631E0,7.097341003E0,2.322121124E0,1.112006122E1
9.516689167E-1,-9.258397064E0,7.956105194E0,2.843037872E0,1.253396946E1
9.616779167E-1,-1.007554779E1,8.983867950E0,3.153941345E0,1.386267985E1
9.716859167E-1,-1.054646851E1,1.006866211E1,3.406166840E0,1.497357429E1
9.816949167E-1,-1.086231171E1,1.151016449E1,3.699706421E0,1.625304678E1
9.917039167E-1,-1.099942657E1,1.363484619E1,4.098028107E0,1.799139378E1
1.001711917E0,-1.116947296E1,1.604393646E1,4.414769440E0,2.004133760E1
1.011720917E0,-1.151525391E1,1.835438187E1,4.825515289E0,2.219842346E1
1.021729917E0,-1.181702637E1,2.037847275E1,5.115761719E0,2.410591798E1
1.031737917E0,-1.189636139E1,2.169169189E1,5.000800781E0,2.524006577E1
1.041746917E0,-1.153426437E1,2.222593094E1,4.519701233E0,2.544521487E1
1.051755917E0,-1.066681824E1,2.215348160E1,3.853137360E0,2.488783690E1
1.061763917E0,-9.688303070E0,2.175036987E1,3.169808350E0,2.402060555E1
1.071772917E0,-8.818761292E0,2.117840927E1,2.720143433E0,2.310183435E1
1.081781917E0,-8.175099792E0,2.047801575E1,2.543361053E0,2.219572191E1
1.091789917E0,-7.861950989E0,1.972238708E1,2.504292297E0,2.137882844E1
1.101798917E0,-7.861052856E0,1.893816788E1,2.524799652E0,2.065974269E1
1.111807917E0,-7.927364960E0,1.823418182E1,2.614612885E0,2.005404454E1
1.121815917E0,-7.941136322E0,1.753408768E1,2.687960358E0,1.943530313E1
1.131824917E0,-7.980654144E0,1.670092026E1,2.702629852E0,1.870603609E1
1.141833917E0,-8.024812317E0,1.593316681E1,2.673290863E0,1.803912141E1
1.151842917E0,-8.160579987E0,1.528276932E1,2.831362152E0,1.755490574E1
1.161850917E0,-8.276439056E0,1.453013443E1,3.131637726E0,1.701268365E1
1.171859917E0,-8.346343689E0,1.349398911E1,3.419339447E0,1.623086804E1
1.181868917E0,-8.354277191E0,1.238105347E1,3.603456573E0,1.536454788E1
1.191876917E0,-8.318202209E0,1.132155670E1,3.733236694E0,1.453640913E1
1.201885917E0,-8.038883057E0,1.017284546E1,3.721710663E0,1.348931265E1
1.211894917E0,-7.559130707E0,9.065897369E0,3.550167389E0,1.232617705E1
1.221902917E0,-7.039561157E0,8.124055939E0,3.290756836E0,1.124209886E1
1.231911917E0,-6.593189392E0,7.272027740E0,2.978506165E0,1.025787662E1
1.241920917E0,-6.209237823E0,6.505022736E0,2.733914795E0,9.399161944E0
1.251928917E0,-5.802234192E0,5.854176178E0,2.616858215E0,8.647846394E0
1.261937917E0,-5.409750366E0,5.235812073E0,2.483335876E0,7.927552218E0
1.271946917E0,-5.011578369E0,4.686005402E0,2.412682800E0,7.272936317E0
1.281954917E0,-4.613556061E0,4.288881226E0,2.369722137E0,6.730154879E0
1.291963917E0,-4.281396790E0,3.954776001E0,2.278112640E0,6.257827809E0
1.301972917E0,-4.040248260E0,3.681594086E0,2.226170654E0,5.901997696E0
1.311980917E0,-3.757785645E0,3.472928009E0,2.199376373E0,5.569509704E0
1.321989917E0,-3.466042328E0,3.206332397E0,2.073637848E0,5.156936182E0
1.331998917E0,-3.211421814E0,2.926564178E0,1.996398468E0,4.781591242E0
1.342006917E0,-2.929408264E0,2.660866699E0,1.968107300E0,4.419851888E0
1.352015917E0,-2.633174286E0,2.353705444E0,1.916165314E0,4.018112200E0
1.362024917E0,-2.382445679E0,2.044149170E0,1.813478851E0,3.625368779E0
1.372032917E0,-2.133962402E0,1.791025543E0,1.691931610E0,3.259478579E0
1.382041917E0,-1.889371033E0,1.589095459E0,1.544937286E0,2.912349309E0
1.392050917E0,-1.738484802E0,1.392554169E0,1.399589539E0,2.630662920E0
1.402058917E0,-1.593586121E0,1.250948639E0,1.356179810E0,2.437952603E0
1.412067917E0,-1.433568878E0,1.236578522E0,1.321152649E0,2.308612243E0
1.422076917E0,-1.338366852E0,1.281934204E0,1.244961090E0,2.232601453E0
1.432084917E0,-1.284029846E0,1.266665955E0,1.279389496E0,2.211337326E0
1.442093917E0,-1.307680664E0,1.202150116E0,1.346300354E0,2.228837873E0
1.452102917E0,-1.343456268E0,1.012494507E0,1.304237823E0,2.128627767E0
1.462111917E0,-1.389261017E0,9.532177734E-1,1.219364319E0,2.079788364E0
1.472119917E0,-1.427581329E0,1.008602600E0,1.070573730E0,2.049730658E0
1.482128917E0,-1.556762695E0,1.110540619E0,9.536668396E-1,2.136888157E0
1.492137917E0,-1.754351807E0,1.236129456E0,8.101153564E-1,2.293916560E0
1.502145917E0,-1.979333954E0,1.313668213E0,6.147715759E-1,2.453860462E0
1.512154917E0,-2.213896179E0,1.433119812E0,4.402345276E-1,2.673756744E0
1.522163917E0,-2.493365021E0,1.519789581E0,2.668949890E-1,2.932211185E0
1.532171917E0,-2.821482697E0,1.640438690E0,2.079176331E-1,3.270326199E0
1.542180917E0,-3.220852203E0,1.769769745E0,1.817221069E-1,3.679537578E0
1.552189917E0,-3.602259064E0,1.800605621E0,2.222877502E-1,4.033343874E0
1.562197917E0,-3.987258453E0,1.761985931E0,2.909948730E-1,4.368924629E0
1.572206917E0,-4.456981659E0,1.917512512E0,3.851490784E-1,4.867225036E0
1.582215917E0,-5.096002808E0,2.481988678E0,5.881269836E-1,5.698719660E0
1.592223917E0,-5.900429993E0,3.328777771E0,8.270301819E-1,6.824940620E0
1.602232917E0,-7.000791779E0,4.470154266E0,9.725276184E-1,8.362964466E0
1.612241917E0,-8.131690063E0,5.825885010E0,1.153201904E0,1.006951807E1
1.622249917E0,-8.866362305E0,7.135960693E0,1.735491028E0,1.151287300E1
1.632258917E0,-9.727072449E0,8.676706696E0,2.587968292E0,1.328904652E1
1.642267917E0,-1.062939606E1,1.037432648E1,3.521876221E0,1.526480666E1
1.652275917E0,-1.127739853E1,1.191896439E1,4.272116089E0,1.695560101E1
1.662284917E0,-1.175565399E1,1.334070786E1,4.902455292E0,1.844461858E1
1.672290667E0,-1.203751785E1,1.469658829E1,5.239554291E0,1.970645763E1
1.682298667E0,-1.230710724E1,1.609483063E1,5.436394958E0,2.097767508E1
1.692307667E0,-1.217283646E1,1.746837433E1,5.517226868E0,2.199458664E1
1.702316667E0,-1.166179916E1,1.838521774E1,5.277724915E0,2.240241441E1
1.712324667E0,-1.103235809E1,1.896466278E1,4.841531982E0,2.246801708E1
1.722333667E0,-1.053045181E1,1.939681412E1,4.373155975E0,2.250002903E1
1.732342667E0,-1.003902374E1,1.954335938E1,3.879931641E0,2.231095612E1
1.742350667E0,-9.606123962E0,1.969858658E1,3.348536682E0,2.217035473E1
1.752359667E0,-9.345216522E0,1.997985168E1,2.906056824E0,2.224798219E1
1.762368667E0,-9.201665039E0,2.022264679E1,2.536325684E0,2.236199970E1
1.772376667E0,-9.188193054E0,2.042098434E1,2.232906647E0,2.250389667E1
1.782385667E0,-9.295519867E0,2.037173676E1,2.092498627E0,2.248983990E1
1.792394667E0,-9.395811310E0,1.999961060E1,2.169438629E0,2.220297633E1
1.802402667E0,-9.265881500E0,1.937630676E1,2.540367279E0,2.162755857E1
1.812411667E0,-9.281598816E0,1.849718491E1,2.847977600E0,2.089030642E1
1.822420667E0,-9.325756989E0,1.748259476E1,3.128643951E0,2.005989222E1
1.832428667E0,-9.268126831E0,1.650273239E1,3.370241547E0,1.922490259E1
1.842437667E0,-9.144633636E0,1.549891983E1,3.606300659E0,1.835337148E1
1.852446667E0,-9.096134491E0,1.441607162E1,3.742667084E0,1.745194375E1
1.862454667E0,-9.048383789E0,1.335492828E1,3.869154053E0,1.658908411E1
1.872463667E0,-8.821455688E0,1.231788483E1,4.029320984E0,1.567749325E1
1.882472667E0,-8.462651825E0,1.110420868E1,4.020788727E0,1.452882199E1
1.892481667E0,-8.048912201E0,9.805060272E0,3.850592651E0,1.325712104E1
1.902489667E0,-7.569459229E0,8.548273773E0,3.546724548E0,1.195612615E1
1.912498667E0,-7.027735748E0,7.342381439E0,3.204386444E0,1.065681601E1
1.922507667E0,-6.432423706E0,6.229445801E0,2.875819702E0,9.404914071E0
1.932515667E0,-5.849086761E0,5.320535889E0,2.600093079E0,8.323484973E0
1.942524667E0,-5.325924683E0,4.528682556E0,2.397863617E0,7.390817908E0
1.952533667E0,-4.956792297E0,3.897744598E0,2.253563690E0,6.696323778E0
1.962541667E0,-4.670587463E0,3.507506104E0,2.233056335E0,6.253281292E0
1.972550667E0,-4.440366211E0,3.231629791E0,2.287243652E0,5.949097975E0
1.982559667E0,-4.235442352E0,3.003953247E0,2.314187622E0,5.684907333E0
1.992567667E0,-3.985013123E0,2.704126740E0,2.221230927E0,5.303442075E0
2.002576667E0,-3.686384125E0,2.444566498E0,2.020498352E0,4.862894906E0
2.012585667E0,-3.280578003E0,2.212099915E0,1.853445740E0,4.369306487E0
2.022593667E0,-2.871478729E0,1.926643524E0,1.720522156E0,3.862323375E0
2.032602667E0,-2.521207123E0,1.667682037E0,1.639989624E0,3.439071779E0
2.042611667E0,-2.295775909E0,1.400188293E0,1.594334564E0,3.126182494E0
2.052619667E0,-2.174378357E0,1.110540619E0,1.592987366E0,2.915275365E0
2.062628667E0,-2.099983063E0,8.848100281E-1,1.695224762E0,2.840176868E0
2.072637667E0,-1.979932709E0,4.983137512E-1,1.747166748E0,2.687199615E0
2.082645667E0,-1.844165039E0,3.159928894E-1,1.711391144E0,2.535676605E0
2.092654667E0,-1.772314453E0,2.435435486E-1,1.647324371E0,2.431890122E0
2.102663667E0,-1.743125153E0,1.872605896E-1,1.545086975E0,2.336845221E0
2.112671667E0,-1.751956787E0,1.245410156E-1,1.355581055E0,2.218662445E0
2.122680667E0,-1.865869904E0,1.695973206E-1,1.128503265E0,2.187179318E0
2.132689667E0,-1.983824615E0,3.579057312E-1,9.768685913E-1,2.240073406E0
2.142697667E0,-2.122735748E0,5.628295898E-1,9.193881226E-1,2.380768515E0
2.152706667E0,-2.337838440E0,7.664062500E-1,9.425898743E-1,2.634642819E0
2.162715667E0,-2.596051483E0,9.759704590E-1,1.048120422E0,2.964887529E0
2.172723667E0,-2.887645111E0,1.386566620E0,1.236279144E0,3.433576474E0
2.182732667E0,-3.227288818E0,1.951192474E0,1.438209229E0,4.036209976E0
2.192741667E0,-3.568429413E0,2.375709686E0,1.503772888E0,4.543018588E0
2.202749667E0,-3.912114716E0,2.710563354E0,1.416803741E0,4.965795816E0
2.212758667E0,-4.175866241E0,3.120411072E0,1.260079651E0,5.363079791E0
2.222767667E0,-4.342469788E0,3.589086456E0,1.136736145E0,5.747238860E0
2.232775667E0,-4.516108704E0,4.131558380E0,1.016685791E0,6.204729041E0
2.242784667E0,-4.887785797E0,4.807402954E0,1.079704742E0,6.940269122E0
2.252793667E0,-5.469176788E0,5.800737305E0,1.390308838E0,8.092799681E0
2.262801667E0,-5.852379913E0,6.789730682E0,1.908980255E0,9.164878559E0
2.272810667E0,-6.347999268E0,7.211104431E0,1.722168732E0,9.760275967E0
2.282819667E0,-6.925797729E0,7.385641479E0,1.386117554E0,1.021937846E1
2.292827667E0,-7.372917938E0,7.783813477E0,1.314117279E0,1.080160059E1
2.302836667E0,-7.637417908E0,8.441396027E0,1.678309937E0,1.150669559E1
2.312845667E0,-8.039032745E0,9.294621735E0,1.948348389E0,1.244235115E1
2.322853667E0,-8.584348755E0,1.024664200E1,2.116748199E0,1.353385897E1
2.332862667E0,-9.082662506E0,1.152213959E1,2.264191589E0,1.484523568E1
2.342871667E0,-9.572593689E0,1.295136749E1,2.387086029E0,1.628099044E1
2.352879667E0,-9.775870972E0,1.441607162E1,2.732717285E0,1.763118028E1
2.362888667E0,-9.748777313E0,1.593301712E1,3.067870331E0,1.892911836E1
2.372897667E0,-9.719438324E0,1.736359222E1,3.296145630E0,2.016993784E1
2.382905667E0,-9.658065948E0,1.860481110E1,3.293301544E0,2.121940312E1
2.392914667E0,-9.606573029E0,1.957958405E1,2.980452118E0,2.201202970E1
2.402923667E0,-9.519005127E0,2.049582870E1,2.577639771E0,2.274499241E1
2.412931667E0,-9.497150574E0,2.132211044E1,2.098037109E0,2.343565707E1
2.422940667E0,-9.682465210E0,2.191113556E1,1.615440674E0,2.400953233E1
2.432949667E0,-9.663754120E0,2.191921875E1,1.423240356E0,2.399720624E1
2.442957667E0,-9.283993835E0,2.142629379E1,1.425186310E0,2.339465245E1
2.452966667E0,-8.886719971E0,2.068069427E1,1.522483978E0,2.256064859E1
2.462975667E0,-8.586594086E0,1.978480728E1,1.702409821E0,2.163484218E1
2.472983667E0,-8.437653809E0,1.873758499E1,1.753453674E0,2.062439558E1
2.482992667E0,-8.331075439E0,1.774664566E1,1.904040527E0,1.969709675E1
2.493001667E0,-8.286468201E0,1.685854248E1,2.193388824E0,1.891261390E1
2.503009667E0,-8.237819366E0,1.589589432E1,2.512674866E0,1.807912219E1
2.513018667E0,-8.126900024E0,1.478580276E1,2.811004486E0,1.710462550E1
2.523027667E0,-8.019273834E0,1.361044693E1,3.073259125E0,1.609341294E1
2.533035667E0,-7.902217255E0,1.249197281E1,3.255579987E0,1.513582582E1
2.543044667E0,-7.670349426E0,1.143352386E1,3.300785980E0,1.415821021E1
2.553053667E0,-7.355254669E0,1.041519150E1,3.238365784E0,1.315534105E1
2.563062667E0,-7.050638123E0,9.504635010E0,3.081791382E0,1.222894201E1
2.573070667E0,-6.791227570E0,8.861572266E0,3.008144531E0,1.156274917E1
2.583079667E0,-6.490053864E0,8.222401428E0,2.941682739E0,1.088035761E1
2.593088667E0,-6.225703583E0,7.472011871E0,2.763702850E0,1.011080610E1
2.603096667E0,-5.906118164E0,6.787934418E0,2.583926697E0,9.361354742E0
2.613105667E0,-5.470673676E0,6.123915253E0,2.375559998E0,8.548326958E0
2.623114667E0,-5.023104401E0,5.564229126E0,2.133812714E0,7.793932273E0
2.633122667E0,-4.636458435E0,5.181924133E0,1.941313019E0,7.219264560E0
2.643131667E0,-4.333039398E0,4.954397278E0,1.775308228E0,6.817110980E0
2.653140667E0,-4.046385498E0,5.021757202E0,1.757046204E0,6.684197211E0
2.663148667E0,-3.815116425E0,5.314997406E0,1.962419128E0,6.830475796E0
2.673160667E0,-3.592678986E0,5.547463989E0,2.277513885E0,6.990620037E0
2.683169667E0,-3.332519989E0,5.299729156E0,2.453697510E0,6.724094740E0
2.693177667E0,-3.094215546E0,4.841531982E0,2.371518402E0,6.216003645E0
2.703186667E0,-2.730771332E0,4.261338501E0,2.047142944E0,5.459570690E0
2.713195667E0,-2.168540497E0,3.685485992E0,1.677112427E0,4.593264741E0
2.723203667E0,-1.586700439E0,3.206332397E0,1.390159149E0,3.838063078E0
2.733212667E0,-1.162332916E0,2.835703125E0,1.205892334E0,3.293388277E0
2.743221667E0,-8.891510010E-1,2.497256927E0,1.088536377E0,2.865622639E0
2.753229667E0,-7.641609192E-1,2.292931824E0,1.111289062E0,2.660158198E0
2.763238667E0,-7.131170654E-1,2.082020416E0,1.119821320E0,2.469280209E0
2.773247667E0,-6.604266357E-1,1.818568268E0,1.100511475E0,2.225865987E0
2.783255667E0,-5.548960876E-1,1.597178650E0,1.057101746E0,1.994079589E0
2.793264667E0,-4.276606750E-1,1.324445801E0,8.934919739E-1,1.653897893E0
2.803273667E0,-3.480262756E-1,1.119671631E0,6.610253906E-1,1.346009441E0
2.813281667E0,-2.143542480E-1,1.013991394E0,5.146298218E-1,1.157138775E0
2.823290667E0,-1.553768921E-1,1.026415558E0,5.685177612E-1,1.183589169E0
2.833299667E0,-3.118016052E-1,1.175355835E0,7.731422424E-1,1.440982480E0
2.843307667E0,-6.590794373E-1,1.380279694E0,1.012644196E0,1.834395269E0
2.853316667E0,-9.906399536E-1,1.600920868E0,1.237027588E0,2.252676718E0
2.863325667E0,-1.251248016E0,1.854493561E0,1.318009186E0,2.596520013E0
2.873333667E0,-1.446142731E0,2.079026642E0,1.316811676E0,2.854412998E0
2.883342667E0,-1.663490753E0,2.299817505E0,1.323248291E0,3.131668578E0
2.893351667E0,-1.913919983E0,2.596799927E0,1.353934479E0,3.498513703E0
2.903359667E0,-2.155218201E0,2.864293671E0,1.317859497E0,3.819148777E0
2.913368667E0,-2.443069611E0,3.110980682E0,1.213526459E0,4.137564065E0
2.923377667E0,-2.672692108E0,3.330574036E0,1.124461670E0,4.415928052E0
2.933385667E0,-2.869832153E0,3.467389526E0,1.017883301E0,4.614630335E0
2.943394667E0,-3.051554260E0,3.542383575E0,9.593550110E-1,4.772926444E0
2.953403667E0,-3.415297852E0,3.722309418E0,9.228309631E-1,5.135315356E0
2.963411667E0,-3.856280823E0,3.905229034E0,8.840615845E-1,5.559071908E0
2.973420667E0,-4.285139008E0,4.034111023E0,8.005352783E-1,5.939471760E0
2.983429667E0,-4.847519531E0,4.306394806E0,7.003935242E-1,6.521812089E0
2.993437667E0,-5.415887604E0,4.669090576E0,9.080117798E-1,7.208101743E0
3.003446667E0,-5.895639954E0,5.151387634E0,1.364412689E0,7.947137032E0
3.013455667E0,-6.390810242E0,5.642815704E0,1.758094025E0,8.704867559E0
3.023463667E0,-7.022945709E0,6.140979767E0,1.985321503E0,9.538076347E0
3.033472667E0,-7.744744720E0,6.752907257E0,2.130070496E0,1.049380901E1
3.043481667E0,-8.388555908E0,7.477400665E0,2.270029449E0,1.146439814E1
3.053489667E0,-8.986262970E0,8.300089874E0,2.237247620E0,1.243582289E1
3.063498667E0,-9.570947113E0,9.379195862E0,2.167043610E0,1.357455051E1
3.073507667E0,-1.029514114E1,1.108609634E1,2.107467499E0,1.527523756E1
3.083515667E0,-1.130793503E1,1.353171066E1,2.392175446E0,1.779604145E1
3.093524667E0,-1.214319809E1,1.630394577E1,3.223845978E0,2.058322352E1
3.103533667E0,-1.277712982E1,1.894834671E1,4.376449127E0,2.326903944E1
3.113541667E0,-1.335867050E1,2.119098312E1,5.401816864E0,2.562599205E1
3.123550667E0,-1.354248825E1,2.292392944E1,6.015091553E0,2.729627915E1
3.133559667E0,-1.336151459E1,2.365321289E1,6.106401672E0,2.784407825E1
3.143567667E0,-1.263776962E1,2.367177429E1,5.903124390E0,2.747568010E1
3.153576667E0,-1.175295959E1,2.343002701E1,5.671855316E0,2.681917537E1
3.163585667E0,-1.102622086E1,2.295416656E1,5.443729706E0,2.604045895E1
3.173593667E0,-1.053958282E1,2.233131180E1,5.234614563E0,2.524225589E1
3.183602667E0,-1.032627640E1,2.166100571E1,5.201533356E0,2.455375942E1
3.193611667E0,-1.030322433E1,2.090028763E1,5.354814606E0,2.390925541E1
3.203619667E0,-1.029334488E1,2.012834290E1,5.399571533E0,2.324346165E1
3.213628667E0,-1.022658371E1,1.933199890E1,5.437143402E0,2.253600950E1
3.223637667E0,-1.013512390E1,1.851754257E1,5.517376556E0,2.181883506E1
3.233645667E0,-1.017673737E1,1.775353134E1,5.625302124E0,2.122257954E1
3.243654667E0,-1.034169434E1,1.689865906E1,5.877677307E0,2.066548839E1
3.253663667E0,-1.046294220E1,1.582090027E1,6.095923462E0,1.992321078E1
3.263671667E0,-1.043599823E1,1.461216385E1,6.128854980E0,1.897335644E1
3.273680667E0,-1.030052994E1,1.322230408E1,6.116430817E0,1.784211221E1
3.283689667E0,-9.846973114E0,1.175685150E1,5.866001587E0,1.641939132E1
3.293697667E0,-9.308093719E0,1.026565247E1,5.349126434E0,1.485386761E1
3.303706667E0,-8.702752533E0,8.871302032E0,4.842879181E0,1.333759274E1
3.313715667E0,-8.007448425E0,7.651189270E0,4.315525818E0,1.188628161E1
3.323723667E0,-7.431895294E0,6.646777954E0,3.772904205E0,1.066055960E1
3.333732667E0,-6.899901581E0,5.900729370E0,3.414699097E0,9.699866950E0
3.343741667E0,-6.326294403E0,5.287155304E0,3.135529633E0,8.820859264E0
3.353749667E0,-5.733976135E0,4.631369019E0,2.838247833E0,7.898336032E0
3.363758667E0,-5.158123627E0,3.979624329E0,2.560724945E0,7.000068670E0
3.373767667E0,-4.545597382E0,3.356320496E0,2.291584625E0,6.097434126E0
3.383775667E0,-3.947740631E0,2.767295380E0,2.050286407E0,5.238917270E0
3.393784667E0,-3.275338898E0,2.140548706E0,1.848356323E0,4.327379664E0
3.403793667E0,-2.636317749E0,1.439706116E0,1.633852386E0,3.419414949E0
3.413801667E0,-2.066752167E0,7.619155884E-1,1.349593506E0,2.583289088E0
3.423810667E0,-1.552122345E0,1.450483704E-1,1.009351044E0,1.857124749E0
3.433819667E0,-1.119971008E0,-3.354524231E-1,6.532415771E-1,1.339249023E0
3.443827667E0,-7.182064819E-1,-6.445596313E-1,3.814068604E-1,1.037665101E0
3.453836667E0,-3.478765869E-1,-7.628137207E-1,1.787283325E-1,8.572320042E-1
3.463845667E0,-1.097218323E-1,-7.343728638E-1,4.281097412E-2,7.437574625E-1
3.473853667E0,-2.903961182E-2,-6.812333679E-1,5.523513794E-2,6.840856095E-1
3.483862667E0,-1.706451416E-2,-5.264552307E-1,2.013313293E-1,5.638976962E-1
3.493871667E0,3.742218018E-3,-4.047583008E-1,3.541635132E-1,5.378429885E-1
3.503879667E0,-1.811233521E-2,-3.939807129E-1,4.384382629E-1,5.897261816E-1
3.513888667E0,-1.359173584E-1,-2.650987244E-1,4.848417664E-1,5.690539521E-1
3.523897667E0,-2.321672058E-1,-9.774673462E-2,5.766009521E-1,6.292254712E-1
3.533905667E0,-3.065625000E-1,9.190887451E-2,6.093827820E-1,6.883132881E-1
3.543914667E0,-4.011657715E-1,4.291575623E-1,7.217990112E-1,9.306470878E-1
3.553923667E0,-5.827381897E-1,8.098159790E-1,9.307644653E-1,1.364444285E0
3.563931667E0,-8.406518555E-1,1.087039490E0,1.126557312E0,1.776930435E0
3.573940667E0,-1.114731903E0,1.470841370E0,1.270857239E0,2.240776578E0
3.583949667E0,-1.306782532E0,1.880389709E0,1.443897400E0,2.707099139E0
3.593957667E0,-1.491797791E0,2.104324036E0,1.629810791E0,3.051216726E0
3.603966667E0,-1.767674103E0,2.218087463E0,1.720671844E0,3.317422995E0
3.613975667E0,-2.078128510E0,2.489922180E0,1.792073364E0,3.705382235E0
3.623983667E0,-2.303260345E0,2.877166901E0,1.906734924E0,4.149546441E0
3.633992667E0,-2.563269653E0,3.212469635E0,1.938618622E0,4.544068071E0
3.644001667E0,-2.868335266E0,3.483705597E0,1.964215393E0,4.921554022E0
3.654009667E0,-3.148702240E0,3.728147278E0,2.042502594E0,5.290106310E0
3.664018667E0,-3.379671936E0,3.828887787E0,2.073188782E0,5.511866817E0
3.674024167E0,-3.588487701E0,3.657643890E0,2.196681976E0,5.575034934E0
3.684032167E0,-3.810925140E0,3.305126953E0,2.432441711E0,5.600338140E0
3.694041167E0,-4.131558380E0,2.713407440E0,2.803669739E0,5.682685860E0
3.704050167E0,-4.679269409E0,2.092049561E0,3.398383026E0,6.149897622E0
3.714058167E0,-5.407954102E0,2.197580109E0,4.217330017E0,7.201471959E0
3.724067167E0,-6.039341125E0,3.080294495E0,5.057083740E0,8.457892844E0
3.734076167E0,-6.791377258E0,4.314477997E0,5.631738739E0,9.821100075E0
3.744084167E0,-7.556735687E0,5.618266754E0,5.814209290E0,1.106680646E1
3.754093167E0,-8.235274658E0,6.726861420E0,5.507946167E0,1.197530310E1
3.764102167E0,-8.805139618E0,7.907755737E0,4.886288910E0,1.280386285E1
3.774110167E0,-9.312434692E0,9.141190796E0,3.955674133E0,1.363562125E1
3.784119167E0,-9.738748169E0,1.039109161E1,3.173550568E0,1.459073076E1
3.794128167E0,-9.988728333E0,1.170730453E1,2.805765381E0,1.564314523E1
3.804136167E0,-1.006836273E1,1.305869431E1,2.836451569E0,1.673161327E1
3.814145167E0,-1.037297928E1,1.458536957E1,3.029250641E0,1.815235698E1
3.824154167E0,-1.103056183E1,1.644225815E1,3.381617889E0,2.008622630E1
3.834162167E0,-1.172377029E1,1.835737564E1,3.872596893E0,2.212322393E1
3.844171167E0,-1.236324051E1,1.994991394E1,4.269721069E0,2.385538304E1
3.854180167E0,-1.285302200E1,2.119652161E1,4.535418549E0,2.520045087E1
3.864188167E0,-1.293864395E1,2.240421021E1,4.684508514E0,2.629261802E1
3.874197167E0,-1.279299683E1,2.302556808E1,4.748425598E0,2.676537127E1
3.884206167E0,-1.231219666E1,2.265823196E1,4.720882874E0,2.621588063E1
3.894214167E0,-1.165985321E1,2.172671906E1,4.686753845E0,2.509916651E1
3.904223167E0,-1.101125198E1,2.065345093E1,4.651427307E0,2.386311969E1
3.914232167E0,-1.049183212E1,1.933574112E1,4.377646637E0,2.243018538E1
3.924240167E0,-9.969119110E0,1.811173645E1,4.092040558E0,2.107517803E1
3.934249167E0,-9.582622833E0,1.734054016E1,3.885021057E0,2.018946215E1
3.944258167E0,-9.435778198E0,1.682067123E1,3.786974945E0,1.965477220E1
3.954266167E0,-9.462123413E0,1.634211639E1,3.840862885E0,1.927041192E1
3.964275167E0,-9.524693298E0,1.581521210E1,3.923191681E0,1.887411320E1
3.974284167E0,-9.547146606E0,1.520193741E1,4.001029816E0,1.839171414E1
3.984292167E0,-9.450447693E0,1.433029999E1,3.962559814E0,1.761733066E1
3.994301167E0,-9.317524109E0,1.333516937E1,3.878434753E0,1.672379305E1
4.004309167E0,-9.067244568E0,1.229528183E1,3.826941833E0,1.574910674E1
4.014318167E0,-8.837921448E0,1.130299530E1,3.748954010E0,1.482974088E1
4.024327167E0,-8.544381866E0,1.040770706E1,3.675756226E0,1.395843872E1
4.034335167E0,-8.231682129E0,9.576784973E0,3.628304901E0,1.313925407E1
4.044344167E0,-7.955207062E0,8.868158569E0,3.586242371E0,1.244149067E1
4.054353167E0,-7.662715302E0,8.202193451E0,3.407663727E0,1.173053090E1
4.064361167E0,-7.247778168E0,7.552095337E0,3.193608856E0,1.094365432E1
4.074370167E0,-6.773264923E0,6.975793762E0,3.056643677E0,1.019224641E1
4.084379167E0,-6.284082184E0,6.451883240E0,2.958447876E0,9.479920889E0
4.094387167E0,-5.761069794E0,5.802533569E0,2.860102386E0,8.662534655E0
4.104396167E0,-5.195246429E0,5.066813507E0,2.708018646E0,7.745743965E0
4.114405167E0,-4.555476837E0,4.280049591E0,2.503094788E0,6.733251609E0
4.124413167E0,-3.857628021E0,3.444187775E0,2.256258087E0,5.642200274E0
4.134422167E0,-3.173550568E0,2.634371796E0,1.951791229E0,4.562984436E0
4.144431167E0,-2.534828796E0,1.965861969E0,1.648821259E0,3.606741168E0
4.154439167E0,-1.934876404E0,1.346000977E0,1.381028137E0,2.731795022E0
4.164448167E0,-1.368154907E0,7.542814636E-1,1.059197388E0,1.887508274E0
4.174457167E0,-8.747808838E-1,3.152444458E-1,7.686515808E-1,1.206418629E0
4.184465167E0,-4.854405212E-1,6.152206421E-2,5.786965942E-1,7.578437914E-1
4.194474167E0,-2.309696960E-1,-6.242019653E-2,4.891827393E-1,5.445576497E-1
4.204483167E0,-8.352630615E-2,-2.387535095E-1,4.749623108E-1,5.381162317E-1
4.214491167E0,-5.224136353E-2,-4.014651489E-1,4.906796265E-1,6.361367162E-1
4.224500167E0,-9.879455566E-2,-5.749543762E-1,5.328918457E-1,7.901307602E-1
4.234509167E0,-7.065307617E-2,-8.328680420E-1,5.643264771E-1,1.008526353E0
4.244517167E0,-6.391708374E-2,-1.109642487E0,5.610333252E-1,1.245050294E0
4.254526167E0,-1.215472412E-1,-1.350042572E0,5.414241028E-1,1.459633083E0
4.264535167E0,-2.670446777E-1,-1.471140747E0,5.613327026E-1,1.597079322E0
4.274543167E0,-5.736071777E-1,-1.422641602E0,6.601272583E-1,1.669940813E0
4.284552167E0,-9.544152832E-1,-1.212029572E0,8.337661743E-1,1.753593524E0
4.294561167E0,-1.519789581E0,-8.243357849E-1,9.753717041E-1,1.985104486E0
4.304569167E0,-2.149230652E0,-1.892065430E-1,1.007854156E0,2.381336077E0
4.314578167E0,-2.668949890E0,5.182223511E-1,9.945318604E-1,2.894985586E0
4.324587167E0,-3.088078308E0,1.144220581E0,9.975256348E-1,3.441006505E0
4.334595167E0,-3.519780579E0,1.680255890E0,9.642947388E-1,4.017708242E0
4.344604167E0,-4.058061218E0,2.195783844E0,9.485774231E-1,4.710533586E0
4.354613167E0,-4.630470886E0,2.750081177E0,1.029559021E0,5.483082973E0
4.364621167E0,-5.200335846E0,3.282074890E0,1.184337158E0,6.262440658E0
4.374630167E0,-5.753585358E0,3.757186890E0,1.267115021E0,6.987544509E0
4.384639167E0,-6.199208679E0,4.282743988E0,1.392554169E0,7.662329374E0
4.394647167E0,-6.573580170E0,4.990472260E0,1.402882690E0,8.371669455E0
4.404656167E0,-7.202422485E0,5.944139099E0,1.321751404E0,9.431580253E0
4.414665167E0,-8.017477570E0,7.126829681E0,1.458117828E0,1.082579122E1
4.424673167E0,-9.020541687E0,8.547225952E0,1.913021851E0,1.257318163E1
4.434682167E0,-9.943821716E0,9.854307861E0,2.552192688E0,1.423027271E1
4.444691167E0,-1.063238983E1,1.131676666E1,3.236419830E0,1.586163089E1
4.454699167E0,-1.101978424E1,1.328472427E1,3.774401093E0,1.766821008E1
4.464708167E0,-1.139475449E1,1.549592606E1,4.229155426E0,1.969390540E1
4.474717167E0,-1.179636932E1,1.767689072E1,4.627926178E0,2.174958610E1
4.484725167E0,-1.218780533E1,1.978615448E1,5.019212494E0,2.377450319E1
4.494734167E0,-1.264121246E1,2.163750458E1,5.266198883E0,2.560692695E1
4.504743167E0,-1.271920029E1,2.298724777E1,5.359454956E0,2.681259729E1
4.514751167E0,-1.243030106E1,2.363165771E1,5.024601288E0,2.717009843E1
4.524760167E0,-1.180160843E1,2.365276382E1,4.430786133E0,2.680229587E1
4.534769167E0,-1.092473190E1,2.302287369E1,3.774101715E0,2.576133389E1
4.544777167E0,-1.001267853E1,2.203507782E1,3.248843994E0,2.442034752E1
4.554786167E0,-9.243428192E0,2.090642487E1,2.761008453E0,2.302482862E1
4.564795167E0,-8.666677551E0,1.985186783E1,2.317031708E0,2.178477891E1
4.574803167E0,-8.326884155E0,1.903381897E1,1.988464966E0,2.087048771E1
4.584812167E0,-8.115224304E0,1.834779556E1,1.865271149E0,2.014888841E1
4.594821167E0,-7.935148773E0,1.766207153E1,1.855092316E0,1.945139389E1
4.604829167E0,-7.944429474E0,1.693982346E1,1.908980255E0,1.880733325E1
4.614838167E0,-8.015082550E0,1.614138382E1,2.215093689E0,1.815743539E1
4.624847167E0,-8.035290527E0,1.522019943E1,2.553539886E0,1.739945202E1
4.634855167E0,-8.107739868E0,1.417731812E1,2.898123322E0,1.658707067E1
4.644864167E0,-8.096363525E0,1.310943878E1,3.249742126E0,1.574704135E1
4.654873167E0,-7.951315155E0,1.197434921E1,3.463796997E0,1.478534211E1
4.664881167E0,-7.730973358E0,1.075872711E1,3.585643616E0,1.372497717E1
4.674889542E0,-7.416327667E0,9.565408630E0,3.682043152E0,1.265133985E1
4.684897542E0,-6.900799713E0,8.378077698E0,3.719465332E0,1.147378076E1
4.694906542E0,-6.274352417E0,7.233707428E0,3.623365173E0,1.023830047E1
4.704915542E0,-5.619913330E0,6.139632568E0,3.396137695E0,8.989564236E0
4.714923542E0,-5.017865295E0,5.159171448E0,3.120560760E0,7.844356035E0
4.724932542E0,-4.474046173E0,4.380640411E0,2.909499664E0,6.904512138E0
4.734941542E0,-3.865711212E0,3.664529572E0,2.622696075E0,5.937258194E0
4.744949542E0,-3.282523956E0,2.880310364E0,2.237696686E0,4.906978477E0
4.754958542E0,-2.729424133E0,2.162403259E0,1.871109009E0,3.953073852E0
4.764967542E0,-2.150428162E0,1.571132813E0,1.570384369E0,3.091748156E0
4.774975542E0,-1.617985382E0,1.041234741E0,1.275347900E0,2.308367118E0
4.784984542E0,-1.139580231E0,6.397695923E-1,1.020128632E0,1.657893440E0
4.794993542E0,-7.277865601E-1,3.917353821E-1,8.711883545E-1,1.200874280E0
4.805001542E0,-4.065545654E-1,1.167572021E-1,8.164022827E-1,9.194735157E-1
4.815010542E0,-1.384620667E-1,-3.236270142E-1,7.405101013E-1,8.199154824E-1
4.825019542E0,1.916015625E-2,-5.367837524E-1,7.819738770E-1,9.486764742E-1
4.835027542E0,1.621128845E-1,-5.773493958E-1,9.310638428E-1,1.107471350E0
4.845036542E0,2.082170105E-1,-5.789959717E-1,1.096619568E0,1.257443890E0
4.855045542E0,1.522334290E-1,-5.496569824E-1,1.216520233E0,1.343584494E0
4.865053542E0,3.532653809E-2,-5.742059326E-1,1.400188293E0,1.513766057E0
4.875062542E0,-4.805007935E-2,-6.659651184E-1,1.516945496E0,1.657390113E0
4.885071542E0,-1.558259583E-1,-6.614744568E-1,1.539249115E0,1.682592650E0
4.895079542E0,-2.423460388E-1,-6.553372192E-1,1.512903900E0,1.666456325E0
4.905088542E0,-3.369493103E-1,-7.229965210E-1,1.352736969E0,1.570399985E0
4.915097542E0,-4.635859680E-1,-7.731422424E-1,1.200353851E0,1.501169626E0
4.925105542E0,-7.146139526E-1,-6.487509155E-1,1.199605408E0,1.539676585E0
4.935114542E0,-1.105750580E0,-3.484753418E-1,1.384021912E0,1.805446222E0
4.945123542E0,-1.569486237E0,6.676116943E-2,1.642234955E0,2.272593177E0
4.955131542E0,-2.075733490E0,4.459226990E-1,1.824705505E0,2.799476157E0
4.965140542E0,-2.671195221E0,6.357279968E-1,1.888472900E0,3.332531154E0
4.975149542E0,-3.237018585E0,7.373666382E-1,1.874402161E0,3.812529651E0
4.985157542E0,-3.750001831E0,9.839039612E-1,1.711091766E0,4.237737105E0
4.995166542E0,-4.159250793E0,1.289268951E0,1.547781372E0,4.621386022E0
5.005175542E0,-4.677473145E0,1.530866547E0,1.377884674E0,5.110858399E0
5.015183542E0,-5.458698578E0,1.983225861E0,1.326541443E0,5.957372506E0
5.025192542E0,-6.398594055E0,2.851869507E0,1.553319855E0,7.175511699E0
5.035201542E0,-7.555987244E0,4.103865967E0,1.766925659E0,8.778193743E0
5.045209542E0,-8.917705536E0,5.578449554E0,1.956730957E0,1.069922275E1
5.055218542E0,-9.930349731E0,6.799161072E0,2.214345245E0,1.223698337E1
5.065227542E0,-1.066187851E1,7.748936005E0,2.235301666E0,1.336855400E1
5.075235542E0,-1.133338211E1,8.957971802E0,2.267634430E0,1.462302892E1
5.085244542E0,-1.210876968E1,1.085841980E1,2.548600159E0,1.646277457E1
5.095253542E0,-1.308429108E1,1.333666626E1,3.233725433E0,1.896107381E1
5.105261542E0,-1.430874481E1,1.597418152E1,4.122726746E0,2.183830417E1
5.115270542E0,-1.545565979E1,1.843266907E1,4.896916809E0,2.454832994E1
5.125278542E0,-1.618584137E1,2.043445633E1,5.548960876E0,2.665219378E1
5.135287542E0,-1.629571289E1,2.202998840E1,5.905669098E0,2.803118933E1
5.145296542E0,-1.597373245E1,2.296913544E1,6.035748596E0,2.862117350E1
5.155304542E0,-1.519460266E1,2.322330688E1,6.240971832E0,2.844552095E1
5.165313542E0,-1.434467010E1,2.302077805E1,6.360872498E0,2.786012350E1
5.175322542E0,-1.357197693E1,2.255569519E1,6.542145538E0,2.712485229E1
5.185330542E0,-1.299507660E1,2.188044937E1,6.511309662E0,2.626829332E1
5.195339542E0,-1.253059250E1,2.099953125E1,6.084996185E0,2.519966745E1
5.205348542E0,-1.196955917E1,1.986264542E1,5.457351379E0,2.382388956E1
5.215356542E0,-1.136691238E1,1.889640472E1,4.954247589E0,2.260144637E1
5.225365542E0,-1.096544724E1,1.810889236E1,4.663552094E0,2.167767824E1
5.235374542E0,-1.090646988E1,1.739562561E1,4.582720184E0,2.103711482E1
5.245382542E0,-1.110495712E1,1.673968964E1,4.605023804E0,2.060930678E1
5.255391542E0,-1.129116989E1,1.618988297E1,4.843028870E0,2.032382239E1
5.265400542E0,-1.137394775E1,1.564307007E1,5.179529114E0,2.002248362E1
5.275408542E0,-1.139116196E1,1.482786530E1,5.468877411E0,1.948160107E1
5.285417542E0,-1.131766479E1,1.366747833E1,5.573360138E0,1.859978074E1
5.295426542E0,-1.093521011E1,1.222358093E1,5.470074921E0,1.728920098E1
5.305434542E0,-1.039124130E1,1.064496368E1,5.154531097E0,1.574364438E1
5.315443542E0,-9.662706299E0,9.144483948E0,4.841831360E0,1.415742952E1
5.325452542E0,-8.783883820E0,7.769892426E0,4.465364227E0,1.254859837E1
5.335460542E0,-7.884703674E0,6.482419739E0,4.093387756E0,1.099755159E1
5.345469542E0,-6.939569092E0,5.270539856E0,3.805386658E0,9.508794727E0
5.355478542E0,-6.069129181E0,4.114942932E0,3.532504120E0,8.139144286E0
5.365486542E0,-5.288053436E0,3.182382202E0,3.227588196E0,6.964796565E0
5.375495542E0,-4.455634460E0,2.183060303E0,2.871179352E0,5.732547566E0
5.385504542E0,-3.602259064E0,1.208137665E0,2.461032257E0,4.526869420E0
5.395512542E0,-2.771935730E0,4.382885742E-1,2.066752167E0,3.485281780E0
5.405521542E0,-1.933379517E0,-2.570155334E-1,1.675765228E0,2.571420316E0
5.415529542E0,-1.162931671E0,-7.843688965E-1,1.303938446E0,1.915176260E0
5.425538542E0,-5.095404053E-1,-1.123862915E0,9.648934937E-1,1.566435039E0
5.435547542E0,-7.185058594E-2,-1.331032104E0,7.509883118E-1,1.529964841E0
5.445555542E0,2.059716797E-1,-1.447639618E0,6.938072205E-1,1.618472507E0
5.455564542E0,3.945794678E-1,-1.535656586E0,7.804769897E-1,1.767223369E0
5.465573542E0,5.215155029E-1,-1.633553009E0,9.400451660E-1,1.955545644E0
5.475581542E0,5.951623535E-1,-1.663790131E0,1.160237274E0,2.113898379E0
5.485590542E0,6.015989685E-1,-1.692081299E0,1.345402222E0,2.243917908E0
5.495599542E0,5.387297058E-1,-1.690734100E0,1.507365417E0,2.328295942E0
5.505607542E0,4.867877197E-1,-1.813179474E0,1.595981140E0,2.464089667E0
5.515616542E0,4.489164734E-1,-1.779798889E0,1.426982574E0,2.324970829E0
5.525625542E0,3.879931641E-1,-1.500479736E0,1.231788483E0,1.979717404E0
5.535633542E0,2.624043274E-1,-1.308578796E0,1.037791901E0,1.690634948E0
5.545642542E0,-1.017883301E-2,-1.181493073E0,7.354206848E-1,1.391715874E0
5.555651542E0,-3.945794678E-1,-9.626481628E-1,4.796026611E-1,1.145601656E0
5.565659542E0,-8.303233337E-1,-6.191125488E-1,4.894821167E-1,1.145569696E0
5.575668542E0,-1.340612183E0,-1.401086426E-1,7.867639160E-1,1.560727047E0
5.585677542E0,-1.915117493E0,4.284091187E-1,1.284478912E0,2.345441421E0
5.595685542E0,-2.575693817E0,1.038690033E0,1.771715698E0,3.294245307E0
5.605694542E0,-3.093916168E0,1.551074524E0,2.136058044E0,4.067049717E0
5.615703542E0,-3.525019684E0,1.901645508E0,2.322270813E0,4.629790615E0
5.625711542E0,-3.862717438E0,2.269430695E0,2.384092255E0,5.074918478E0
5.635720542E0,-4.156706085E0,2.695145416E0,2.312241669E0,5.467035378E0
5.645729542E0,-4.456682281E0,3.137325897E0,2.139650574E0,5.855163134E0
5.655737542E0,-4.668342133E0,3.373385010E0,2.020198975E0,6.103634048E0
5.665746542E0,-4.950056305E0,3.479364624E0,1.974992981E0,6.364717817E0
5.675755917E0,-5.336103516E0,3.647315369E0,2.199076996E0,6.827360380E0
5.685763917E0,-5.819298706E0,3.919449463E0,2.811004486E0,7.558311170E0
5.695772917E0,-6.642736359E0,4.489015045E0,3.642076263E0,8.805789114E0
5.705781917E0,-7.950866089E0,5.303770752E0,4.425397339E0,1.053235004E1
5.715789917E0,-9.509125671E0,6.719227295E0,4.887935486E0,1.262788184E1
5.725798917E0,-1.083656525E1,8.772657166E0,5.032385101E0,1.482280540E1
5.735807917E0,-1.198407898E1,1.130928223E1,4.850064240E0,1.717676153E1
5.745815917E0,-1.341495346E1,1.459899124E1,4.571493530E0,2.034674605E1
5.755824917E0,-1.488669296E1,1.809646820E1,4.212090912E0,2.380834935E1
5.765832917E0,-1.560669571E1,2.112362320E1,3.942501526E0,2.655785621E1
5.775841917E0,-1.559472061E1,2.354678421E1,3.702101440E0,2.848423972E1
5.785850917E0,-1.523471924E1,2.509516434E1,3.239263916E0,2.953568645E1
5.795858917E0,-1.443852493E1,2.585872650E1,2.649939423E0,2.973494438E1
5.805867917E0,-1.349324066E1,2.600317612E1,2.291884003E0,2.938512283E1
5.815876917E0,-1.268611908E1,2.547522400E1,2.432441711E0,2.856293801E1
5.825884917E0,-1.213227081E1,2.437486221E1,2.943029938E0,2.738589652E1
5.835893917E0,-1.189381668E1,2.303724380E1,3.427123260E0,2.615191487E1
5.845902917E0,-1.174337952E1,2.193553482E1,3.721111908E0,2.515792766E1
5.855910917E0,-1.135838013E1,2.105087448E1,3.863166504E0,2.422965478E1
5.865919917E0,-1.081905167E1,1.991937744E1,3.886068878E0,2.299858709E1
5.875928917E0,-1.041773621E1,1.870779694E1,3.814218292E0,2.174992310E1
5.885936917E0,-1.000758911E1,1.754591309E1,4.083807678E0,2.060796911E1
5.895945917E0,-9.782157898E0,1.636831192E1,4.581223297E0,1.961121758E1
5.905954917E0,-9.766590271E0,1.525822037E1,5.134472809E0,1.882982701E1
5.915962917E0,-9.617649994E0,1.409483963E1,5.606291656E0,1.796090760E1
5.925971917E0,-9.344917145E0,1.276156219E1,5.682333527E0,1.680695869E1
5.935980917E0,-8.957822113E0,1.140717865E1,5.380710754E0,1.546991758E1
5.945988917E0,-8.457562408E0,1.005174728E1,4.922513580E0,1.402851116E1
5.955997917E0,-7.839198303E0,8.723559265E0,4.365521851E0,1.251444355E1
5.966005917E0,-7.140451355E0,7.434739380E0,3.785178680E0,1.098130105E1
5.976014917E0,-6.461313629E0,6.307283936E0,3.279979248E0,9.606699138E0
5.986023917E0,-5.852828979E0,5.346881104E0,2.804418182E0,8.408894454E0
5.996031917E0,-5.269192657E0,4.526437225E0,2.436782684E0,7.361449250E0
6.006040917E0,-4.703968048E0,3.860771484E0,2.246528320E0,6.486891501E0
6.016049917E0,-4.163891144E0,3.295397186E0,2.132615204E0,5.722384091E0
6.026057917E0,-3.714675293E0,2.633623352E0,1.987267456E0,4.968301162E0
6.036066917E0,-3.354374542E0,1.807640991E0,1.848805389E0,4.235265740E0
6.046075917E0,-2.901715851E0,1.325643311E0,1.858385468E0,3.692002385E0
6.056083917E0,-2.367476807E0,1.033899994E0,1.898202667E0,3.205786798E0
6.066092917E0,-1.996548157E0,7.914042664E-1,1.862726440E0,2.842934232E0
6.076101917E0,-1.776954803E0,5.264552307E-1,1.827848969E0,2.603028109E0
6.086109917E0,-1.502425690E0,3.029699707E-1,1.880838776E0,2.426237469E0
6.096118917E0,-1.246158600E0,2.062710571E-1,1.909279633E0,2.289281049E0
6.106127917E0,-1.054407349E0,2.046244812E-1,1.872605896E0,2.158772539E0
6.116135917E0,-9.322613525E-1,3.041674805E-1,1.809437256E0,2.058079753E0
6.126144917E0,-7.797285461E-1,2.829116821E-1,1.828298035E0,2.007657672E0
6.136153917E0,-6.363267517E-1,1.718426514E-1,1.782493286E0,1.900453616E0
6.146161917E0,-4.234693909E-1,-1.778302002E-1,1.591789856E0,1.656727150E0
6.156170917E0,-1.493893433E-1,-5.041516113E-1,1.282682648E0,1.386275874E0
6.166179917E0,4.041595459E-2,-6.849755859E-1,1.154100037E0,1.342673414E0
6.176187917E0,8.577163696E-2,-9.210346985E-1,1.094673615E0,1.433168522E0
6.186196917E0,-2.350112915E-2,-1.015637970E0,9.636959839E-1,1.400279522E0
6.196205917E0,-2.040257263E-1,-9.809101868E-1,9.003776550E-1,1.347030517E0
6.206213917E0,-4.243675232E-1,-9.380992126E-1,9.006770325E-1,1.367968218E0
6.216222917E0,-7.252418518E-1,-8.472381592E-1,9.159452820E-1,1.443171508E0
6.226231917E0,-1.113833771E0,-6.682104492E-1,1.024918671E0,1.654566153E0
6.236239917E0,-1.442849579E0,-4.977149963E-1,1.163829803E0,1.919383999E0
6.246248917E0,-1.806593170E0,-3.577560425E-1,1.257085876E0,2.229805635E0
6.256256917E0,-2.284848633E0,-3.115022278E-1,1.298100586E0,2.646248674E0
6.266265917E0,-2.797083435E0,-3.775149536E-1,1.271455994E0,3.095608765E0
6.276274917E0,-3.236868896E0,-5.267546082E-1,1.276695099E0,3.519196079E0
6.286282917E0,-3.777394867E0,-4.906796265E-1,1.407223663E0,4.060758170E0
6.296291917E0,-4.539460144E0,-2.553689575E-1,1.705702972E0,4.856061607E0
6.306300917E0,-5.576802979E0,1.715432739E-1,2.146236877E0,5.978000610E0
6.316308917E0,-6.778803406E0,9.358538818E-1,3.028502197E0,7.483302991E0
6.326317917E0,-7.864795074E0,2.446662140E0,4.220024414E0,9.254715730E0
6.336326917E0,-9.749825134E0,4.938380585E0,5.423222351E0,1.220073906E1
6.346334917E0,-1.229378494E1,8.524024200E0,6.663992157E0,1.637696334E1
6.356343917E0,-1.515927612E1,1.311198349E1,7.617359619E0,2.144182668E1
6.366352917E0,-1.795351547E1,1.909309570E1,8.200097809E0,2.746118398E1
6.376360917E0,-1.969813751E1,2.501238647E1,8.580905914E0,3.297374781E1
6.386369917E0,-2.013358200E1,2.870820099E1,8.073910217E0,3.598207824E1
6.396378917E0,-1.925640610E1,2.995061737E1,6.849157104E0,3.625961403E1
6.406386917E0,-1.772778488E1,2.956232483E1,5.525609436E0,3.491042489E1
6.416395917E0,-1.583392319E1,2.880759430E1,4.601131897E0,3.319278578E1
6.426404917E0,-1.418375473E1,2.755619659E1,3.914360046E0,3.123851923E1
6.436412917E0,-1.308249481E1,2.589689713E1,3.321742401E0,2.920333755E1
6.446421917E0,-1.210652435E1,2.395378784E1,2.827170868E0,2.698786355E1
6.456430917E0,-1.107202560E1,2.193328949E1,2.550396423E0,2.470148701E1
6.466438917E0,-1.018092865E1,1.986444168E1,2.297721863E0,2.243940456E1
6.476447917E0,-9.577683105E0,1.788331146E1,2.004331970E0,2.038534251E1
6.486455917E0,-9.067843323E0,1.634615799E1,2.004930725E0,1.880006412E1
6.496464917E0,-8.836424561E0,1.505120087E1,2.255809021E0,1.759857156E1
6.506473917E0,-8.704997864E0,1.398646500E1,2.746039581E0,1.670146473E1
6.516481917E0,-8.494385834E0,1.304956329E1,3.463347931E0,1.595119029E1
6.526490917E0,-8.463999023E0,1.210263245E1,3.935316467E0,1.528396896E1
6.536499917E0,-8.457412720E0,1.106828339E1,4.202211456E0,1.454968413E1
6.546507917E0,-8.245154114E0,9.936337280E0,4.417164459E0,1.364641736E1
6.556516917E0,-7.910749512E0,8.705895996E0,4.510570221E0,1.259832634E1
6.566525917E0,-7.433242493E0,7.418722687E0,4.423750763E0,1.139561806E1
6.576533917E0,-6.864275665E0,6.188730469E0,4.198618927E0,1.015121008E1
6.586542917E0,-6.178401947E0,5.054838409E0,3.864962769E0,8.869158876E0
6.596551917E0,-5.433999939E0,4.055666199E0,3.472029877E0,7.617858959E0
6.606559917E0,-4.624633026E0,3.171903992E0,3.065175934E0,6.390892666E0
6.616568917E0,-3.879033508E0,2.445314941E0,2.668800201E0,5.305559408E0
6.626577917E0,-3.283721466E0,1.852397919E0,2.304906921E0,4.418913965E0
6.636585917E0,-2.709066467E0,1.024918671E0,1.961820374E0,3.498319394E0
6.646594917E0,-2.188748474E0,5.522016907E-1,1.607956238E0,2.771474310E0
6.656603917E0,-1.714384918E0,3.116519165E-1,1.379680939E0,2.222557549E0
6.666611917E0,-1.307680664E0,1.182540894E-2,1.128952332E0,1.727628990E0
6.676621542E0,-1.003962250E0,-2.436932373E-1,8.358618164E-1,1.328906155E0
6.686629542E0,-6.888674927E-1,-3.936813354E-1,6.430627441E-1,1.021299716E0
6.696638542E0,-3.948788452E-1,-5.760021973E-1,4.516108704E-1,8.316611160E-1
6.706647542E0,-2.728825378E-1,-7.731422424E-1,3.897894287E-1,9.078268586E-1
6.716655542E0,-1.071771240E-1,-1.105151825E0,4.303550720E-1,1.190820297E0
6.726664542E0,-2.993774414E-2,-1.226399689E0,4.430786133E-1,1.304327843E0
6.736673542E0,-5.987548828E-3,-1.225800934E0,5.607339478E-1,1.347978613E0
6.746681542E0,-7.125183105E-2,-1.321002960E0,5.572911072E-1,1.435513505E0
6.756690542E0,-2.151026917E-1,-1.329235840E0,5.453160095E-1,1.452758286E0
6.766699542E0,-4.317022705E-1,-1.338366852E0,6.083349609E-1,1.532208897E0
6.776707542E0,-7.598199463E-1,-1.413360901E0,6.638694763E-1,1.736559261E0
6.786716542E0,-1.136885834E0,-1.429227905E0,7.625143433E-1,1.979047733E0
6.796725542E0,-1.528022461E0,-1.271755371E0,8.511300659E-1,2.162553295E0
6.806733542E0,-2.023791504E0,-9.455836487E-1,9.621990967E-1,2.432218656E0
6.816742542E0,-2.621947632E0,-4.498146057E-1,1.094823303E0,2.876730893E0
6.826751542E0,-3.252586212E0,3.936813354E-2,1.325942688E0,3.512689985E0
6.836759542E0,-3.907923431E0,6.107299805E-1,1.623374176E0,4.275535098E0
6.846768542E0,-4.371210022E0,1.288520508E0,1.845661926E0,4.916729614E0
6.856777542E0,-4.648433533E0,1.995500336E0,1.907932434E0,5.406492585E0
6.866785542E0,-4.954696655E0,2.883453827E0,1.943857727E0,6.053255965E0
6.876794542E0,-5.566175079E0,3.935166779E0,2.105371857E0,7.134453956E0
6.886803542E0,-6.449637909E0,5.178630981E0,2.473306732E0,8.633266716E0
6.896811542E0,-7.463629303E0,6.752757568E0,3.027005310E0,1.051038811E1
6.906820542E0,-8.552165680E0,8.712781677E0,3.763922882E0,1.277572768E1
6.916828542E0,-9.730515289E0,1.122096588E1,4.447401581E0,1.550394737E1
6.926837542E0,-1.104837479E1,1.406310562E1,4.836143188E0,1.852635437E1
6.936846542E0,-1.214798813E1,1.677217209E1,4.811145172E0,2.126091461E1
6.946854542E0,-1.318263657E1,1.984588028E1,4.672533417E0,2.427907411E1
6.956863542E0,-1.429706909E1,2.322585159E1,4.625231781E0,2.766295602E1
6.966872542E0,-1.507649826E1,2.611095200E1,4.540058899E0,3.049089616E1
6.976880542E0,-1.517753815E1,2.763523224E1,4.231849823E0,3.181151172E1
6.986889542E0,-1.447609680E1,2.769271271E1,3.905678101E0,3.149123747E1
6.996898542E0,-1.331466202E1,2.696417770E1,3.529360657E0,3.027876303E1
7.006906542E0,-1.218316498E1,2.565694611E1,3.109633484E0,2.857233299E1
7.016915542E0,-1.115106125E1,2.384750885E1,2.788850555E0,2.647314739E1
7.026924542E0,-1.016476227E1,2.181383789E1,2.514171753E0,2.419683812E1
7.036932542E0,-9.229656830E0,1.977462845E1,2.126178589E0,2.192585531E1
7.046941542E0,-8.408464508E0,1.788630524E1,1.698368225E0,1.983700192E1
7.056950542E0,-7.813900909E0,1.633118912E1,1.508113861E0,1.816698084E1
7.066958542E0,-7.471113739E0,1.509775406E1,1.636846161E0,1.692450837E1
7.076967542E0,-7.374863892E0,1.409304337E1,2.034269714E0,1.603560856E1
7.086976542E0,-7.312743073E0,1.329654968E1,2.613265686E0,1.539816880E1
7.096984542E0,-7.194339294E0,1.265064285E1,3.255280609E0,1.491288484E1
7.106993542E0,-7.111411743E0,1.182630707E1,3.658092957E0,1.427639170E1
7.117001542E0,-6.966213684E0,1.074884766E1,3.735182648E0,1.334231796E1
7.127010542E0,-6.606960754E0,9.576635284E0,3.700155487E0,1.220880930E1
7.137019542E0,-6.146218872E0,8.406219177E0,3.491489410E0,1.098321563E1
7.147027542E0,-5.763165436E0,7.339088287E0,3.199446716E0,9.864722602E0
7.157036542E0,-5.309009857E0,6.368806000E0,2.937491455E0,8.796370364E0
7.167045542E0,-4.812941437E0,5.565726013E0,2.680924988E0,7.831287896E0
7.177053542E0,-4.311334534E0,4.856201477E0,2.390977936E0,6.920048680E0
7.187062542E0,-3.774850159E0,4.155658264E0,2.047592010E0,5.975920211E0
7.197071542E0,-3.232527924E0,3.510948944E0,1.703158264E0,5.067222843E0
7.207079542E0,-2.629731445E0,2.933300171E0,1.356778564E0,4.166603586E0
7.217088542E0,-2.043251038E0,2.367776184E0,1.001716919E0,3.284002991E0
7.227097542E0,-1.516795807E0,1.816622314E0,6.897656250E-1,2.465068512E0
7.237105542E0,-1.115031281E0,1.328337708E0,4.605921936E-1,1.794413829E0
7.247114542E0,-6.852749634E-1,6.685098267E-1,1.706451416E-1,9.724335083E-1
7.257123542E0,-3.098556519E-1,3.186872864E-1,-8.307723999E-2,4.521879469E-1
7.267131542E0,-6.541397095E-2,2.312690735E-1,-1.689985657E-1,2.938109718E-1
7.277140542E0,2.305206299E-2,2.320175171E-1,-1.508862305E-1,2.777232082E-1
7.287149542E0,2.814147949E-2,3.008743286E-1,-9.071136475E-2,3.155088845E-1
7.297157542E0,1.916015625E-2,2.112107849E-1,7.888595581E-2,2.262743938E-1
7.307166542E0,5.313949585E-2,8.921447754E-2,1.648072815E-1,1.947934010E-1
7.317174542E0,1.010398865E-1,1.324745178E-1,2.685415649E-1,3.160271011E-1
7.327183542E0,1.624122620E-1,1.619631958E-1,4.243675232E-1,4.823874111E-1
7.337192542E0,1.107696533E-1,8.996292114E-2,4.667294312E-1,4.880569692E-1
7.347200542E0,-1.137634277E-2,6.376739502E-2,4.234693909E-1,4.283947092E-1
7.357209542E0,-1.736389160E-1,1.676513672E-1,4.492158508E-1,5.099532672E-1
7.367218542E0,-3.665876770E-1,3.939807129E-1,5.448669434E-1,7.658245968E-1
7.377226542E0,-6.668632507E-1,6.545887756E-1,6.881190491E-1,1.160474423E0
7.387235542E0,-1.099463654E0,9.987231445E-1,8.753796387E-1,1.724110715E0
7.397244542E0,-1.502425690E0,1.447789307E0,1.082848206E0,2.350731177E0
7.407252542E0,-1.879940643E0,1.872007141E0,1.208886108E0,2.915474778E0
7.417261542E0,-2.213447113E0,2.212548981E0,1.306782532E0,3.391519084E0
7.427270542E0,-2.552042999E0,2.420017548E0,1.370849304E0,3.774736576E0
7.437278542E0,-2.879112854E0,2.365081787E0,1.326242065E0,3.954974172E0
7.447287542E0,-3.306474152E0,2.253713379E0,1.178798676E0,4.171517904E0
7.457296542E0,-3.830534363E0,2.347717896E0,1.168919220E0,4.642321075E0
7.467304542E0,-4.329895935E0,2.558030548E0,1.353335724E0,5.207978175E0
7.477313542E0,-4.960235138E0,2.772085419E0,1.555116119E0,5.891245737E0
7.487322542E0,-5.804629211E0,3.212170258E0,1.840722198E0,6.884766972E0
7.497330542E0,-6.763535156E0,3.912414093E0,2.221979370E0,8.123397329E0
7.507339542E0,-7.405550079E0,4.414470062E0,2.693349152E0,9.032377736E0
7.517347542E0,-8.103249207E0,4.935686188E0,2.959795074E0,9.939015682E0
7.527356542E0,-9.162296906E0,5.782624969E0,3.126248932E0,1.127651846E1
7.537365542E0,-1.028361511E1,7.000043335E0,3.662733307E0,1.296799760E1
7.547373542E0,-1.126632156E1,8.447084198E0,4.440366211E0,1.476482594E1
7.557382542E0,-1.229588058E1,1.000070343E1,5.041815491E0,1.663197679E1
7.567391542E0,-1.340222992E1,1.185070633E1,5.601202240E0,1.874653232E1
7.577399542E0,-1.427895676E1,1.421488998E1,6.152056732E0,2.106654944E1
7.587408542E0,-1.504296799E1,1.695688797E1,6.489155731E0,2.357829675E1
7.597417542E0,-1.550385956E1,1.983046234E1,6.819818115E0,2.607924111E1
7.607425542E0,-1.536584656E1,2.234373596E1,7.057673492E0,2.802075182E1
7.617434542E0,-1.464988541E1,2.392504761E1,6.810836792E0,2.886892002E1
7.627443542E0,-1.355401428E1,2.451242615E1,5.937253418E0,2.863252202E1
7.637451542E0,-1.255424332E1,2.455598557E1,4.843328247E0,2.800112999E1
7.647460542E0,-1.178409485E1,2.428250427E1,3.970942383E0,2.728137256E1
7.657469542E0,-1.111977631E1,2.394465683E1,3.439996490E0,2.662385381E1
7.667477542E0,-1.071367081E1,2.352088806E1,3.060086517E0,2.602650662E1
7.677486333E0,-1.039648041E1,2.281345917E1,2.772684174E0,2.522357036E1
7.687494333E0,-1.009710297E1,2.183733902E1,2.591560822E0,2.419787287E1
7.697503333E0,-9.958640900E0,2.084999222E1,2.699187012E0,2.326332553E1
7.707512333E0,-9.851014709E0,1.954859848E1,3.116219788E0,2.211110624E1
7.717520333E0,-9.738299103E0,1.809407318E1,3.504063263E0,2.084486539E1
7.727529333E0,-9.624086609E0,1.676289139E1,3.735631714E0,1.968686148E1
7.737538333E0,-9.560468903E0,1.554068298E1,3.915108490E0,1.866128258E1
7.747546333E0,-9.549691315E0,1.445050003E1,4.189038849E0,1.782025819E1
7.757555333E0,-9.605674896E0,1.343590988E1,4.547393646E0,1.713100854E1
7.767564333E0,-9.621541901E0,1.249032623E1,4.909490662E0,1.651318917E1
7.777572333E0,-9.576784973E0,1.143292511E1,5.145400085E0,1.577661970E1
7.787581333E0,-9.440119171E0,1.034753220E1,5.333409119E0,1.498774584E1
7.797590333E0,-9.164392548E0,9.369316406E0,5.444927216E0,1.419216027E1
7.807598333E0,-8.782237244E0,8.411907349E0,5.380561066E0,1.329805676E1
7.817607333E0,-8.337062988E0,7.545209656E0,5.234464874E0,1.240308149E1
7.827616333E0,-7.835605774E0,6.697073364E0,4.942272491E0,1.143125395E1
7.837624333E0,-7.365433502E0,5.836662598E0,4.474345551E0,1.040845853E1
7.847633333E0,-6.864125977E0,5.135370941E0,4.054019623E0,9.482791531E0
7.857641333E0,-6.175258484E0,4.494852905E0,3.786825256E0,8.525113812E0
7.867650333E0,-5.323230286E0,3.698059845E0,3.501668243E0,7.367096292E0
7.877659333E0,-4.437671814E0,2.717449036E0,3.127147064E0,6.070956197E0
7.887667333E0,-3.625460815E0,1.750459900E0,2.744393005E0,4.872347376E0
7.897676333E0,-2.797083435E0,8.445437622E-1,2.361339569E0,3.756707930E0
7.907685333E0,-1.961221619E0,1.445993042E-1,1.919009399E0,2.747707457E0
7.917693333E0,-1.192420349E0,-3.571572876E-1,1.497485962E0,1.947278055E0
7.927702333E0,-5.553451538E-1,-8.283773804E-1,1.113684082E0,1.494961390E0
7.937711333E0,-7.664062500E-2,-1.185235291E0,7.270381165E-1,1.392566301E0
7.947719333E0,2.978805542E-1,-1.387015686E0,3.646417236E-1,1.464755585E0
7.957728333E0,5.878276062E-1,-1.423988800E0,1.026864624E-1,1.543965643E0
7.967737333E0,7.707472229E-1,-1.457668762E0,-4.909790039E-2,1.649624232E0
7.977745333E0,8.720864868E-1,-1.505269775E0,-1.673519897E-1,1.747678067E0
7.987754333E0,8.981323242E-1,-1.443747711E0,-2.171983337E-1,1.714124920E0
7.997763333E0,8.773255920E-1,-1.251547394E0,-1.869612122E-1,1.539813485E0
8.007771333E0,9.131011963E-1,-1.245110779E0,-1.263372803E-1,1.549198423E0
8.017780333E0,8.987310791E-1,-1.274599457E0,-1.339714050E-1,1.565333723E0
8.027788333E0,8.575666809E-1,-1.242566071E0,-1.628613281E-1,1.518523910E0
8.037797333E0,7.881111145E-1,-1.125060425E0,-1.742376709E-1,1.384643945E0
8.047806333E0,6.598278809E-1,-9.527687073E-1,-1.701960754E-1,1.171370030E0
8.057814333E0,3.933819580E-1,-8.120613098E-1,-1.013392639E-1,9.079992193E-1
8.067823333E0,5.089416504E-3,-6.912625122E-1,7.634124756E-3,6.913233996E-1
8.077832333E0,-4.168830872E-1,-4.284091187E-1,1.764830017E-1,6.232753254E-1
8.087840333E0,-7.548802185E-1,-1.324745178E-1,3.695814514E-1,8.508725471E-1
8.097849333E0,-1.085841980E0,2.453398132E-1,5.390290833E-1,1.236849539E0
8.107858333E0,-1.555714874E0,7.120692444E-1,7.300318909E-1,1.860171481E0
8.117866333E0,-2.077829132E0,1.120869141E0,9.259744263E-1,2.535971248E0
8.127875333E0,-2.605781250E0,1.538650360E0,1.178499298E0,3.247522355E0
8.137884333E0,-3.031795349E0,1.916614380E0,1.439257050E0,3.864796835E0
8.147892333E0,-3.596870270E0,2.366279297E0,1.763482819E0,4.652593374E0
8.157901333E0,-4.342469788E0,3.071911926E0,2.041454773E0,5.697475259E0
8.167910333E0,-5.254972229E0,4.270020447E0,2.279759216E0,7.144586050E0
8.177918333E0,-6.140381012E0,5.548811188E0,2.573598175E0,8.667005950E0
8.187927333E0,-7.085515594E0,6.862180023E0,2.867886200E0,1.027223526E1
8.197935333E0,-7.955356750E0,8.402327271E0,3.190914459E0,1.200286381E1
8.207944333E0,-8.814120941E0,9.843380585E0,3.415447540E0,1.364720305E1
8.217953333E0,-9.856104126E0,1.145956970E1,3.635340271E0,1.554606784E1
8.227961333E0,-1.063014450E1,1.327903610E1,4.183051300E0,1.751658329E1
8.237970333E0,-1.117830460E1,1.551957687E1,5.096601562E0,1.979361279E1
8.247979333E0,-1.192839478E1,1.778810944E1,5.930966492E0,2.222340664E1
8.257987333E0,-1.288894730E1,2.010334488E1,6.120173035E0,2.465209840E1
8.267996333E0,-1.341405533E1,2.259955399E1,5.936654663E0,2.694291353E1
8.278005333E0,-1.337633377E1,2.490955032E1,5.473667450E0,2.879883744E1
8.288013333E0,-1.306453217E1,2.650672897E1,4.774770813E0,2.993471426E1
8.298022333E0,-1.261860947E1,2.721340942E1,4.277504883E0,3.030009910E1
8.308031333E0,-1.210457840E1,2.705444000E1,4.048630829E0,2.991412632E1
8.318039333E0,-1.159234360E1,2.622845764E1,4.246369629E0,2.898872324E1
8.328048333E0,-1.103909409E1,2.483515503E1,4.598736877E0,2.756437745E1
8.338056333E0,-1.055559952E1,2.329860031E1,4.743934937E0,2.601442631E1
8.348065333E0,-1.007809250E1,2.196502350E1,4.636009369E0,2.460737265E1
8.358074333E0,-9.570198669E0,2.082020416E1,4.518803101E0,2.335570991E1
8.368082333E0,-9.221274261E0,1.963481918E1,4.475543060E0,2.214923270E1
8.378091333E0,-9.081764374E0,1.843820755E1,4.619094543E0,2.106613339E1
8.388100333E0,-9.022337952E0,1.714265167E1,4.926555176E0,1.998859761E1
8.398108333E0,-8.990154877E0,1.579021408E1,5.102289734E0,1.887291991E1
8.408117333E0,-8.860823822E0,1.440798843E1,5.135221252E0,1.767695751E1
8.418126333E0,-8.657845917E0,1.311512695E1,5.042414246E0,1.650426588E1
8.428134333E0,-8.403973846E0,1.196896042E1,5.017116852E0,1.546137935E1
8.438143333E0,-8.105943604E0,1.083641556E1,4.980592804E0,1.442014315E1
8.448152333E0,-7.781717834E0,9.759854279E0,4.888833618E0,1.340561756E1
8.458160333E0,-7.307953033E0,8.767268372E0,4.804558868E0,1.238365690E1
8.468169333E0,-6.714736633E0,7.688012695E0,4.674479370E0,1.122693122E1
8.478177333E0,-6.048322449E0,6.465055847E0,4.422553253E0,9.896369477E0
8.488186333E0,-5.319338379E0,5.229824524E0,4.112847290E0,8.518329541E0
8.498195333E0,-4.532873840E0,4.079616394E0,3.662433929E0,7.113623371E0
8.508203333E0,-3.749253387E0,3.070415039E0,3.208577728E0,5.811997980E0
8.518212333E0,-3.047662354E0,2.245929565E0,2.733914795E0,4.669768253E0
8.528221333E0,-2.429447937E0,1.487606506E0,2.261048126E0,3.636967009E0
8.538229333E0,-1.880090332E0,9.056167603E-1,1.829046478E0,2.774940070E0
8.548238333E0,-1.369651794E0,5.303471375E-1,1.525627441E0,2.117723592E0
8.558247333E0,-9.824070740E-1,2.888992310E-1,1.257385254E0,1.621605409E0
8.568255333E0,-7.524851990E-1,2.016307068E-1,1.017134857E0,1.281191724E0
8.578264333E0,-5.284011841E-1,1.942959595E-1,8.652008057E-1,1.032245690E0
8.588273333E0,-3.236270142E-1,1.959425354E-1,7.090754700E-1,8.036889595E-1
8.598281333E0,-1.802252197E-1,2.797682190E-1,5.758525085E-1,6.650996149E-1
8.608290333E0,8.681945801E-3,2.595602417E-1,4.442761230E-1,5.146145827E-1
8.618299333E0,1.984872437E-1,5.134323120E-1,3.029699707E-1,6.283317023E-1
8.628307333E0,4.176315308E-1,8.885522461E-1,2.945874023E-1,1.025047768E0
8.638316333E0,5.140310669E-1,1.089883575E0,2.755769348E-1,1.236129764E0
8.648325333E0,5.532495117E-1,1.121916962E0,2.068698120E-1,1.267902918E0
8.658333333E0,6.697073364E-1,1.019230499E0,2.160008240E-1,1.238545551E0
8.668342333E0,7.415579224E-1,8.412506104E-1,2.439926147E-1,1.147668566E0
8.678349542E0,8.123606873E-1,6.489006042E-1,2.404000854E-1,1.067142953E0
8.688358542E0,8.776249695E-1,5.303471375E-1,1.600172424E-1,1.037833894E0
8.698367542E0,8.514294434E-1,5.266049194E-1,7.439529419E-2,1.003882213E0
8.708375542E0,7.008425903E-1,6.557862854E-1,4.221221924E-2,9.607381849E-1
8.718384542E0,4.149371338E-1,9.639953613E-1,-2.649490356E-2,1.049838969E0
8.728393542E0,1.652563477E-1,1.307680664E0,-1.008901978E-1,1.321936917E0
8.738401542E0,-4.640350342E-2,1.470991058E0,-1.730401611E-1,1.481860613E0
8.748410542E0,-2.785707092E-1,1.505419464E0,-1.387614441E-1,1.537252140E0
8.758419542E0,-5.788462830E-1,1.510359192E0,8.457412720E-2,1.619691542E0
8.768427542E0,-9.660910034E-1,1.512903900E0,4.421804810E-1,1.848711339E0
8.778436542E0,-1.327738953E0,1.507964172E0,8.734336853E-1,2.190829312E0
8.788444542E0,-1.720522156E0,1.419498138E0,1.239123230E0,2.551587316E0
8.798453542E0,-2.151026917E0,1.307381287E0,1.496438141E0,2.928393712E0
8.808462542E0,-2.648592224E0,1.164578247E0,1.764530640E0,3.388930752E0
8.818470542E0,-3.239413605E0,1.102008362E0,2.097438354E0,4.013411340E0
8.828479542E0,-4.029919739E0,1.260528717E0,2.426903229E0,4.870220224E0
8.838488542E0,-4.835245056E0,1.505718842E0,2.758014679E0,5.766578618E0
8.848496542E0,-5.664819946E0,1.852547607E0,2.937042389E0,6.644421394E0
8.858505542E0,-6.720424805E0,2.500101013E0,2.838696899E0,7.711861949E0
8.868514542E0,-7.970175934E0,3.811523895E0,2.567460938E0,9.200177959E0
8.878522542E0,-9.071136475E0,5.795647888E0,2.208806763E0,1.098880697E1
8.888531542E0,-9.936636658E0,7.760911102E0,1.863923950E0,1.274530116E1
8.898540542E0,-1.018362305E1,8.780141602E0,1.856888580E0,1.357369147E1
8.908548542E0,-1.017883301E1,9.166937256E0,1.837578735E0,1.382092890E1
8.918557542E0,-1.006536896E1,9.124725037E0,1.966011658E0,1.372725250E1
8.928565542E0,-1.027238846E1,8.825497284E0,2.301164703E0,1.373705667E1
8.938574542E0,-1.119087845E1,8.758586426E0,2.793939972E0,1.448291052E1
8.948583542E0,-1.243419296E1,9.427545319E0,3.311114502E0,1.595152797E1
8.958591542E0,-1.397883087E1,1.113773895E1,3.516337738E0,1.821597026E1
8.968600542E0,-1.525103531E1,1.323622513E1,3.889960785E0,2.056510463E1
8.978609542E0,-1.639405838E1,1.545101944E1,4.556824036E0,2.298399002E1
8.988617542E0,-1.768527328E1,1.829839828E1,5.317841492E0,2.599768661E1
8.998626542E0,-1.877006744E1,2.143617325E1,6.022725677E0,2.912212527E1
9.008635542E0,-1.890104507E1,2.335473358E1,6.221063232E0,3.068215627E1
9.018643542E0,-1.836695572E1,2.427442108E1,5.849386139E0,3.099690145E1
9.028652542E0,-1.737631577E1,2.463966156E1,5.445525970E0,3.063826079E1
9.038660542E0,-1.631577118E1,2.427531921E1,5.046904907E0,2.968108423E1
9.048669542E0,-1.552316940E1,2.305101517E1,4.588857422E0,2.816692566E1
9.058678542E0,-1.463940720E1,2.150383255E1,4.317022705E0,2.636975052E1
9.068686542E0,-1.379591125E1,2.035976166E1,4.255051575E0,2.495901693E1
9.078695542E0,-1.314237030E1,1.949156708E1,4.091890869E0,2.386182422E1
9.088704542E0,-1.299208282E1,1.879895737E1,3.574566650E0,2.312947343E1
9.098712542E0,-1.311767166E1,1.851874008E1,3.284320221E0,2.293041219E1
9.108721542E0,-1.316976334E1,1.836426132E1,3.465144196E0,2.286254545E1
9.118730542E0,-1.335283264E1,1.792028458E1,3.924688568E0,2.269004009E1
9.128738542E0,-1.356569000E1,1.667906570E1,4.747527466E0,2.201722496E1
9.138747542E0,-1.354907455E1,1.491453506E1,5.442382507E0,2.087199810E1
9.148756542E0,-1.313563431E1,1.309716431E1,5.899831238E0,1.946506127E1
9.158764542E0,-1.269644760E1,1.146795227E1,6.093977509E0,1.816178055E1
9.168773542E0,-1.218615875E1,9.983788605E0,6.207591248E0,1.693259251E1
9.178781542E0,-1.152124146E1,8.500523071E0,6.256689148E0,1.562510980E1
9.188790542E0,-1.076351715E1,7.155420227E0,6.063590698E0,1.427657075E1
9.198799542E0,-9.957443390E0,5.996380463E0,5.704337769E0,1.294784642E1
9.208807542E0,-9.147028656E0,5.007836151E0,5.270839233E0,1.168453261E1
9.218816542E0,-8.220754852E0,4.037703552E0,4.854554901E0,1.036583637E1
9.228825542E0,-7.187453613E0,3.156635742E0,4.469555511E0,9.033314183E0
9.238833542E0,-6.318959656E0,2.245181122E0,4.098177795E0,7.859080776E0
9.248842542E0,-5.479355621E0,1.291663971E0,3.735332336E0,6.756067014E0
9.258851542E0,-4.679119720E0,6.358776855E-1,3.456312561E0,5.851888440E0
9.268859542E0,-3.902834015E0,6.092330933E-2,3.126248932E0,5.000925652E0
9.278868542E0,-3.160976715E0,-5.770500183E-1,2.740650787E0,4.223260264E0
9.288876542E0,-2.393223267E0,-1.167272644E0,2.357148285E0,3.556148347E0
9.298885542E0,-1.702409821E0,-1.622925110E0,1.913620605E0,3.032165716E0
9.308894542E0,-1.114731903E0,-1.944606171E0,1.575024719E0,2.739493245E0
9.318902542E0,-6.319857788E-1,-2.052082672E0,1.331331482E0,2.526438765E0
9.328911542E0,-3.299139404E-1,-2.076032867E0,1.154848480E0,2.398422541E0
9.338920542E0,-1.396595764E-1,-2.107018433E0,1.010548553E0,2.340991211E0
9.348928542E0,2.424957275E-2,-2.157164154E0,9.077124023E-1,2.340488632E0
9.358937542E0,7.394622803E-2,-2.085463257E0,8.882528687E-1,2.267954629E0
9.368946542E0,8.981323242E-4,-1.805994415E0,9.771679688E-1,2.053405433E0
9.378954542E0,-3.847000122E-2,-1.646725616E0,1.166973267E0,2.018665847E0
9.388963542E0,-1.164578247E-1,-1.635648651E0,1.149459686E0,2.002540013E0
9.398972542E0,-2.387535095E-1,-1.569785614E0,1.099164276E0,1.931163436E0
9.408980542E0,-3.689826965E-1,-1.486708374E0,1.071172485E0,1.869187126E0
9.418989542E0,-5.453160095E-1,-1.471739502E0,9.550140381E-1,1.837236655E0
9.428997542E0,-7.110214233E-1,-1.460063782E0,8.041278076E-1,1.812169761E0
9.439006542E0,-9.264234924E-1,-1.393152924E0,6.388714600E-1,1.790891481E0
9.449015542E0,-1.132844238E0,-1.162632294E0,5.447172546E-1,1.712240289E0
9.459023542E0,-1.442101135E0,-7.613168335E-1,4.870870972E-1,1.701914465E0
9.469032542E0,-1.911824341E0,-1.480421448E-1,6.201603699E-1,2.015338103E0
9.479041542E0,-2.402354279E0,5.604345703E-1,8.167016602E-1,2.598537009E0
9.489049542E0,-2.927911377E0,1.077010345E0,1.042581940E0,3.289315038E0
9.499058542E0,-3.520229645E0,1.623224487E0,1.279539185E0,4.082167931E0
9.509067542E0,-4.067641296E0,2.299967194E0,1.552122345E0,4.923884501E0
9.519075542E0,-4.418661346E0,2.817141724E0,1.803150330E0,5.541859498E0
9.529084542E0,-4.833748169E0,3.270997925E0,1.796713715E0,6.106777297E0
9.539092542E0,-5.526208191E0,4.026327209E0,1.696721649E0,7.044796102E0
9.549101542E0,-6.482419739E0,5.316194916E0,1.641037445E0,8.542639987E0
9.559110542E0,-7.551945648E0,7.048093414E0,1.696571960E0,1.046832653E1
9.569118542E0,-8.367000732E0,8.912466431E0,1.961970062E0,1.238095657E1
9.579127542E0,-9.192983093E0,1.082743423E1,2.062560883E0,1.435264532E1
9.589136542E0,-1.002615051E1,1.272488846E1,2.042203217E0,1.632841310E1
9.599144542E0,-1.081396225E1,1.451845871E1,2.110311584E0,1.822582887E1
9.609153542E0,-1.148351990E1,1.673070831E1,2.214644623E0,2.041304683E1
9.619162542E0,-1.209694427E1,1.881512375E1,2.286644897E0,2.248496581E1
9.629170542E0,-1.237237152E1,2.043086380E1,2.613415375E0,2.402760314E1
9.639179542E0,-1.253418503E1,2.172507248E1,3.233875122E0,2.528917786E1
9.649187542E0,-1.263282990E1,2.263009048E1,4.229305115E0,2.626016771E1
9.659196542E0,-1.264420624E1,2.321851685E1,5.428461456E0,2.698969562E1
9.669205542E0,-1.258762390E1,2.352507935E1,6.428980865E0,2.744466121E1
9.679214333E0,-1.199500626E1,2.334784790E1,7.186106415E0,2.721474420E1
9.689223333E0,-1.098685272E1,2.262634827E1,7.425907745E0,2.622606860E1
9.699232333E0,-1.017449203E1,2.172537186E1,7.134613495E0,2.502827961E1
9.709240333E0,-9.598938904E0,2.082140167E1,6.414311371E0,2.380785135E1
9.719249333E0,-8.914562073E0,1.974843292E1,5.754782867E0,2.241846439E1
9.729258333E0,-8.353678436E0,1.860196701E1,5.442532196E0,2.110540871E1
9.739266333E0,-8.055049438E0,1.755818756E1,5.385500793E0,2.005436089E1
9.749275333E0,-7.915838928E0,1.665227142E1,5.401218109E0,1.921280319E1
9.759283333E0,-7.805668030E0,1.579515381E1,5.388644257E0,1.842424555E1
9.769292333E0,-7.759264526E0,1.492186981E1,5.153932343E0,1.759066239E1
9.779301333E0,-7.629484406E0,1.391416534E1,4.933590546E0,1.661786223E1
9.789309333E0,-7.429649963E0,1.288700134E1,4.855602722E0,1.564772763E1
9.799318333E0,-7.284751282E0,1.175280991E1,4.746329956E0,1.461929513E1
9.809327333E0,-7.037465515E0,1.058808197E1,4.703069916E0,1.355552534E1
9.819335333E0,-6.630012817E0,9.448950806E0,4.689448242E0,1.245915993E1
9.829344333E0,-6.049669647E0,8.364156647E0,4.631069641E0,1.131390407E1
9.839353333E0,-5.329217834E0,7.132667542E0,4.425696716E0,9.942952298E0
9.849361333E0,-4.610861664E0,5.847739563E0,4.107458496E0,8.504546935E0
9.859370333E0,-3.966302032E0,4.716990967E0,3.742068329E0,7.210036822E0
9.869378333E0,-3.293900299E0,3.716321869E0,3.392994232E0,6.014419114E0
9.879387333E0,-2.592908020E0,2.849324799E0,3.038681030E0,4.906669564E0
9.889396333E0,-1.962568817E0,2.141446838E0,2.680026855E0,3.952216450E0
9.899404333E0,-1.419647827E0,1.542392578E0,2.366428986E0,3.161385924E0
9.909413333E0,-9.165440369E-1,9.925859070E-1,2.053579559E0,2.458143356E0
9.919422333E0,-4.870870972E-1,5.361849976E-1,1.743424530E0,1.887929364E0
9.929430333E0,-1.453477478E-1,2.005828857E-1,1.506167908E0,1.526401398E0
9.939439333E0,1.074765015E-1,-1.029858398E-1,1.421743469E0,1.429514524E0
9.949448333E0,3.252735901E-1,-5.719606018E-1,1.309476929E0,1.465493659E0
9.959456333E0,4.528083801E-1,-9.303153992E-1,1.218166809E0,1.598265480E0
9.969465333E0,5.441184998E-1,-1.202898560E0,1.222208405E0,1.799117359E0
9.979473333E0,6.155200195E-1,-1.406924286E0,1.254541168E0,1.982971100E0
9.989482333E0,6.116281128E-1,-1.550475769E0,1.300196228E0,2.113900255E0
9.999491333E0,4.824467468E-1,-1.650767212E0,1.306782532E0,2.159969406E0
1.000949933E1,2.525248718E-1,-1.652862854E0,1.268013153E0,2.098471296E0
1.001950833E1,-4.460723877E-2,-1.531165924E0,1.226848755E0,1.962553632E0
1.002951733E1,-3.502716064E-1,-1.442400513E0,1.254391479E0,1.943375265E0
1.003952533E1,-7.268884277E-1,-1.221310272E0,1.180744629E0,1.847734680E0
1.004953433E1,-1.135688324E0,-6.592291260E-1,1.124311981E0,1.728712943E0
1.005954333E1,-1.516197052E0,-1.821711731E-1,1.188528442E0,1.935107153E0
1.006955133E1,-2.018851776E0,1.718426514E-1,1.239871674E0,2.375410314E0
1.007956033E1,-2.555785217E0,5.258564758E-1,1.157842255E0,2.854673676E0
1.008956833E1,-3.014730835E0,8.306227112E-1,1.087638245E0,3.310814559E0
1.009957733E1,-3.513044586E0,1.117276611E0,1.074615326E0,3.839868147E0
1.010958633E1,-4.026177521E0,1.446292419E0,1.031355286E0,4.400631877E0
1.011959433E1,-4.431684265E0,1.869761810E0,8.587641907E-1,4.886032193E0
1.012960333E1,-4.825066223E0,2.480342102E0,6.562353516E-1,5.464796962E0
1.013961233E1,-5.351371765E0,3.348237305E0,6.222560120E-1,6.343112435E0
1.014962033E1,-6.090235291E0,4.288581848E0,7.731422424E-1,7.488701429E0
1.015962933E1,-7.035968628E0,5.138813782E0,1.141226807E0,8.787187277E0
1.016963833E1,-8.058342590E0,6.268813934E0,1.480271759E0,1.031630350E1
1.017964633E1,-8.719667358E0,7.468569031E0,1.737736359E0,1.161171175E1
1.018965533E1,-9.139394531E0,8.371641083E0,1.796264648E0,1.252355674E1
1.019966333E1,-9.794881439E0,9.536668396E0,1.591640167E0,1.376303255E1
1.020967233E1,-1.056847275E1,1.080363373E1,1.366957397E0,1.517496921E1
1.021968133E1,-1.133173553E1,1.241802658E1,1.411265259E0,1.687030776E1
1.022968933E1,-1.224378891E1,1.400757111E1,1.748214569E0,1.868632306E1
1.023969833E1,-1.319595886E1,1.535192551E1,2.032473450E0,2.034566036E1
1.024970733E1,-1.423225388E1,1.686123688E1,2.174378357E0,2.217174510E1
1.025971533E1,-1.515852768E1,1.875958923E1,2.251917114E0,2.422342421E1
1.026972433E1,-1.534893173E1,2.039868073E1,2.155517578E0,2.561917518E1
1.027973333E1,-1.476394821E1,2.119966507E1,1.811383209E0,2.589751098E1
1.028974133E1,-1.404918457E1,2.166160446E1,1.572779388E0,2.586654847E1
1.029975033E1,-1.331002167E1,2.215662506E1,1.593286743E0,2.589616330E1
1.030975833E1,-1.246218475E1,2.233340744E1,1.890269165E0,2.564488749E1
1.031976733E1,-1.193108917E1,2.192909821E1,2.154320068E0,2.505748056E1
1.032977633E1,-1.174487640E1,2.110057114E1,2.110910339E0,2.424112552E1
1.033978433E1,-1.148486710E1,2.005140289E1,1.728455658E0,2.317214900E1
1.034979333E1,-1.084973785E1,1.883907394E1,1.111139374E0,2.176837498E1
1.035980233E1,-1.023511597E1,1.772299484E1,4.819976807E-1,2.047179686E1
1.036981033E1,-9.936337280E0,1.695748672E1,1.293310547E-1,1.965461475E1
1.037981933E1,-9.819131012E0,1.651949753E1,9.041198730E-2,1.921763010E1
1.038982733E1,-9.776170349E0,1.617641098E1,3.511697388E-1,1.890431430E1
1.039983633E1,-9.756112061E0,1.565130295E1,8.556207275E-1,1.846285713E1
1.040984533E1,-9.696386261E0,1.483385284E1,1.351689148E0,1.777329908E1
1.041985333E1,-9.554780731E0,1.381447266E1,1.668280792E0,1.687947423E1
1.042986233E1,-9.396410065E0,1.269914200E1,1.882635040E0,1.590927542E1
1.043987133E1,-9.105864258E0,1.141047180E1,2.094444580E0,1.474796015E1
1.044987933E1,-8.561895447E0,1.008033783E1,2.250270538E0,1.341577362E1
1.045988833E1,-7.894283752E0,8.785081329E0,2.257754974E0,1.202475894E1
1.046989733E1,-7.142546997E0,7.545658722E0,2.140698395E0,1.060827662E1
1.047990533E1,-6.258335724E0,6.299649811E0,1.940265198E0,9.089388473E0
1.048991433E1,-5.325026550E0,5.082680511E0,1.713636475E0,7.558180926E0
1.049992233E1,-4.440216522E0,3.920796661E0,1.452279968E0,6.098957807E0
1.050993133E1,-3.622317352E0,2.846031647E0,1.172062683E0,4.753399843E0
1.051994033E1,-2.906056824E0,1.986818390E0,9.422904968E-1,3.644245458E0
1.052994833E1,-2.225272522E0,1.166224823E0,7.640112305E-1,2.625953407E0
1.053995733E1,-1.587598572E0,3.585044861E-1,5.165757751E-1,1.707584617E0
1.054996633E1,-1.077459412E0,-1.576222229E-1,3.460803223E-1,1.142600166E0
1.055997433E1,-6.521937561E-1,-6.533912659E-1,2.730322266E-1,9.627166969E-1
1.056998333E1,-3.858975220E-1,-1.067579956E0,2.582130432E-1,1.164181187E0
1.057999233E1,-1.830693054E-1,-1.425036621E0,3.188369751E-1,1.471699955E0
1.059000033E1,1.107696533E-2,-1.758393402E0,4.104464722E-1,1.805695534E0
1.060000933E1,1.311273193E-1,-2.098635864E0,5.132826233E-1,2.164468969E0
1.061001733E1,1.589694214E-1,-2.487377472E0,6.228547668E-1,2.569098290E0
1.062002633E1,9.864486694E-2,-2.807112579E0,6.924600220E-1,2.892941881E0
1.063003533E1,-5.972579956E-2,-2.958747253E0,7.586224365E-1,3.055038540E0
1.064004333E1,-2.655477905E-1,-3.019670563E0,8.138575745E-1,3.138676487E0
1.065005233E1,-5.852828979E-1,-2.950514374E0,8.146060181E-1,3.116355902E0
1.066006133E1,-9.220825195E-1,-2.855761414E0,7.699987793E-1,3.098145824E0
1.067006933E1,-1.280587006E0,-2.799029388E0,6.762936401E-1,3.151482458E0
1.068008192E1,-1.723964996E0,-2.803520050E0,6.924600220E-1,3.363224771E0
1.069008992E1,-2.118694153E0,-2.775378571E0,8.069718933E-1,3.583684523E0
1.070009892E1,-2.584076385E0,-2.664159851E0,8.337661743E-1,3.803993232E0
1.071010792E1,-3.208428040E0,-2.544708252E0,8.440946960E-1,4.181153720E0
1.072011592E1,-3.866759033E0,-2.385140076E0,8.973838806E-1,4.630984391E0
1.073012492E1,-4.593198395E0,-2.237696686E0,9.886940002E-1,5.204063199E0
1.074013392E1,-5.419629822E0,-2.026635590E0,1.191821594E0,5.907628791E0
1.075014192E1,-6.533014526E0,-1.670077057E0,1.315165100E0,6.870159781E0
1.076015092E1,-7.987539825E0,-9.590556335E-1,1.463207245E0,8.176891562E0
1.077015992E1,-9.404642944E0,2.456391907E-1,1.793121185E0,9.577208941E0
1.078016792E1,-1.093371323E1,2.038910065E0,1.993404694E0,1.129942040E1
1.079017692E1,-1.234273315E1,4.349056091E0,2.064506836E0,1.324837873E1
1.080018492E1,-1.358395203E1,7.336842957E0,1.966909790E0,1.556347491E1
1.081019392E1,-1.484552856E1,1.076785812E1,1.487606506E0,1.839971359E1
1.082020292E1,-1.591565323E1,1.407942169E1,8.286767578E-1,2.126557871E1
1.083021092E1,-1.676034668E1,1.701391937E1,1.222956848E-1,2.388299875E1
1.084021992E1,-1.719399490E1,1.930819839E1,-4.644841003E-1,2.585837836E1
1.085022892E1,-1.727063553E1,2.064192490E1,-6.339317322E-1,2.692147441E1
1.086023692E1,-1.704834778E1,2.127151566E1,-2.254312134E-1,2.726122447E1
1.087024592E1,-1.667083282E1,2.185679855E1,4.107458496E-1,2.749190830E1
1.088025392E1,-1.641696075E1,2.259730865E1,9.666897583E-1,2.794797753E1
1.089026292E1,-1.584589828E1,2.304652451E1,1.564845886E0,2.801220318E1
1.090027192E1,-1.497575775E1,2.292707291E1,2.089055786E0,2.746430677E1
1.091027992E1,-1.411549667E1,2.227532822E1,2.367476807E0,2.647720604E1
1.092028892E1,-1.331945206E1,2.130833908E1,2.464924164E0,2.524933600E1
1.093029792E1,-1.274180328E1,2.021905426E1,2.213746490E0,2.400134120E1
1.094030592E1,-1.228824646E1,1.916000656E1,1.782193909E0,2.283162429E1
1.095031492E1,-1.206131836E1,1.846814529E1,1.361568604E0,2.209981132E1
1.096032292E1,-1.189276886E1,1.792058395E1,1.053958282E0,2.153360417E1
1.097033192E1,-1.185070633E1,1.744367569E1,8.098159790E-1,2.110395375E1
1.098034092E1,-1.185519699E1,1.692650116E1,7.744894409E-1,2.067974785E1
1.099034892E1,-1.186387894E1,1.618090164E1,1.026265869E0,2.009045602E1
1.100035792E1,-1.183663559E1,1.517125122E1,1.455124054E0,1.929741412E1
1.101036692E1,-1.178529236E1,1.398871033E1,1.883982239E0,1.838821692E1
1.102037492E1,-1.146525787E1,1.265124161E1,2.384691010E0,1.723928083E1
1.103038392E1,-1.092967163E1,1.114537308E1,2.727178802E0,1.584659481E1
1.104039192E1,-1.020188507E1,9.503287811E0,2.946622467E0,1.425038674E1
1.105040092E1,-9.315278778E0,7.859106903E0,2.923420715E0,1.253341010E1
1.106040992E1,-8.358767853E0,6.309379578E0,2.735411682E0,1.082403565E1
1.107041792E1,-7.326514435E0,4.904700623E0,2.503992920E0,9.165363195E0
1.108042692E1,-6.364015961E0,3.654949493E0,2.241289215E0,7.673508474E0
1.109043592E1,-5.567372589E0,2.637964325E0,1.961071930E0,6.465314876E0
1.110044392E1,-4.854255524E0,1.716630249E0,1.789977722E0,5.451113313E0
1.111045292E1,-4.195625153E0,7.330256653E-1,1.604962463E0,4.551538372E0
1.112046092E1,-3.619173889E0,-4.490661621E-3,1.463207245E0,3.903769364E0
1.113046992E1,-3.122806091E0,-6.402186584E-1,1.428928528E0,3.493370085E0
1.114047892E1,-2.729274445E0,-1.168919220E0,1.461261292E0,3.309168430E0
1.115048692E1,-2.384541321E0,-1.565594330E0,1.569336548E0,3.255754923E0
1.116049592E1,-2.007325745E0,-1.858086090E0,1.717827759E0,3.229980305E0
1.117050492E1,-1.685045929E0,-2.138752441E0,1.828447723E0,3.279765672E0
1.118051292E1,-1.408271484E0,-2.504741364E0,1.848206635E0,3.416551717E0
1.119052192E1,-1.108145599E0,-2.850222931E0,1.793869629E0,3.545380892E0
1.120053092E1,-7.779322815E-1,-3.108435974E0,1.650168457E0,3.604248712E0
1.121053892E1,-5.486091614E-1,-3.226091309E0,1.443148956E0,3.576494940E0
1.122054792E1,-4.662803650E-1,-3.205284576E0,1.260229340E0,3.475549537E0
1.123055592E1,-5.698649597E-1,-3.094963989E0,1.130898285E0,3.344021396E0
1.124056492E1,-7.869136047E-1,-2.929707642E0,9.939331055E-1,3.192228517E0
1.125057392E1,-1.060694275E0,-2.651436310E0,8.584648132E-1,2.981970604E0
1.126058192E1,-1.448238373E0,-2.224374390E0,7.610174561E-1,2.761228599E0
1.127059092E1,-1.897154846E0,-1.638193359E0,7.806266785E-1,2.625309887E0
1.128059992E1,-2.435884552E0,-1.016236725E0,8.786727905E-1,2.781786567E0
1.129060792E1,-3.007845154E0,-5.216651917E-1,1.033750305E0,3.223027573E0
1.130061692E1,-3.619772644E0,-1.191522217E-1,1.121168518E0,3.791301899E0
1.131062492E1,-4.275109863E0,3.739224243E-1,1.134490814E0,4.438857030E0
1.132063392E1,-4.988526306E0,9.857002258E-1,1.096170502E0,5.201787136E0
1.133064292E1,-5.795348511E0,1.754202118E0,1.074016571E0,6.149536651E0
1.134065092E1,-6.582860870E0,2.613864441E0,1.132395172E0,7.172772364E0
1.135065992E1,-7.451354828E0,3.484304352E0,1.123114471E0,8.302075144E0
1.136066892E1,-8.562643890E0,4.294868774E0,9.901908875E-1,9.630433333E0
1.137067692E1,-9.688901825E0,5.187761993E0,9.773176575E-1,1.103371392E1
1.138068592E1,-1.072729248E1,6.477929077E0,1.061891785E0,1.257640582E1
1.139069392E1,-1.162692169E1,8.064629517E0,1.387015686E0,1.421785391E1
1.140070292E1,-1.249002686E1,9.685758362E0,1.917512512E0,1.592141765E1
1.141071192E1,-1.357961105E1,1.153995255E1,2.617756348E0,1.801191243E1
1.142071992E1,-1.443837524E1,1.359592712E1,3.196752319E0,2.008818408E1
1.143072892E1,-1.481753677E1,1.563348999E1,3.361409912E0,2.180056150E1
1.144073792E1,-1.469733673E1,1.730072296E1,3.027154999E0,2.290175516E1
1.145074592E1,-1.420680679E1,1.854463623E1,2.381248169E0,2.348206198E1
1.146075492E1,-1.366807709E1,1.966281097E1,1.689686279E0,2.400619725E1
1.147076292E1,-1.319101913E1,2.058040283E1,1.150058441E0,2.447199626E1
1.148077192E1,-1.263776962E1,2.093232101E1,8.741821289E-1,2.446711014E1
1.149078092E1,-1.227222977E1,2.074790451E1,6.915618896E-1,2.411558465E1
1.150078892E1,-1.207164688E1,2.036814423E1,6.586303711E-1,2.368585552E1
1.151079792E1,-1.188618256E1,2.006741959E1,8.060737610E-1,2.333736102E1
1.152080692E1,-1.162003601E1,1.979393829E1,7.861651611E-1,2.296613345E1
1.153081492E1,-1.125329865E1,1.940609482E1,4.912783813E-1,2.243823970E1
1.154082392E1,-1.094913116E1,1.892454620E1,-1.182540894E-2,2.186371565E1
1.155083192E1,-1.081830322E1,1.838536743E1,-4.153862000E-1,2.133611881E1
1.156084092E1,-1.071711365E1,1.766955597E1,-4.739144897E-1,2.067109886E1
1.157084992E1,-1.067654800E1,1.676648392E1,-3.305126953E-1,1.987996225E1
1.158085792E1,-1.069091812E1,1.599364105E1,-6.107299805E-2,1.923787967E1
1.159086692E1,-1.064047302E1,1.517858597E1,3.098556519E-1,1.853928663E1
1.160087592E1,-1.050635193E1,1.420291489E1,7.719447327E-1,1.768338544E1
1.161088392E1,-1.030936157E1,1.310913940E1,1.237925720E0,1.672318546E1
1.162089292E1,-1.027448410E1,1.210173431E1,1.576072540E0,1.595308753E1
1.163090092E1,-1.017374359E1,1.121632553E1,2.074086914E0,1.528439903E1
1.164090992E1,-9.856253815E0,1.024963577E1,2.566113739E0,1.444941910E1
1.165091892E1,-9.454788666E0,9.274713135E0,3.037333832E0,1.358818344E1
1.166092692E1,-8.948242035E0,8.246800690E0,3.379821625E0,1.262948737E1
1.167093592E1,-8.295748901E0,7.112160187E0,3.502117310E0,1.147462845E1
1.168094117E1,-7.485783234E0,5.960604858E0,3.376827850E0,1.014735075E1
1.169094917E1,-6.608158264E0,4.824168091E0,3.090173950E0,8.745829203E0
1.170095817E1,-5.754782867E0,3.772904205E0,2.755619659E0,7.412541514E0
1.171096617E1,-5.005291443E0,2.859503632E0,2.416275330E0,6.250447177E0
1.172097517E1,-4.308640137E0,2.124981079E0,2.168839874E0,5.271033183E0
1.173098417E1,-3.690425720E0,1.488804016E0,1.950144653E0,4.431573486E0
1.174099217E1,-3.110381927E0,8.175997925E-1,1.690584412E0,3.633320906E0
1.175100117E1,-2.553390198E0,3.637435913E-1,1.459914093E0,2.963690278E0
1.176101017E1,-2.039508820E0,6.047424316E-2,1.296004944E0,2.417205447E0
1.177101817E1,-1.651964722E0,-1.948947144E-1,1.165925446E0,2.031342791E0
1.178102717E1,-1.361418915E0,-3.691323853E-1,1.108894043E0,1.794259228E0
1.179103517E1,-1.211281128E0,-4.700225830E-1,1.101708984E0,1.703492262E0
1.180104417E1,-1.209634552E0,-5.195695496E-1,1.151854706E0,1.749267712E0
1.181105317E1,-1.242865448E0,-4.673281860E-1,1.249601440E0,1.823352384E0
1.182106117E1,-1.234482880E0,-4.646337891E-1,1.370400238E0,1.902059239E0
1.183107017E1,-1.229543152E0,-4.634362793E-1,1.319805450E0,1.862373747E0
1.184107917E1,-1.286724243E0,-2.191442871E-1,1.140628052E0,1.733411621E0
1.185108717E1,-1.263372803E0,-9.430389404E-3,1.010997620E0,1.618121120E0
1.186109617E1,-1.289418640E0,4.206253052E-2,8.222401428E-1,1.529852456E0
1.187110417E1,-1.408570862E0,9.744735718E-2,6.283932495E-1,1.545459781E0
1.188111317E1,-1.579665070E0,2.564167786E-1,5.059478760E-1,1.678414296E0
1.189112217E1,-1.776206360E0,4.834945679E-1,5.161267090E-1,1.911821856E0
1.190113017E1,-2.024689636E0,7.195536804E-1,5.569917297E-1,2.219766972E0
1.191113917E1,-2.326911163E0,9.848020935E-1,6.116281128E-1,2.599699920E0
1.192114817E1,-2.650238800E0,1.246008911E0,6.962022400E-1,3.010149741E0
1.193115617E1,-3.052452393E0,1.528920593E0,7.619155884E-1,3.497939272E0
1.194116517E1,-3.535647583E0,1.791025543E0,8.385562134E-1,4.051142166E0
1.195117317E1,-3.936813354E0,2.037562866E0,9.021739197E-1,4.523724086E0
1.196118217E1,-4.259392548E0,2.218087463E0,8.077203369E-1,4.869779154E0
1.197119117E1,-4.517455902E0,2.439477081E0,6.337820435E-1,5.173020002E0
1.198119917E1,-4.808151398E0,2.690654755E0,4.819976807E-1,5.530846647E0
1.199120817E1,-5.179229736E0,2.946772156E0,4.251159668E-1,5.973994508E0
1.200121717E1,-5.752687225E0,3.172802124E0,4.912783813E-1,6.587976782E0
1.201122517E1,-6.539151764E0,3.573369141E0,6.463558960E-1,7.479789352E0
1.202123417E1,-7.420668640E0,4.163741455E0,9.559121704E-1,8.562524981E0
1.203124217E1,-8.262068939E0,4.892126770E0,1.364113312E0,9.698221106E0
1.204125117E1,-9.070537720E0,5.594915314E0,1.495540009E0,1.076170859E1
1.205126017E1,-9.931996307E0,6.289470978E0,1.348246307E0,1.183299472E1
1.206126817E1,-1.086380859E1,6.987469482E0,1.096918945E0,1.296342154E1
1.207127717E1,-1.190234894E1,8.131690063E0,7.948471069E-1,1.443683052E1
1.208128617E1,-1.289762924E1,9.743388519E0,6.478527832E-1,1.617721154E1
1.209129417E1,-1.366987335E1,1.163754959E1,6.385720825E-1,1.796401326E1
1.210130317E1,-1.423240356E1,1.343306580E1,6.864724731E-1,1.958264059E1
1.211131117E1,-1.446157700E1,1.477547424E1,9.375004578E-1,2.069615316E1
1.212132017E1,-1.446906143E1,1.561627579E1,8.310717773E-1,2.130522209E1
1.213132917E1,-1.445005096E1,1.600696335E1,1.678010559E-1,2.156513403E1
1.214133717E1,-1.425350967E1,1.622940079E1,-7.920030212E-1,2.161442242E1
1.215134617E1,-1.407732605E1,1.665571426E1,-1.828447723E0,2.188440421E1
1.216135417E1,-1.388767044E1,1.727347961E1,-2.684667206E0,2.232594738E1
1.217136317E1,-1.368319565E1,1.796099991E1,-3.241658936E0,2.281086832E1
1.218137217E1,-1.339908646E1,1.851230347E1,-3.442990265E0,2.311049717E1
1.219138017E1,-1.306857376E1,1.877560593E1,-3.287164307E0,2.311095946E1
1.220138917E1,-1.279958313E1,1.843745911E1,-2.969973907E0,2.264044990E1
1.221139817E1,-1.240515335E1,1.770518188E1,-2.489024048E0,2.176135418E1
1.222140617E1,-1.195713501E1,1.664763107E1,-2.125879211E0,2.060669941E1
1.223141517E1,-1.155462204E1,1.568348602E1,-1.954934692E0,1.957812029E1
1.224142317E1,-1.103639969E1,1.497994904E1,-1.738484802E0,1.868751778E1
1.225143217E1,-1.054946228E1,1.425096497E1,-1.578617249E0,1.780093226E1
1.226144117E1,-1.021460861E1,1.357137817E1,-1.377884674E0,1.704168715E1
1.227144917E1,-1.002630020E1,1.300675232E1,-9.416917419E-1,1.644959224E1
1.228145817E1,-9.903405762E0,1.252310806E1,-3.899391174E-1,1.597052703E1
1.229146717E1,-9.818532257E0,1.191417435E1,1.451980591E-1,1.543930726E1
1.230147517E1,-9.703571320E0,1.125344833E1,6.902146912E-1,1.487534175E1
1.231148417E1,-9.458381195E0,1.040007294E1,1.166075134E0,1.410610588E1
1.232149217E1,-9.164392548E0,9.408983917E0,1.501527557E0,1.322004743E1
1.233150117E1,-8.809181213E0,8.436456299E0,1.715881805E0,1.231745586E1
1.234151017E1,-8.280031586E0,7.630083160E0,1.940714264E0,1.142556187E1
1.235151817E1,-7.720644836E0,6.816674652E0,2.006726990E0,1.049296732E1
1.236152717E1,-7.178172913E0,6.055507507E0,1.930535431E0,9.587612038E0
1.237153617E1,-6.683002625E0,5.541177063E0,1.878743134E0,8.882389492E0
1.238154417E1,-6.223308563E0,5.059029694E0,1.865121460E0,8.234198745E0
1.239155317E1,-5.765710144E0,4.530628510E0,1.847607880E0,7.561988034E0
1.240156117E1,-5.382057953E0,4.075724487E0,1.826202393E0,6.993789608E0
1.241157017E1,-4.997956696E0,3.710184631E0,1.882036285E0,6.502853351E0
1.242157917E1,-4.685556335E0,3.474275208E0,1.959874420E0,6.153546468E0
1.243158717E1,-4.463717651E0,3.240012360E0,2.035916290E0,5.879405625E0
1.244159617E1,-4.245022430E0,3.120261383E0,2.067650299E0,5.659631109E0
1.245160417E1,-3.972588959E0,3.077001343E0,2.038460999E0,5.422612243E0
1.246161317E1,-3.634741516E0,3.023263092E0,1.937720490E0,5.109425242E0
1.247162217E1,-3.300486603E0,2.905158691E0,1.757495270E0,4.735181988E0
1.248163017E1,-3.026556244E0,2.712209930E0,1.602717133E0,4.368618501E0
1.249163917E1,-2.807112579E0,2.582729187E0,1.515298920E0,4.104449038E0
1.250164817E1,-2.646945648E0,2.481838989E0,1.448088684E0,3.906764246E0
1.251165617E1,-2.480042725E0,2.351609802E0,1.434467010E0,3.706531557E0
1.252166517E1,-2.358196106E0,2.241588593E0,1.454225922E0,3.563787497E0
1.253167317E1,-2.327809296E0,2.003583527E0,1.413809967E0,3.381109535E0
1.254168217E1,-2.274969177E0,1.838327179E0,1.376238098E0,3.232485557E0
1.255169117E1,-2.195484467E0,1.761087799E0,1.280137939E0,3.091979208E0
1.256169917E1,-2.146985321E0,1.688339081E0,1.117725677E0,2.951160028E0
1.257170817E1,-2.220482483E0,1.651665344E0,9.761201477E-1,2.934510421E0
1.258171717E1,-2.336191864E0,1.724114685E0,8.686436462E-1,3.030660927E0
1.259172517E1,-2.485281830E0,1.892813873E0,8.116122437E-1,3.227705774E0
1.260173417E1,-2.697390747E0,2.221679993E0,7.867639160E-1,3.582007299E0
1.261174217E1,-2.948718109E0,2.695295105E0,8.187973022E-1,4.077987642E0
1.262175117E1,-3.220103760E0,3.041076050E0,8.783734131E-1,4.515390528E0
1.263176017E1,-3.482208710E0,3.246149597E0,9.529183960E-1,4.855030193E0
1.264176817E1,-3.797453156E0,3.545227661E0,1.053808594E0,5.300924654E0
1.265177717E1,-4.062252502E0,3.848197632E0,1.184187469E0,5.719512249E0
1.266178617E1,-4.260889435E0,4.049978027E0,1.250050507E0,6.010002252E0
1.267179417E1,-4.490362244E0,4.240232391E0,1.295256500E0,6.310357614E0
1.268180683E1,-4.723427582E0,4.404440918E0,1.301393738E0,6.588132784E0
1.269181483E1,-5.041516113E0,4.460125122E0,1.273102570E0,6.850575960E0
1.270182383E1,-5.379662933E0,4.360582123E0,1.168919220E0,7.022949656E0
1.271183283E1,-5.770200806E0,4.224066010E0,1.121318207E0,7.238460162E0
1.272184083E1,-6.121969299E0,4.138294373E0,1.121767273E0,7.474112003E0
1.273184983E1,-6.469247131E0,4.068539429E0,1.182989960E0,7.733281113E0
1.274185783E1,-6.803352356E0,3.992497559E0,1.268162842E0,7.989610568E0
1.275186683E1,-7.251969452E0,3.963757324E0,1.309327240E0,8.367602457E0
1.276187583E1,-7.978259125E0,4.251908112E0,1.561253357E0,9.174358468E0
1.277188383E1,-8.709937592E0,5.057083740E0,1.802252197E0,1.023157963E1
1.278189283E1,-9.568252716E0,6.221961365E0,1.856888580E0,1.156340341E1
1.279190183E1,-1.021281235E1,7.562274170E0,1.964365082E0,1.285878131E1
1.280190983E1,-1.057401123E1,8.597820740E0,1.993105316E0,1.377333307E1
1.281191883E1,-1.087473587E1,9.204958191E0,1.816622314E0,1.436284276E1
1.282192683E1,-1.117096985E1,9.585317230E0,1.616338806E0,1.480815400E1
1.283193583E1,-1.154564072E1,1.027942383E1,1.463656311E0,1.552773852E1
1.284194483E1,-1.211954727E1,1.151330795E1,1.321002960E0,1.676856389E1
1.285195283E1,-1.255648865E1,1.290526337E1,1.363963623E0,1.805745349E1
1.286196183E1,-1.278117142E1,1.409723465E1,1.436862030E0,1.908284413E1
1.287196983E1,-1.279628998E1,1.504850647E1,1.501228180E0,1.981050909E1
1.288197883E1,-1.275437714E1,1.584455109E1,1.402583313E0,2.038850596E1
1.289198783E1,-1.283206558E1,1.671873322E1,1.060245209E0,2.110218158E1
1.290199583E1,-1.296678543E1,1.759845383E1,6.420149231E-1,2.186904855E1
1.291200483E1,-1.306572968E1,1.834674774E1,2.878514099E-1,2.252552559E1
1.292201383E1,-1.299537598E1,1.893607224E1,1.534309387E-1,2.296689290E1
1.293202183E1,-1.255843460E1,1.910177765E1,3.165916443E-1,2.286246748E1
1.294203083E1,-1.198542618E1,1.862861160E1,6.174659729E-1,2.215980314E1
1.295203883E1,-1.170580765E1,1.780173111E1,9.937834167E-1,2.132874044E1
1.296204783E1,-1.167557053E1,1.692769867E1,1.384171600E0,2.061023679E1
1.297205683E1,-1.150941605E1,1.594274689E1,1.795665894E0,1.974492978E1
1.298206483E1,-1.128293701E1,1.497830246E1,2.055525513E0,1.886476603E1
1.299207383E1,-1.104807541E1,1.408421173E1,2.111209717E0,1.802448881E1
1.300208283E1,-1.076112213E1,1.328397583E1,2.155367889E0,1.723111645E1
1.301209083E1,-1.045695465E1,1.245140717E1,2.273322601E0,1.641808261E1
1.302209983E1,-1.024858795E1,1.154159912E1,2.449955292E0,1.562831873E1
1.303210783E1,-1.008168503E1,1.061008621E1,2.735561371E0,1.488951304E1
1.304211683E1,-9.805060272E0,9.620643768E0,2.947819977E0,1.404939985E1
1.305212583E1,-9.624535675E0,8.783584442E0,3.096011810E0,1.339284629E1
1.306213383E1,-9.365424500E0,8.074658661E0,3.323239288E0,1.280449952E1
1.307214283E1,-8.868308258E0,7.358098755E0,3.412603455E0,1.201808516E1
1.308215083E1,-8.383466492E0,6.691684570E0,3.374582520E0,1.124495264E1
1.309215983E1,-7.871231689E0,6.050118713E0,3.285817108E0,1.045738107E1
1.310216883E1,-7.324269104E0,5.311255188E0,3.048859863E0,9.547245469E0
1.311217683E1,-6.811884613E0,4.624782715E0,2.779569855E0,8.690017015E0
1.312218583E1,-6.353687439E0,4.068240051E0,2.556833038E0,7.966010066E0
1.313219483E1,-5.884862366E0,3.646566925E0,2.374961243E0,7.319118547E0
1.314220283E1,-5.383105774E0,3.203937378E0,2.223625946E0,6.647372025E0
1.315221183E1,-4.900060272E0,2.920876007E0,2.051483917E0,6.062235032E0
1.316221983E1,-4.410727844E0,2.734663239E0,1.953587494E0,5.545214806E0
1.317222883E1,-3.946543121E0,2.501897278E0,1.855840759E0,5.027806432E0
1.318223783E1,-3.513343964E0,2.184257813E0,1.736389160E0,4.486603984E0
1.319224583E1,-3.090173950E0,1.828298035E0,1.605710907E0,3.933211952E0
1.320225483E1,-2.671195221E0,1.493594055E0,1.445543976E0,3.384627675E0
1.321226283E1,-2.256258087E0,1.207688599E0,1.273701324E0,2.858588353E0
1.322227183E1,-1.865869904E0,9.343569946E-1,1.108894043E0,2.363078392E0
1.323228083E1,-1.559756470E0,7.195536804E-1,9.720785522E-1,1.973710834E0
1.324228883E1,-1.326391754E0,4.923262024E-1,8.828640747E-1,1.667677771E0
1.325229783E1,-1.169967041E0,1.890568542E-1,7.688012695E-1,1.412664420E0
1.326230683E1,-1.070573730E0,-1.094224548E-1,6.138734436E-1,1.238927758E0
1.327231483E1,-1.068328400E0,-3.119512939E-1,4.490661621E-1,1.200124826E0
1.328232383E1,-1.118324432E0,-4.034111023E-1,3.692820740E-1,1.244893290E0
1.329233183E1,-1.147513733E0,-3.718267822E-1,3.617976379E-1,1.259341278E0
1.330234083E1,-1.219064941E0,-3.016227722E-1,3.122506714E-1,1.294061865E0
1.331234983E1,-1.450334015E0,-1.938468933E-1,2.921923828E-1,1.492119888E0
1.332235783E1,-1.803599396E0,3.353027344E-2,3.611988831E-1,1.839717286E0
1.333236683E1,-2.099833374E0,4.013154602E-1,5.159770203E-1,2.199224087E0
1.334237483E1,-2.322869568E0,6.798861694E-1,6.511459351E-1,2.506383702E0
1.335238383E1,-2.610421600E0,7.696994019E-1,6.340814209E-1,2.794422543E0
1.336239283E1,-2.851121063E0,7.505392456E-1,5.553451538E-1,3.000101451E0
1.337240083E1,-3.105591888E0,7.140151978E-1,5.074447632E-1,3.226766008E0
1.338240983E1,-3.453019409E0,6.620732117E-1,4.827461243E-1,3.548905155E0
1.339241883E1,-3.890409851E0,6.447093201E-1,5.480104065E-1,3.981363375E0
1.340242683E1,-4.458029480E0,6.167175293E-1,6.343807983E-1,4.544975946E0
1.341243583E1,-5.097350006E0,6.333329773E-1,7.068301392E-1,5.184949044E0
1.342244383E1,-5.823789368E0,7.460485840E-1,8.255332947E-1,5.929132846E0
1.343245283E1,-6.737339630E0,1.101110229E0,9.868977356E-1,6.897692090E0
1.344246183E1,-7.566615143E0,1.660946045E0,1.381327515E0,7.868956232E0
1.345246983E1,-8.570427704E0,2.435585175E0,1.704206085E0,9.071307764E0
1.346247883E1,-9.762848053E0,3.604803772E0,2.023941193E0,1.060208236E1
1.347248783E1,-1.094074860E1,4.847968597E0,2.221081238E0,1.217111257E1
1.348249583E1,-1.196417038E1,6.052962799E0,2.227817230E0,1.359201608E1
1.349250483E1,-1.281649796E1,7.420818329E0,2.387535095E0,1.500104957E1
1.350251283E1,-1.370100861E1,9.055419159E0,2.811902618E0,1.666208418E1
1.351252183E1,-1.486139557E1,1.094344299E1,3.563489685E0,1.879676785E1
1.352253083E1,-1.587224350E1,1.309057800E1,4.564607849E0,2.107432065E1
1.353253883E1,-1.648237473E1,1.523831177E1,5.610183563E0,2.313760968E1
1.354254783E1,-1.706646011E1,1.720207809E1,6.433022461E0,2.507108553E1
1.355255583E1,-1.717393661E1,1.878653320E1,7.049739990E0,2.641167853E1
1.356256483E1,-1.687006851E1,1.983555176E1,7.163204041E0,2.700666246E1
1.357257383E1,-1.626981674E1,2.032323761E1,6.823111267E0,2.691274366E1
1.358258183E1,-1.559277466E1,2.039089691E1,6.253994751E0,2.642036617E1
1.359259083E1,-1.491767853E1,2.022534119E1,5.840255127E0,2.580135924E1
1.360259883E1,-1.428374680E1,1.981624191E1,5.482349396E0,2.503527553E1
1.361260783E1,-1.381252670E1,1.930939590E1,5.099445648E0,2.428256597E1
1.362261683E1,-1.335807175E1,1.868953491E1,4.617597656E0,2.343200811E1
1.363262483E1,-1.291065216E1,1.796743652E1,4.078568573E0,2.249774291E1
1.364263383E1,-1.255439301E1,1.723725494E1,3.463347931E0,2.160394688E1
1.365264283E1,-1.225247086E1,1.654359741E1,2.908451843E0,2.079116999E1
1.366265083E1,-1.191013275E1,1.575383972E1,2.607727203E0,1.992071709E1
1.367265983E1,-1.155357422E1,1.483340378E1,2.537223816E0,1.897241286E1
1.368266454E1,-1.127844635E1,1.385683456E1,2.716101837E0,1.807186834E1
1.369267354E1,-1.097308136E1,1.272668472E1,2.909200287E0,1.705404541E1
1.370268254E1,-1.073627380E1,1.155462204E1,3.031495972E0,1.606134594E1
1.371269054E1,-1.058029816E1,1.038555313E1,3.261866913E0,1.518032275E1
1.372269954E1,-1.029618896E1,9.286688232E0,3.508853302E0,1.430266189E1
1.373270754E1,-9.843230896E0,8.335416412E0,3.695515137E0,1.341734673E1
1.374271654E1,-9.257199554E0,7.350165253E0,3.685036926E0,1.238144458E1
1.375272554E1,-8.678652649E0,6.309828644E0,3.614234161E0,1.132235125E1
1.376273354E1,-8.097860413E0,5.318739624E0,3.531755676E0,1.031201399E1
1.377274254E1,-7.442523193E0,4.397405548E0,3.420387268E0,9.296632514E0
1.378275054E1,-6.792275391E0,3.578608246E0,3.291205902E0,8.353052032E0
1.379275954E1,-6.167923737E0,3.020269318E0,3.187471619E0,7.571346333E0
1.380276854E1,-5.509592743E0,2.309846649E0,3.031795349E0,6.699461678E0
1.381277654E1,-4.912185059E0,1.606010284E0,2.782713318E0,5.869610251E0
1.382278554E1,-4.309538269E0,1.117426300E0,2.569107513E0,5.140143485E0
1.383279454E1,-3.711082764E0,7.490423584E-1,2.313289490E0,4.436722664E0
1.384280254E1,-3.190016327E0,4.101470947E-1,2.034419403E0,3.805691411E0
1.385281154E1,-2.780168610E0,1.080752563E-1,1.808688812E0,3.318489563E0
1.386281954E1,-2.454296265E0,-7.649093628E-2,1.654359741E0,2.960798401E0
1.387282854E1,-2.195783844E0,-1.460961914E-1,1.569635925E0,2.703066356E0
1.388283754E1,-1.990710297E0,-1.910028076E-1,1.516795807E0,2.509995832E0
1.389284554E1,-1.864522705E0,-2.523751831E-1,1.496438141E0,2.404051842E0
1.390285454E1,-1.801952820E0,-2.803669739E-1,1.468596039E0,2.341455515E0
1.391286254E1,-1.850451965E0,-2.553689575E-1,1.475032654E0,2.380148548E0
1.392287154E1,-1.872456207E0,-1.748364258E-1,1.546583862E0,2.434867895E0
1.393288054E1,-1.861229553E0,-8.726852417E-2,1.544338531E0,2.420077012E0
1.394288854E1,-1.896855469E0,-1.317260742E-2,1.490001526E0,2.412123283E0
1.395289754E1,-1.957180023E0,-1.134640503E-1,1.368304596E0,2.390749924E0
1.396290654E1,-2.118694153E0,-7.529342651E-2,1.138382721E0,2.406335229E0
1.397291454E1,-2.285297699E0,1.431024170E-1,1.006806335E0,2.501344213E0
1.398292354E1,-2.454745331E0,4.565505981E-1,8.476872253E-1,2.636813744E0
1.399293154E1,-2.650687866E0,8.069718933E-1,6.122268677E-1,2.837634849E0
1.400294054E1,-2.895578613E0,1.071621552E0,4.399351501E-1,3.118700241E0
1.401294954E1,-3.120560760E0,1.250349884E0,5.102888489E-1,3.400245433E0
1.402295754E1,-3.387455750E0,1.445993042E0,6.083349609E-1,3.733071625E0
1.403296654E1,-3.720662842E0,1.712738342E0,7.655081177E-1,4.166870203E0
1.404297454E1,-3.930825806E0,1.980232086E0,9.900411987E-1,4.511417982E0
1.405298354E1,-4.173620911E0,2.134710846E0,1.186732178E0,4.835745564E0
1.406299254E1,-4.513264618E0,2.225871277E0,1.348246307E0,5.209782007E0
1.407300054E1,-4.862638092E0,2.292183380E0,1.484313354E0,5.576965124E0
1.408300954E1,-5.239853668E0,2.448159027E0,1.480271759E0,5.969987736E0
1.409301854E1,-5.675298157E0,2.888543243E0,1.356928253E0,6.511063317E0
1.410302654E1,-6.255192261E0,3.488944702E0,1.145418091E0,7.253423189E0
1.411303554E1,-6.954388275E0,4.022435303E0,1.030906219E0,8.099769730E0
1.412304354E1,-7.728877716E0,4.760251007E0,1.159638519E0,9.150972729E0
1.413305254E1,-8.635093231E0,5.729934540E0,1.501527557E0,1.047146456E1
1.414306154E1,-9.541009369E0,6.843468933E0,2.062860260E0,1.192138076E1
1.415306954E1,-1.035786072E1,7.940687256E0,2.677781525E0,1.332329939E1
1.416307854E1,-1.101933517E1,9.277407532E0,3.328927460E0,1.478437676E1
1.417308654E1,-1.159773239E1,1.051308792E1,3.709436188E0,1.608702369E1
1.418309554E1,-1.215113159E1,1.142379410E1,3.847449188E0,1.711595559E1
1.419310454E1,-1.297501831E1,1.249736160E1,3.647914124E0,1.838049033E1
1.420311254E1,-1.389365799E1,1.393691803E1,3.491040344E0,1.998646490E1
1.421312154E1,-1.452788910E1,1.561088699E1,3.450325012E0,2.160240952E1
1.422312954E1,-1.501138367E1,1.732916382E1,3.351231079E0,2.317050513E1
1.423313854E1,-1.530357605E1,1.889909912E1,3.410956879E0,2.455626222E1
1.424314754E1,-1.519026169E1,1.991982651E1,3.779041443E0,2.533425926E1
1.425315554E1,-1.492441452E1,2.038116714E1,4.242926788E0,2.561508444E1
1.426316454E1,-1.464719101E1,2.033386551E1,4.772525482E0,2.551045453E1
1.427317254E1,-1.433988007E1,1.979723145E1,5.084476776E0,2.496826861E1
1.428318154E1,-1.391895538E1,1.879237106E1,5.167554016E0,2.394982555E1
1.429319054E1,-1.331121918E1,1.762420029E1,5.090913391E0,2.266535662E1
1.430319854E1,-1.254571106E1,1.639944717E1,4.794230347E0,2.119720213E1
1.431320754E1,-1.183738403E1,1.519130951E1,4.343667297E0,1.974251734E1
1.432321654E1,-1.121168518E1,1.417746780E1,3.955823822E0,1.850273007E1
1.433322454E1,-1.073148376E1,1.327843735E1,3.716022491E0,1.747256322E1
1.434323354E1,-1.035786072E1,1.238344849E1,3.719615021E0,1.656715458E1
1.435324154E1,-1.000384689E1,1.151824768E1,3.789669342E0,1.571968753E1
1.436325054E1,-9.610914001E0,1.058389069E1,3.749702454E0,1.478000942E1
1.437325954E1,-9.250164185E0,9.643995209E0,3.692970428E0,1.386398974E1
1.438326754E1,-8.898695068E0,8.780440979E0,3.686683502E0,1.303359325E1
1.439327654E1,-8.535550232E0,7.944429474E0,3.609743500E0,1.220654847E1
1.440328454E1,-8.208181000E0,7.125033417E0,3.476670227E0,1.141172960E1
1.441329354E1,-7.865842896E0,6.381230164E0,3.317850494E0,1.065831669E1
1.442330254E1,-7.408693542E0,5.697751465E0,3.182681580E0,9.873326380E0
1.443331054E1,-6.850504303E0,5.057532806E0,3.036435699E0,9.040353370E0
1.444331954E1,-6.246809692E0,4.450095978E0,2.872975616E0,8.190236531E0
1.445332754E1,-5.696404266E0,3.901187439E0,2.674488373E0,7.404132161E0
1.446333654E1,-5.203030243E0,3.382815399E0,2.522404633E0,6.699066268E0
1.447334554E1,-4.710254974E0,2.951412506E0,2.449206848E0,6.074203807E0
1.448335354E1,-4.308789825E0,2.635269928E0,2.393372955E0,5.589145861E0
1.449336254E1,-4.013903046E0,2.363734589E0,2.389031982E0,5.235086693E0
1.450337154E1,-3.719016266E0,2.079625397E0,2.419269104E0,4.899876200E0
1.451337954E1,-3.399131470E0,1.825603638E0,2.394420776E0,4.540944202E0
1.452338854E1,-3.058889008E0,1.627415771E0,2.248474274E0,4.130486728E0
1.453339654E1,-2.715952148E0,1.555864563E0,2.042801971E0,3.737666452E0
1.454340554E1,-2.422262878E0,1.352138214E0,1.849553833E0,3.334139257E0
1.455341454E1,-2.150428162E0,1.029559021E0,1.642983398E0,2.895466716E0
1.456342254E1,-1.917213135E0,9.078620911E-1,1.431772614E0,2.559275795E0
1.457343154E1,-1.686692505E0,7.587721252E-1,1.299298096E0,2.260274825E0
1.458343954E1,-1.546284485E0,6.421646118E-1,1.082848206E0,1.993973754E0
1.459344854E1,-1.409019928E0,5.610333252E-1,8.928932190E-1,1.759930070E0
1.460345754E1,-1.298998718E0,4.378395081E-1,7.695497131E-1,1.572039397E0
1.461346554E1,-1.301543427E0,2.692900085E-1,7.656578064E-1,1.533872314E0
1.462347454E1,-1.430724792E0,1.989363098E-1,9.292675781E-1,1.717581823E0
1.463348254E1,-1.675765228E0,2.677931213E-1,1.193468170E0,2.074673114E0
1.464349154E1,-2.013313293E0,3.243754578E-1,1.484762421E0,2.522532319E0
1.465350054E1,-2.418071594E0,4.076023865E-1,1.720222778E0,2.995392520E0
1.466350854E1,-2.806813202E0,5.406756592E-1,1.866468658E0,3.413830074E0
1.467351754E1,-3.185375977E0,8.029302979E-1,1.978884888E0,3.835010114E0
1.468352454E1,-3.538791046E0,1.105002136E0,1.993255005E0,4.209172995E0
1.469353354E1,-3.852538605E0,1.426234131E0,1.952689362E0,4.548537484E0
1.470354254E1,-4.189637604E0,1.646126862E0,1.894011383E0,4.883653961E0
1.471355054E1,-4.538412323E0,1.714684296E0,1.786235504E0,5.169909663E0
1.472355954E1,-4.961282959E0,1.667532349E0,1.701960754E0,5.503786255E0
1.473356854E1,-5.298381958E0,1.596729584E0,1.635948029E0,5.770504544E0
1.474357654E1,-5.655239868E0,1.632205811E0,1.689237213E0,6.123671786E0
1.475358554E1,-6.201454010E0,1.942360840E0,1.859133911E0,6.759228977E0
1.476359354E1,-7.032226410E0,2.610421600E0,2.176174622E0,7.810393408E0
1.477360254E1,-8.025261383E0,3.664379883E0,2.611170044E0,9.200582003E0
1.478361154E1,-8.946595459E0,4.861440582E0,3.111130371E0,1.064679797E1
1.479361954E1,-9.761201477E0,5.954467621E0,3.566333771E0,1.197728999E1
1.480362854E1,-1.048090485E1,6.915618896E0,3.688779144E0,1.308748420E1
1.481363654E1,-1.124641296E1,7.838898926E0,3.333717499E0,1.410828881E1
1.482364554E1,-1.186866898E1,8.805588684E0,2.928210754E0,1.506579283E1
1.483365454E1,-1.227477448E1,9.675429840E0,2.744093628E0,1.586865088E1
1.484366254E1,-1.264435593E1,1.038764877E1,2.640509033E0,1.657574348E1
1.485367154E1,-1.317934341E1,1.114642090E1,2.753074951E0,1.747905070E1
1.486367954E1,-1.374007736E1,1.184801193E1,3.218906250E0,1.842624406E1
1.487368854E1,-1.421309372E1,1.244961090E1,3.888613586E0,1.929057180E1
1.488369754E1,-1.460033844E1,1.323966797E1,4.382436676E0,2.019070186E1
1.489370554E1,-1.475212280E1,1.410546753E1,4.818629608E0,2.097161254E1
1.490371454E1,-1.469868393E1,1.477457611E1,5.339845734E0,2.151402707E1
1.491372254E1,-1.471964035E1,1.540731033E1,5.584287415E0,2.202810227E1
1.492373154E1,-1.475781097E1,1.600127518E1,5.582790527E0,2.247223492E1
1.493374054E1,-1.468491257E1,1.654359741E1,5.450765076E0,2.278262742E1
1.494374854E1,-1.460662537E1,1.688189392E1,5.216651917E0,2.292521110E1
1.495375754E1,-1.446831299E1,1.687710388E1,4.887785797E0,2.276091312E1
1.496376554E1,-1.419213730E1,1.647024994E1,4.543202362E0,2.221095635E1
1.497377454E1,-1.383557877E1,1.585996902E1,4.177662506E0,2.145727665E1
1.498378354E1,-1.341240875E1,1.517813690E1,3.957769775E0,2.063813194E1
1.499379154E1,-1.296049850E1,1.443119019E1,3.749403076E0,1.975580409E1
1.500380054E1,-1.256217682E1,1.361838043E1,3.576063538E0,1.886946747E1
1.501380854E1,-1.222088654E1,1.281110916E1,3.503015442E0,1.804842660E1
1.502381754E1,-1.192495193E1,1.211670319E1,3.590583344E0,1.737559390E1
1.503382654E1,-1.153291718E1,1.131167725E1,3.857328644E0,1.660846787E1
1.504383454E1,-1.112950607E1,1.037567368E1,3.959416351E0,1.572251530E1
1.505384354E1,-1.071606583E1,9.450298004E0,3.953877869E0,1.482482207E1
1.506385254E1,-1.007360184E1,8.498726807E0,4.005819855E0,1.377506457E1
1.507386054E1,-9.312285004E0,7.517816620E0,3.948938141E0,1.260279061E1
1.508386954E1,-8.586594086E0,6.554120636E0,3.786076813E0,1.144641747E1
1.509387754E1,-7.893385620E0,5.588329010E0,3.581901398E0,1.031333968E1
1.510388654E1,-7.206464081E0,4.665797424E0,3.321592712E0,9.205203327E0
1.511389554E1,-6.514602814E0,3.902834015E0,3.035687256E0,8.178481539E0
1.512390354E1,-5.796396332E0,3.018622742E0,2.782413940E0,7.102965650E0
1.513391254E1,-5.052144012E0,2.190395050E0,2.435285797E0,6.021013745E0
1.514392054E1,-4.339925079E0,1.481918335E0,2.156266022E0,5.067594578E0
1.515392954E1,-3.680246887E0,8.655001831E-1,1.910327454E0,4.235877559E0
1.516393854E1,-3.093766479E0,4.090992737E-1,1.665287018E0,3.537221239E0
1.517394654E1,-2.541415100E0,4.056564331E-2,1.434467010E0,2.918583884E0
1.518395554E1,-2.122436371E0,-2.830613708E-1,1.204844513E0,2.456931051E0
1.519396354E1,-1.812880096E0,-5.342390442E-1,1.063538361E0,2.168653832E0
1.520397254E1,-1.529070282E0,-6.948550415E-1,9.765692139E-1,1.942824461E0
1.521398154E1,-1.298998718E0,-8.325686646E-1,8.707392883E-1,1.771653228E0
1.522398954E1,-1.157842255E0,-9.532177734E-1,7.893086243E-1,1.694765740E0
1.523399854E1,-1.044976959E0,-1.322200470E0,6.809339905E-1,1.817652890E0
1.524400654E1,-1.000369720E0,-1.493294678E0,4.830455017E-1,1.861182831E0
1.525401554E1,-1.022523651E0,-1.432371368E0,3.858975220E-1,1.801710091E0
1.526402454E1,-1.162931671E0,-1.314566345E0,3.242257690E-1,1.784829711E0
1.527403254E1,-1.394949188E0,-1.177601166E0,2.577639771E-1,1.843656696E0
1.528404154E1,-1.708696747E0,-1.097817078E0,2.859054565E-1,2.050997035E0
1.529405054E1,-2.060165863E0,-9.975256348E-1,3.649411011E-1,2.317870312E0
1.530405854E1,-2.463127899E0,-7.318281555E-1,4.659809875E-1,2.611457405E0
1.531406754E1,-3.007545776E0,-4.013154602E-1,6.589297485E-1,3.104927392E0
1.532407554E1,-3.587888947E0,8.981323242E-3,8.860075378E-1,3.695678167E0
1.533408454E1,-4.171974335E0,4.128414917E-1,1.133442993E0,4.342867827E0
1.534409354E1,-4.723876648E0,7.487429810E-1,1.360371094E0,4.972548255E0
1.535410154E1,-5.252876587E0,1.090033264E0,1.534908142E0,5.580038347E0
1.536411054E1,-5.709427185E0,1.554367676E0,1.721569977E0,6.162582319E0
1.537411854E1,-6.130351868E0,2.071392517E0,1.969604187E0,6.763964934E0
1.538412754E1,-6.685397644E0,2.492616577E0,2.245031433E0,7.479829222E0
1.539413654E1,-7.326065369E0,2.784808960E0,2.486629028E0,8.222512916E0
1.540414454E1,-8.015681305E0,3.197201385E0,2.694097595E0,9.040542314E0
1.541415354E1,-8.776399384E0,4.005221100E0,2.784958649E0,1.004106453E1
1.542416154E1,-9.418264618E0,5.076094208E0,2.807411957E0,1.106128395E1
1.543417054E1,-9.944121094E0,6.245013428E0,2.918780365E0,1.209979404E1
1.544417954E1,-1.053898407E1,7.392676849E0,3.093167725E0,1.323969572E1
1.545418754E1,-1.136017639E1,8.523425446E0,3.284769287E0,1.457710871E1
1.546419654E1,-1.235425919E1,9.826914825E0,3.652704163E0,1.620303128E1
1.547420454E1,-1.308444077E1,1.102457428E1,4.074526978E0,1.758822328E1
1.548421354E1,-1.348530716E1,1.214424591E1,4.467160492E0,1.868934832E1
1.549422254E1,-1.367930374E1,1.343381424E1,4.535717926E0,1.970186420E1
1.550423054E1,-1.388752075E1,1.486873032E1,4.351750488E0,2.080577098E1
1.551423954E1,-1.402328842E1,1.631008301E1,4.100572815E0,2.189717158E1
1.552424754E1,-1.398496811E1,1.765743118E1,3.927083588E0,2.286451824E1
1.553425654E1,-1.388767044E1,1.873863281E1,3.745211792E0,2.362266626E1
1.554426554E1,-1.374426865E1,1.937600739E1,3.603007507E0,2.402740614E1
1.555427354E1,-1.361628479E1,1.974079880E1,3.525319061E0,2.423902273E1
1.556428254E1,-1.339504486E1,1.965532654E1,3.726650391E0,2.407585951E1
1.557429054E1,-1.305180862E1,1.899819305E1,4.284390564E0,2.344433941E1
1.558429954E1,-1.281829422E1,1.801473816E1,4.805307312E0,2.262587978E1
1.559430854E1,-1.268552032E1,1.707589050E1,5.138364716E0,2.188404109E1
1.560431654E1,-1.242640915E1,1.622281448E1,5.301375732E0,2.111160673E1
1.561432554E1,-1.196357162E1,1.540865753E1,5.276377716E0,2.020875886E1
1.562433454E1,-1.161449753E1,1.466051331E1,5.027295685E0,1.936752191E1
1.563434254E1,-1.131167725E1,1.381611923E1,4.903503113E0,1.851711467E1
1.564435154E1,-1.089853638E1,1.284239410E1,4.881498871E0,1.753665341E1
1.565435954E1,-1.050710037E1,1.180130905E1,4.816833344E0,1.651883583E1
1.566436854E1,-1.003827530E1,1.069211563E1,4.664300537E0,1.538973707E1
1.567437754E1,-9.559121704E0,9.576186218E0,4.394411774E0,1.422641926E1
1.568438604E1,-9.077722778E0,8.597072296E0,4.170627136E0,1.317986470E1
1.569439504E1,-8.557554474E0,7.741750946E0,4.018094330E0,1.221930965E1
1.570440304E1,-7.942184143E0,6.822811890E0,3.887416077E0,1.116875350E1
1.571441204E1,-7.305408325E0,5.857619019E0,3.676354980E0,1.005963604E1
1.572442104E1,-6.676715698E0,4.946912842E0,3.462749176E0,9.002283657E0
1.573442904E1,-5.934708710E0,4.046235809E0,3.221301270E0,7.872075556E0
1.574443804E1,-5.126090240E0,3.170257416E0,2.899171143E0,6.688237926E0
1.575444604E1,-4.366569672E0,2.424358521E0,2.508034515E0,5.588799698E0
1.576445504E1,-3.674708405E0,1.813628540E0,2.130818939E0,4.618779026E0
1.577446404E1,-2.967129822E0,1.135089569E0,1.750908966E0,3.627391613E0
1.578447204E1,-2.358046417E0,5.839356995E-1,1.305884399E0,2.758024270E0
1.579448104E1,-1.794767761E0,1.314266968E-1,9.289682007E-1,2.025202758E0
1.580448904E1,-1.392703857E0,-1.308279419E-1,5.165757751E-1,1.491170854E0
1.581449804E1,-1.130898285E0,-1.320254517E-1,2.456391907E-1,1.164774769E0
1.582450704E1,-9.139993286E-1,-1.243913269E-1,1.404080200E-1,9.330500453E-1
1.583451504E1,-8.152047729E-1,-2.177970886E-1,8.008346558E-2,8.475893788E-1
1.584452404E1,-8.535250854E-1,-1.984872437E-1,8.143066406E-2,8.800756845E-1
1.585453204E1,-9.857002258E-1,6.137237549E-2,1.428030396E-1,9.978798584E-1
1.586454104E1,-9.630972290E-1,1.264869690E-1,2.306703186E-1,9.983806998E-1
1.587455004E1,-1.049168243E0,1.643582153E-1,2.203417969E-1,1.084582009E0
1.588455804E1,-1.293460236E0,4.324507141E-1,3.550616455E-1,1.409298327E0
1.589456704E1,-1.657652893E0,7.381150818E-1,5.715115356E-1,1.902433290E0
1.590457604E1,-1.964814148E0,9.382489014E-1,7.583230591E-1,2.305614777E0
1.591458404E1,-2.270478516E0,1.230141907E0,6.863227844E-1,2.671958227E0
1.592459304E1,-2.612966309E0,1.679956512E0,6.007008362E-1,3.163967179E0
1.593460104E1,-2.884052582E0,2.123184814E0,6.921606445E-1,3.647568972E0
1.594461004E1,-3.131338348E0,2.512974243E0,9.436376953E-1,4.124411655E0
1.595461904E1,-3.395838318E0,2.825524292E0,1.235381012E0,4.587098391E0
1.596462704E1,-3.664529572E0,3.041076050E0,1.523980865E0,4.999943820E0
1.597463604E1,-3.827690277E0,3.105142822E0,1.808838501E0,5.250240140E0
1.598464404E1,-3.914210358E0,2.890040131E0,1.919757843E0,5.230568311E0
1.599465304E1,-4.010160828E0,2.502645721E0,1.739682312E0,5.036975285E0
1.600466204E1,-4.021537170E0,2.134112091E0,1.515149231E0,4.798215587E0
1.601467004E1,-4.090393982E0,1.775607605E0,1.341210938E0,4.656495686E0
1.602467904E1,-4.343218231E0,1.531614990E0,1.327738953E0,4.792940622E0
1.603468704E1,-4.722529449E0,1.405277710E0,1.512903900E0,5.154218472E0
1.604469604E1,-5.270539856E0,1.489851837E0,1.777703247E0,5.758339839E0
1.605470504E1,-5.993686066E0,1.785337372E0,2.065404968E0,6.586167312E0
1.606471304E1,-6.834786987E0,2.287543030E0,2.337539063E0,7.577021522E0
1.607472204E1,-7.812853088E0,3.081941071E0,2.531236267E0,8.771897810E0
1.608473004E1,-8.927135925E0,4.291725311E0,2.675685883E0,1.026021232E1
1.609473904E1,-1.013482452E1,5.871390381E0,2.848276978E0,1.205406881E1
1.610474804E1,-1.132919083E1,7.360194397E0,3.003653870E0,1.383997698E1
1.611475604E1,-1.246922012E1,9.103319550E0,3.286266174E0,1.578453112E1
1.612476504E1,-1.374187363E1,1.146540756E1,4.000281372E0,1.833839994E1
1.613477304E1,-1.527094391E1,1.410576691E1,5.092709656E0,2.140350624E1
1.614478204E1,-1.662412994E1,1.699146606E1,6.167624359E0,2.455832253E1
1.615479104E1,-1.754696091E1,1.974034973E1,6.643484802E0,2.723441086E1
1.616479904E1,-1.774050842E1,2.166414917E1,6.656507721E0,2.878141924E1
1.617480804E1,-1.707229797E1,2.251318359E1,6.115382996E0,2.890855761E1
1.618481604E1,-1.599304230E1,2.249956192E1,5.297633514E0,2.810823028E1
1.619482504E1,-1.496213608E1,2.185260727E1,4.543052673E0,2.687082597E1
1.620483404E1,-1.394245651E1,2.065389999E1,4.027524719E0,2.524275409E1
1.621484204E1,-1.292382477E1,1.918784866E1,3.781885529E0,2.344144708E1
1.622485104E1,-1.199231186E1,1.783975204E1,3.698957977E0,2.181179926E1
1.623485904E1,-1.115375565E1,1.677965652E1,3.578009491E0,2.046375552E1
1.624486804E1,-1.051847672E1,1.587284225E1,3.348686371E0,1.933388668E1
1.625487704E1,-1.006477020E1,1.512230301E1,3.168311462E0,1.843968126E1
1.626488504E1,-9.796228638E0,1.449286194E1,3.079546051E0,1.776211549E1
1.627489404E1,-9.645043030E0,1.378558273E1,3.053350525E0,1.709947648E1
1.628490204E1,-9.523495789E0,1.310569656E1,3.143163757E0,1.650259776E1
1.629491104E1,-9.228159943E0,1.233509903E1,3.338956604E0,1.576268490E1
1.630492004E1,-8.901239777E0,1.133712433E1,3.491040344E0,1.483070532E1
1.631492804E1,-8.537645874E0,1.018317398E1,3.550616455E0,1.375482848E1
1.632493704E1,-8.210725708E0,9.016799469E0,3.470233612E0,1.267916443E1
1.633494504E1,-7.764054565E0,7.968529358E0,3.368594971E0,1.162434667E1
1.634495404E1,-7.237898712E0,6.909481659E0,3.268004150E0,1.052653626E1
1.635496304E1,-6.661447449E0,5.866151276E0,3.081342316E0,9.395812012E0
1.636497104E1,-6.057603149E0,4.867577820E0,2.848426666E0,8.276557510E0
1.637498004E1,-5.436844025E0,3.964655457E0,2.594704285E0,7.211813653E0
1.638498804E1,-4.821174316E0,3.279829559E0,2.353855133E0,6.288214191E0
1.639499704E1,-4.314927063E0,2.625689850E0,2.150278473E0,5.489675788E0
1.640500604E1,-3.808230743E0,1.800755310E0,1.922152863E0,4.630336133E0
1.641501404E1,-3.343447266E0,1.340013428E0,1.770069122E0,4.013405076E0
1.642502304E1,-2.925067291E0,9.827064514E-1,1.738035736E0,3.541539051E0
1.643503204E1,-2.607278137E0,7.481442261E-1,1.746567993E0,3.226161624E0
1.644504004E1,-2.305954742E0,6.387217712E-1,1.787732391E0,2.986867904E0
1.645504904E1,-2.063159637E0,5.372328186E-1,1.865121460E0,2.832653324E0
1.646505704E1,-1.884730682E0,2.891986084E-1,1.986219635E0,2.753345968E0
1.647506604E1,-1.753453674E0,-1.601669312E-2,1.991159363E0,2.653219164E0
1.648507504E1,-1.667532349E0,-1.490899658E-1,1.986069946E0,2.597569207E0
1.649508304E1,-1.556313629E0,-2.401007080E-1,1.981429596E0,2.530972877E0
1.650509204E1,-1.551074524E0,-2.445913696E-1,1.874102783E0,2.444978192E0
1.651510004E1,-1.677711182E0,-1.824705505E-1,1.700014801E0,2.395424938E0
1.652510904E1,-1.902693329E0,-5.748046875E-2,1.607207794E0,2.491317483E0
1.653511804E1,-2.057621155E0,7.738906860E-2,1.590292969E0,2.601696679E0
1.654512604E1,-2.204016724E0,2.209405518E-1,1.480122070E0,2.664069404E0
1.655513504E1,-2.400707703E0,3.629951477E-1,1.331181793E0,2.768972358E0
1.656514304E1,-2.615960083E0,5.171745300E-1,1.291364594E0,2.962826212E0
1.657515204E1,-2.883154449E0,7.074288940E-1,1.389710083E0,3.277854380E0
1.658516104E1,-3.196602631E0,8.827143860E-1,1.571132813E0,3.669592808E0
1.659516904E1,-3.556154938E0,9.862989807E-1,1.699715424E0,4.063010724E0
1.660517804E1,-3.987108765E0,1.097817078E0,1.738335114E0,4.485983460E0
1.661518604E1,-4.338577881E0,1.247206421E0,1.674118652E0,4.814712364E0
1.662519504E1,-4.679868164E0,1.460961914E0,1.450783081E0,5.112763176E0
1.663520404E1,-5.160668335E0,1.754800873E0,1.169517975E0,5.574907718E0
1.664521204E1,-5.703289948E0,2.132615204E0,9.842033386E-1,6.167999679E0
1.665522104E1,-6.163582764E0,2.444865875E0,9.479786682E-1,6.698192681E0
1.666522904E1,-6.695875854E0,2.648741913E0,1.003812561E0,7.270366348E0
1.667523804E1,-7.371271362E0,2.800825653E0,1.132395172E0,7.966340732E0
1.668524717E1,-8.124355316E0,3.034789124E0,1.251547394E0,8.762503364E0
1.669525517E1,-8.893306274E0,3.657045135E0,1.351838837E0,9.710424494E0
1.670526417E1,-9.705816650E0,4.501738586E0,1.510808258E0,1.080514085E1
1.671527217E1,-1.054796539E1,5.660928040E0,1.789528656E0,1.210405275E1
