"Time (s)","Acceleration x (m/s^2)","Acceleration y (m/s^2)","Acceleration z (m/s^2)","Absolute acceleration (m/s^2)"
1.757458333E-3,5.572911072E-1,8.406518555E-1,-3.746708679E-1,1.075940138E0
1.176545834E-2,6.658154297E-1,5.688171387E-1,-6.502478027E-1,1.090726973E0
2.177345833E-2,3.598516846E-1,2.245330811E-1,-6.113287354E-1,7.440639502E-1
3.178245833E-2,-3.442840576E-2,-2.082170105E-1,-1.574725342E-1,2.633196491E-1
4.179045834E-2,-1.865121460E-1,-6.866221619E-1,-1.074016571E0,1.288312217E0
5.179845833E-2,-6.370751953E-1,-2.103725281E0,-6.076314240E0,6.461665389E0
6.180645833E-2,-1.765877838E0,-5.430706787E0,-8.055498505E0,9.874307920E0
7.181445834E-2,-1.962868195E0,-6.664740601E0,-4.969366150E0,8.542026619E0
8.182345833E-2,-2.978655853E0,-8.560997314E0,-4.893473969E0,1.030092972E1
9.183145833E-2,-3.293600922E0,-1.343770615E1,-3.284619598E0,1.422000279E1
1.018394583E-1,-5.450465698E0,-2.098486176E1,1.738933868E0,2.175076758E1
1.118474583E-1,-9.439670105E0,-3.112013535E1,4.958438873E0,3.289614433E1
1.218554583E-1,-1.328382614E1,-4.410368591E1,6.693780212E0,4.654462205E1
1.318644583E-1,-1.671379349E1,-5.381638824E1,7.497608643E0,5.684864705E1
1.418724583E-1,-1.654599243E1,-5.664206223E1,4.938380585E0,5.921554426E1
1.518804583E-1,-1.296603699E1,-4.964261765E1,-5.402864685E0,5.159165193E1
1.618884583E-1,-8.447982330E0,-3.295876190E1,-1.286559586E1,3.637543056E1
1.718964583E-1,-5.679040375E0,-1.935969131E1,-9.593400421E0,2.234015396E1
1.819054583E-1,-3.905229034E0,-1.345237564E1,-4.026626587E0,1.457501101E1
1.919134583E-1,-2.813249817E0,-1.057086777E1,-1.881736908E0,1.109948439E1
2.019214583E-1,-2.376158752E0,-8.383765869E0,-1.257534943E0,8.804263439E0
2.119294583E-1,-1.986369324E0,-6.671177216E0,-1.334025879E0,7.087305100E0
2.219374583E-1,-1.539249115E0,-4.611011353E0,-1.814376984E0,5.188706715E0
2.319464583E-1,-1.233435059E0,-2.877017212E0,-2.605481873E0,4.072729536E0
2.419544583E-1,-9.566606140E-1,-1.559606781E0,-2.834804993E0,3.373972760E0
2.519624583E-1,-6.691085815E-1,-5.017565918E-1,-2.565065918E0,2.697967593E0
2.619704583E-1,-2.176473999E-1,-1.571731567E-2,-2.146536255E0,2.157599434E0
2.719784583E-1,2.177970886E-1,1.157093811E-1,-1.561403046E0,1.580760483E0
2.819874583E-1,6.135740662E-1,-1.655557251E-1,-9.249266052E-1,1.122217028E0
2.919954583E-1,9.340576172E-1,-5.605842590E-1,2.933898926E-1,1.128182597E0
3.020034583E-1,7.349716187E-1,-3.038681030E-2,1.424587555E0,1.603295463E0
3.120114583E-1,4.264631653E-1,5.694158936E-1,1.349892883E0,1.525882069E0
3.220194583E-1,4.686753845E-1,4.766088867E-1,1.493743744E0,1.636484958E0
3.320284583E-1,4.625381470E-1,5.384303284E-1,1.514400787E0,1.672500673E0
3.420364583E-1,3.855981445E-1,5.749543762E-1,1.269659729E0,1.446130800E0
3.520444583E-1,3.683839417E-1,4.813989258E-1,6.791377258E-1,9.103184634E-1
3.620524583E-1,4.367916870E-1,4.147874451E-1,3.522175598E-1,6.977770503E-1
3.720604583E-1,4.893324280E-1,4.424798584E-1,3.963757324E-1,7.696417163E-1
3.820694583E-1,5.956114197E-1,4.611909485E-1,3.327580261E-1,8.235156089E-1
3.920774583E-1,6.759942627E-1,4.700225830E-1,2.631527710E-1,8.643719411E-1
4.020854583E-1,7.523355103E-1,4.974156189E-1,4.490661621E-2,9.030213852E-1
4.120934583E-1,8.713380432E-1,6.593788147E-1,-1.134490814E0,1.575144379E0
4.221014583E-1,9.373507690E-1,1.055006104E0,-3.671115875E0,3.933033958E0
4.321104583E-1,2.288740540E-1,1.062191162E0,-3.016227722E0,3.205973030E0
4.421184583E-1,-4.575984192E-1,4.564009094E-1,-1.172062683E0,1.338442765E0
4.521264583E-1,-2.349663849E0,-1.180145874E0,-1.983974304E0,3.293906272E0
4.621344583E-1,-5.522316284E0,-4.163292389E0,-5.680387573E0,8.949624777E0
4.721424583E-1,-4.170477448E0,-4.820276184E0,-8.460406494E0,1.059275331E1
4.821514583E-1,-1.632954254E0,-4.138893127E0,-4.240082703E0,6.146159552E0
4.921594583E-1,-2.217039642E0,-5.182971954E0,4.998106384E-1,5.659352766E0
5.021674583E-1,-3.387605438E0,-8.998687134E0,4.655917969E0,1.068315557E1
5.121754583E-1,-6.852001190E0,-1.542242889E1,5.000651093E0,1.760135633E1
5.221834583E-1,-1.203227875E1,-2.767639664E1,4.784949646E0,3.055575896E1
5.321924583E-1,-1.958212875E1,-4.854509995E1,6.121071167E0,5.270250475E1
5.422004583E-1,-2.734004608E1,-5.954677185E1,6.378236389E0,6.583295571E1
5.522084583E-1,-2.489188705E1,-5.546640701E1,4.801415405E0,6.098509603E1
5.622164583E-1,-2.106734024E1,-4.866440186E1,-4.146227875E0,5.319067624E1
5.722244583E-1,-1.742152176E1,-3.605133087E1,-1.170760391E1,4.171661381E1
5.822334583E-1,-1.164892593E1,-2.187296494E1,-1.183289337E1,2.746163571E1
5.922414583E-1,-6.996001740E0,-1.384231476E1,-8.170160065E0,1.753012361E1
6.022494583E-1,-4.780758362E0,-1.031370255E1,-5.353766785E0,1.256546575E1
6.122574583E-1,-3.929328918E0,-8.104147339E0,-2.940185852E0,9.474255785E0
6.222654583E-1,-3.205434265E0,-6.138435059E0,-1.783541107E0,7.150958864E0
6.322744583E-1,-2.557132416E0,-4.231251068E0,-1.626667328E0,5.204657375E0
6.422824583E-1,-1.666783905E0,-2.816393280E0,-2.063459015E0,3.868863244E0
6.522904583E-1,-7.698490906E-1,-1.530716858E0,-2.215842133E0,2.801020899E0
6.622984583E-1,8.098159790E-2,-5.035528564E-1,-2.101330261E0,2.162339558E0
6.723064583E-1,6.722520447E-1,4.093986511E-1,-2.046843567E0,2.192965721E0
6.823154583E-1,1.199605408E0,4.144880676E-1,-1.940265198E0,2.318508687E0
6.923234583E-1,1.572330322E0,-4.041595459E-2,-6.125262451E-1,1.687911281E0
7.023314583E-1,1.342258759E0,6.306385803E-1,1.564546509E0,2.155729429E0
7.123394583E-1,9.419911194E-1,8.400531006E-1,2.165546722E0,2.506517322E0
7.223474583E-1,8.849597168E-1,6.885681152E-1,2.561922455E0,2.796556170E0
7.323564583E-1,8.093669128E-1,7.491920471E-1,2.487527161E0,2.721057680E0
7.423644583E-1,6.364764404E-1,7.694000244E-1,1.886976013E0,2.134890426E0
7.523724583E-1,6.724017334E-1,7.237449646E-1,1.380579071E0,1.697624645E0
7.623804583E-1,8.155041504E-1,7.444020081E-1,1.512005768E0,1.872256075E0
7.723884583E-1,9.114546204E-1,8.030799866E-1,1.617087250E0,2.022537555E0
7.823974583E-1,1.013093262E0,9.089099121E-1,1.652114410E0,2.140550679E0
7.924054583E-1,1.055904236E0,1.056652679E0,1.595532074E0,2.185674093E0
8.024134583E-1,1.136287079E0,1.107546844E0,1.419198761E0,2.128833827E0
8.124214583E-1,1.176703033E0,1.004261627E0,1.147663422E0,1.926214623E0
8.224294583E-1,1.225800934E0,1.055305481E0,8.619076538E-1,1.832796331E0
8.324384583E-1,1.201850739E0,1.192420349E0,7.119195557E-1,1.836611265E0
8.424464583E-1,1.020428009E0,1.249451752E0,6.462062073E-1,1.737810537E0
8.524544583E-1,5.209167480E-1,9.342073059E-1,7.929011536E-1,1.331461523E0
8.624624583E-1,-2.888992310E-2,-5.688171387E-3,1.143771515E0,1.144150454E0
8.724704583E-1,-4.583468628E-1,-6.900650024E-1,1.662442932E0,1.857414347E0
8.824794583E-1,-1.478625183E0,-1.899250488E0,3.268303528E0,4.058976817E0
8.924874583E-1,-2.243085480E0,-3.095712433E0,3.080144806E0,4.909395071E0
9.024954583E-1,-2.751128998E0,-4.497696991E0,-1.170416107E0,5.400727993E0
9.125034583E-1,-6.785838776E0,-9.429491272E0,-1.222552689E1,1.686494652E1
9.225114583E-1,-8.925639038E0,-2.001053787E1,-1.459884155E1,2.632897326E1
9.325204583E-1,-1.535866150E1,-3.287074493E1,-2.302511902E0,3.635486098E1
9.425284583E-1,-2.514096909E1,-4.120451477E1,5.146896973E0,4.854246504E1
9.525364583E-1,-3.315650070E1,-5.107813248E1,1.080258591E1,6.184678665E1
9.625444583E-1,-3.399550598E1,-5.327526352E1,1.288251068E1,6.449734267E1
9.725524583E-1,-2.875550262E1,-4.995157516E1,3.941453705E0,5.777173920E1
9.825614583E-1,-1.981279907E1,-3.835653717E1,-6.229296112E0,4.361851764E1
9.925694583E-1,-1.191147995E1,-2.359154114E1,-4.614304504E0,2.682789544E1
1.002577458E0,-7.626790009E0,-1.499925888E1,-1.431473236E0,1.688771176E1
1.012585458E0,-5.514083405E0,-9.805060272E0,-2.256557465E0,1.147328960E1
1.022593458E0,-3.803590393E0,-6.223757629E0,-3.609893188E0,8.138414326E0
1.032602458E0,-2.391726379E0,-3.664230194E0,-4.383035431E0,6.193378527E0
1.042610458E0,-1.295106812E0,-1.431772614E0,-4.742587738E0,5.120489520E0
1.052618333E0,-5.484594727E-1,2.139051819E-1,-5.106181641E0,5.140005269E0
1.062626333E0,1.522334290E-1,1.368304596E0,-3.942351837E0,4.175831713E0
1.072634333E0,4.761598206E-1,1.738784180E0,-3.394640808E0,3.843655137E0
1.082643333E0,8.960366821E-1,1.504221954E0,-3.015329590E0,3.486800533E0
1.092651333E0,1.216220856E0,9.292675781E-1,-2.021695862E0,2.535741619E0
1.102659333E0,1.217268677E0,1.352587280E0,-5.830375671E-1,1.910803021E0
1.112667333E0,9.792636108E-1,1.334025879E0,6.569837952E-1,1.780508347E0
1.122675333E0,9.219328308E-1,8.843609619E-1,1.839375000E0,2.239498794E0
1.132684333E0,9.544152832E-1,6.953041077E-1,2.287992096E0,2.574735747E0
1.142692333E0,9.283694458E-1,7.101232910E-1,2.179318085E0,2.472968304E0
1.152700333E0,8.587641907E-1,7.283853149E-1,1.734592896E0,2.068050680E0
1.162708333E0,8.996292114E-1,6.429130554E-1,1.160386963E0,1.602862383E0
1.172717333E0,1.029409332E0,5.158273315E-1,1.023272095E0,1.540404878E0
1.182725333E0,1.110241241E0,4.552033997E-1,1.107995911E0,1.633248508E0
1.192733333E0,1.103056183E0,4.318519592E-1,1.084494781E0,1.606037978E0
1.202741333E0,1.062340851E0,4.575984192E-1,1.037791901E0,1.554019442E0
1.212749333E0,9.753717041E-1,4.812492371E-1,1.003962250E0,1.480165865E0
1.222758333E0,8.821156311E-1,5.406756592E-1,1.027912445E0,1.458445114E0
1.232766333E0,7.842192078E-1,6.024971008E-1,1.121318207E0,1.495111047E0
1.242774333E0,6.294410706E-1,6.523434448E-1,1.247954865E0,1.542445907E0
1.252782333E0,3.126997375E-1,5.375321960E-1,1.406475220E0,1.537821359E0
1.262790333E0,-1.679507446E-1,-1.219963074E-1,1.526226196E0,1.540278207E0
1.272799333E0,-5.580395508E-1,-7.499404907E-1,1.855691071E0,2.077837392E0
1.282807333E0,-1.395697632E0,-1.651216278E0,3.926784210E0,4.482646686E0
1.292815333E0,-3.218756561E0,-2.739303589E0,4.678371277E0,6.304866038E0
1.302823333E0,-4.134701843E0,-4.575086060E0,2.956352234E0,6.838654130E0
1.312831333E0,-1.070903046E1,-1.426847855E1,-4.561763763E0,1.841419295E1
1.322840333E0,-2.242277161E1,-3.536306213E1,-1.101334763E1,4.329688991E1
1.332848333E0,-3.669110046E1,-4.812537277E1,-4.883893890E0,6.071359631E1
1.342856333E0,-3.982079224E1,-5.039794693E1,2.167193298E0,6.426776234E1
1.352864333E0,-3.742876648E1,-4.902934296E1,4.677173767E0,6.186004353E1
1.362872333E0,-3.316757767E1,-4.324192795E1,2.514321442E0,5.455524130E1
1.372881333E0,-2.262335449E1,-2.703992020E1,-8.711883545E-1,3.526659073E1
1.382889333E0,-1.429407532E1,-1.596385300E1,-2.964585114E0,2.163224345E1
1.392897333E0,-1.002929398E1,-1.051832703E1,-3.273093567E0,1.489748578E1
1.402905333E0,-7.405101013E0,-7.560777283E0,-2.574645996E0,1.089172512E1
1.412913333E0,-5.309009857E0,-5.591771851E0,-1.460512848E0,7.847712780E0
1.422922333E0,-3.025209045E0,-3.520229645E0,-1.599573669E0,4.909434025E0
1.432930333E0,-1.550326080E0,-1.603465576E0,-2.049837341E0,3.029264917E0
1.442938333E0,-5.200186157E-1,1.056802368E-1,-1.555864563E0,1.643868064E0
1.452946333E0,2.880010986E-1,1.154698792E0,-1.435814209E0,1.864895808E0
1.462954333E0,8.068222046E-1,1.598076782E0,-9.060658264E-1,2.006431348E0
1.472963333E0,8.258326721E-1,1.798060913E0,-2.992277527E-1,2.001139650E0
1.482971333E0,9.062155151E-1,1.351988525E0,1.113684082E-1,1.631411185E0
1.492979333E0,8.393046570E-1,1.019679565E0,5.855822754E-1,1.444674816E0
1.502987333E0,7.617658997E-1,8.824150085E-1,8.997789001E-1,1.472598249E0
1.512995333E0,8.092172241E-1,6.054908752E-1,9.892927551E-1,1.414267256E0
1.523004333E0,7.384144592E-1,5.680686951E-1,5.725593567E-1,1.093518254E0
1.533012333E0,8.693920898E-1,6.676116943E-1,3.778143311E-1,1.159435918E0
1.543020333E0,1.099463654E0,7.743397522E-1,5.752537537E-1,1.462648030E0
1.553028333E0,1.369053040E0,8.069718933E-1,7.336244202E-1,1.750347009E0
1.563036333E0,1.603764954E0,8.057743835E-1,8.848100281E-1,2.001055514E0
1.573045333E0,1.724713440E0,8.062234497E-1,1.062789917E0,2.180402511E0
1.583053333E0,1.689686279E0,9.015751648E-1,1.232686615E0,2.277585079E0
1.593061333E0,1.596879272E0,1.026864624E0,1.322499847E0,2.313758893E0
1.603069333E0,1.581311646E0,1.212179260E0,1.349144440E0,2.406265945E0
1.613077333E0,1.558409271E0,1.362766113E0,1.299896851E0,2.444484150E0
1.623086333E0,1.476080475E0,1.255139923E0,1.143621826E0,2.249902370E0
1.633094333E0,9.898915100E-1,4.716691589E-1,1.163680115E0,1.598908505E0
1.643102333E0,-5.739065552E-1,-1.122366028E0,2.259251862E0,2.587139967E0
1.653110333E0,-3.298989716E0,-3.794758759E0,-3.324137421E0,6.027720694E0
1.663119333E0,-4.358486481E0,-6.658303986E0,-1.789618469E1,1.958578165E1
1.673127333E0,-3.380719757E0,-6.569688263E0,-1.374681335E1,1.560656744E1
1.683135333E0,-3.546125793E0,-6.607858887E0,-4.114942932E0,8.554037792E0
1.693143333E0,-5.535339203E0,-8.605604553E0,1.393152924E0,1.032653305E1
1.703151333E0,-1.209125610E1,-1.328921494E1,3.948489075E0,1.839544166E1
1.713160333E0,-2.581621490E1,-2.384676041E1,3.732787628E0,3.534230662E1
1.723168333E0,-4.087534927E1,-3.291370560E1,5.414690094E0,5.275817532E1
1.733176333E0,-4.877322556E1,-3.761782333E1,8.252638550E0,6.214526697E1
1.743184333E0,-4.781536743E1,-3.997542068E1,8.964857483E0,6.296596137E1
1.753192333E0,-4.182557327E1,-3.531411392E1,1.533560944E0,5.476145570E1
1.763201333E0,-2.666659653E1,-2.213971024E1,-1.315195038E1,3.707085025E1
1.773209333E0,-1.502889725E1,-1.201865707E1,-1.374786118E1,2.364993778E1
1.783217333E0,-9.041797485E0,-7.399861908E0,-8.699609070E0,1.456692335E1
1.793225333E0,-5.235812073E0,-5.344635773E0,-4.760550385E0,8.868015537E0
1.803233333E0,-2.708318024E0,-4.324956207E0,-3.217559052E0,6.032654388E0
1.813242333E0,-1.703607330E0,-3.360960846E0,-2.765948181E0,4.674270540E0
1.823250333E0,-1.209484863E0,-2.483485565E0,-2.036065979E0,3.431635012E0
1.833258333E0,-4.222718811E-1,-1.471889191E0,-9.566606140E-1,1.805538939E0
1.843266333E0,4.439767456E-1,-4.897814941E-1,-1.978884888E-1,6.900442860E-1
1.853274333E0,1.245709534E0,5.376818848E-1,9.550140381E-2,1.360152407E0
1.863283333E0,1.721270599E0,1.246757355E0,4.023632813E-1,2.163116406E0
1.873291333E0,1.960323486E0,1.679657135E0,5.427713013E-1,2.637938011E0
1.883299333E0,1.897454224E0,1.733994141E0,2.444416809E-1,2.582018580E0
1.893307333E0,1.684746552E0,1.526824951E0,-4.808001709E-1,2.323947972E0
1.903315333E0,1.454375610E0,1.184636536E0,-1.080453186E0,2.164705806E0
1.913324333E0,1.251996460E0,8.086184692E-1,-4.861889648E-1,1.567717664E0
1.923332333E0,1.044976959E0,5.388793945E-1,5.120851135E-1,1.282419202E0
1.933340333E0,9.283694458E-1,5.650749207E-1,7.911048889E-1,1.344256835E0
1.943348333E0,9.648934937E-1,7.743397522E-1,8.379574585E-1,1.494253730E0
1.953356333E0,1.000369720E0,9.303153992E-1,9.151968384E-1,1.644327088E0
1.963365333E0,1.079555054E0,1.036295013E0,9.542655945E-1,1.774815284E0
1.973373333E0,1.183888092E0,1.029708710E0,9.728269958E-1,1.846153679E0
1.983381333E0,1.234482880E0,9.023236084E-1,8.887019348E-1,1.768594641E0
1.993389333E0,1.234333191E0,8.068222046E-1,7.134164429E-1,1.638140262E0
2.003398333E0,1.084345093E0,7.629634094E-1,6.442602539E-1,1.474106075E0
2.013406333E0,6.105802917E-1,8.208929443E-1,7.417076111E-1,1.263646984E0
2.023414333E0,-7.873626709E-2,5.628295898E-1,7.768844604E-1,9.625622119E-1
2.033422333E0,-1.643282776E0,-4.278103638E-1,1.771715698E0,2.454053077E0
2.043430333E0,-5.636379089E0,-1.678309937E0,1.802401886E0,6.150946760E0
2.053439250E0,-5.155129852E0,-2.187550964E0,-2.536774750E0,6.147842642E0
2.063447250E0,-3.388802948E0,-2.554587708E0,-3.133883057E0,5.275521471E0
2.073455250E0,-4.479135590E0,-4.031266937E0,1.463506622E0,6.201259580E0
2.083463250E0,-1.656590103E1,-1.041908340E1,2.869981842E0,1.977936227E1
2.093471250E0,-3.340393616E1,-2.334874603E1,2.730471954E0,4.084657108E1
2.103480250E0,-5.365756851E1,-3.619024200E1,1.064286804E1,6.559069229E1
2.113488250E0,-5.530638977E1,-4.064258331E1,7.977810059E0,6.909603303E1
2.123496250E0,-5.066529099E1,-4.108341660E1,-4.278403015E0,6.536913310E1
2.133504250E0,-4.004532532E1,-3.143747543E1,-1.396670609E1,5.279215681E1
2.143512250E0,-2.568748260E1,-1.794947388E1,-8.851543121E0,3.256347940E1
2.153521250E0,-1.682830536E1,-1.097188385E1,-1.652563477E0,2.015701026E1
2.163529250E0,-1.157453064E1,-7.419620819E0,3.715274048E-1,1.375349284E1
2.173537250E0,-7.924071808E0,-5.016218719E0,-3.891906738E-3,9.378346304E0
2.183545250E0,-4.688550110E0,-3.012335815E0,-2.219584351E0,5.998601828E0
2.193553250E0,-1.815724182E0,-1.334474945E0,-4.204456787E0,4.770234225E0
2.203562250E0,8.622070312E-2,2.365081787E-2,-4.174369354E0,4.175326679E0
2.213570250E0,1.534309387E0,9.578581238E-1,-3.025658112E0,3.525082196E0
2.223578250E0,2.383493500E0,1.494641876E0,-2.226470032E0,3.587779871E0
2.233586250E0,2.810854797E0,1.748663635E0,-1.986069946E0,3.860466686E0
2.243595250E0,2.792592773E0,1.513502655E0,-1.358125763E0,3.454528951E0
2.253603250E0,2.406246185E0,9.870474243E-1,2.683918762E-1,2.614635256E0
2.263611250E0,1.529968414E0,5.210664368E-1,1.302441559E0,2.075733026E0
2.273619250E0,1.176403656E0,1.389111328E-1,1.307231598E0,1.764107796E0
2.283627250E0,1.276246033E0,-8.397537231E-2,1.223854980E0,1.770219425E0
2.293636250E0,1.454225922E0,-1.154100037E-1,1.299298096E0,1.953527077E0
2.303644250E0,1.698218536E0,-1.044827271E-1,1.524878998E0,2.284757929E0
2.313652250E0,1.865869904E0,-1.496887207E-2,1.769470367E0,2.571520940E0
2.323660250E0,2.028132477E0,1.877096558E-1,1.869911499E0,2.764981966E0
2.333668250E0,2.151176605E0,3.351530457E-1,1.814975739E0,2.834435620E0
2.343677250E0,2.310445404E0,4.189787292E-1,1.658850403E0,2.874975791E0
2.353685250E0,2.437830505E0,5.188211060E-1,1.547631683E0,2.933829705E0
2.363693250E0,2.506837006E0,6.194119263E-1,1.412313080E0,2.943217821E0
2.373701250E0,2.532433777E0,6.747967529E-1,1.207987976E0,2.885793902E0
2.383709250E0,2.333497467E0,7.484436035E-1,8.053253174E-1,2.579520716E0
2.393718250E0,1.413211212E0,9.762698364E-1,3.279679871E-1,1.748665698E0
2.403726250E0,5.029541016E-1,9.289682007E-1,1.372645569E-1,1.065263491E0
2.413734250E0,-4.400848389E-2,3.131488037E-1,2.829116821E-1,4.243087788E-1
2.423742250E0,-3.986210632E-1,-3.132984924E-1,4.611909485E-1,6.853844092E-1
2.433751250E0,-9.274713135E-1,-8.952882385E-1,1.018781433E0,1.643064112E0
2.443759250E0,-4.662953339E0,-3.931274872E0,2.346370697E0,6.534792376E0
2.453767250E0,-6.771169281E0,-6.142177277E0,-5.400769043E-1,9.157879569E0
2.463775250E0,-1.033795212E1,-7.851023712E0,-3.106490021E0,1.334773792E1
2.473783250E0,-2.596006577E1,-1.651216278E1,-2.809657288E0,3.089450936E1
2.483792250E0,-4.493146454E1,-2.664908295E1,6.086343384E-1,5.224347388E1
2.493800250E0,-5.712510773E1,-3.371992905E1,1.087787933E1,6.722082867E1
2.503808250E0,-5.791411697E1,-3.894017349E1,1.532812500E1,7.145161630E1
2.513816250E0,-5.612578583E1,-3.773038925E1,7.532935181E0,6.804727195E1
2.523824250E0,-4.199337433E1,-2.574451401E1,-1.543440399E1,5.161825564E1
2.533833250E0,-2.525563065E1,-1.354518265E1,-1.881976410E1,3.428560008E1
2.543841250E0,-1.625769196E1,-8.258177032E0,-7.141050110E0,1.958327430E1
2.553849250E0,-1.076216995E1,-6.073021088E0,-3.161425781E-1,1.236146566E1
2.563857250E0,-7.216343536E0,-4.615801392E0,7.050338745E-1,8.595249228E0
2.573865250E0,-4.010909271E0,-2.684068451E0,-2.134112091E0,5.276935763E0
2.583874250E0,-8.839118958E-1,-9.443861389E-1,-5.426814880E0,5.578842637E0
2.593882250E0,1.532363434E0,1.945953369E-2,-5.923332367E0,6.118364381E0
2.603890250E0,2.790497131E0,7.125183105E-1,-4.306394806E0,5.180694240E0
2.613898250E0,3.738924866E0,1.053958282E0,-3.311862946E0,5.104784362E0
2.623907250E0,4.359384613E0,1.057251434E0,-2.282453613E0,5.033051688E0
2.633915250E0,4.648134155E0,4.468208313E-1,-8.722361755E-1,4.750325876E0
2.643923250E0,4.312382355E0,-3.520678711E-1,3.426374817E-1,4.340275775E0
2.653931250E0,3.485950928E0,-9.394464111E-1,1.009051666E0,3.748679594E0
2.663939250E0,3.051554260E0,-1.294807434E0,1.666484528E0,3.710212982E0
2.673948250E0,3.007096710E0,-1.620979156E0,2.520907745E0,4.245607131E0
2.683956250E0,3.074756012E0,-2.033521271E0,2.538121948E0,4.475644793E0
2.693964250E0,3.123853912E0,-2.319576416E0,2.350861359E0,4.545926434E0
2.703972250E0,2.989583130E0,-2.288590851E0,2.280657349E0,4.401892015E0
2.713980250E0,2.788850555E0,-2.092798004E0,2.347568207E0,4.203399504E0
2.723989250E0,2.412383423E0,-1.686692505E0,2.388582916E0,3.790758992E0
2.733997250E0,2.044598236E0,-1.250649261E0,2.175426178E0,3.236817044E0
2.744005250E0,1.748064880E0,-9.086105347E-1,1.812281342E0,2.676876462E0
2.754013250E0,1.573228455E0,-5.941145325E-1,1.484163666E0,2.242935941E0
2.764022250E0,1.454824677E0,-3.662882996E-1,9.792636108E-1,1.791546588E0
2.774030250E0,1.179247742E0,-1.378633118E-1,3.544628906E-1,1.239062335E0
2.784038250E0,6.276448059E-1,2.612068176E-1,-1.341210938E-1,6.929325160E-1
2.794046250E0,-7.083270264E-1,4.105961609E-1,-1.634151764E0,1.827776893E0
2.804054250E0,-3.047213287E0,-4.438270569E-1,-5.457800446E0,6.266584156E0
2.814063250E0,-4.555476837E0,-2.028581543E0,-9.403894501E0,1.064428222E1
2.824071250E0,-4.482279053E0,-2.914738770E0,-7.431595917E0,9.155061194E0
2.834079250E0,-3.686384125E0,-2.903063049E0,-4.210743713E-1,4.711104606E0
2.844087250E0,-5.767506409E0,-3.644770660E0,4.099974060E0,7.959790866E0
2.854095250E0,-1.188812851E1,-7.757767639E0,5.150339813E0,1.510087939E1
2.864104250E0,-2.498319717E1,-1.474134521E1,6.327791290E0,2.969020617E1
2.874112250E0,-4.360582123E1,-2.483216125E1,1.044393173E1,5.125602001E1
2.884120250E0,-5.279266708E1,-3.358715515E1,1.029798523E1,6.341302066E1
2.894128250E0,-5.268788498E1,-3.742412613E1,8.010142822E0,6.512097072E1
2.904136250E0,-5.027939346E1,-3.550287140E1,-6.425238647E0,6.188501415E1
2.914145250E0,-3.583054001E1,-2.288141785E1,-2.702450226E1,5.037569456E1
2.924153250E0,-2.315744385E1,-1.151046387E1,-1.194815369E1,2.848712622E1
2.934161250E0,-1.679492477E1,-7.631580048E0,1.290316772E-1,1.844795819E1
2.944169250E0,-1.258807297E1,-5.621859283E0,1.975591736E0,1.392723395E1
2.954178250E0,-9.345815277E0,-4.113745422E0,1.496887207E0,1.032026336E1
2.964186250E0,-5.809419250E0,-2.530038757E0,-2.677931213E-1,6.342094394E0
2.974194250E0,-2.870430908E0,-9.951306152E-1,-2.080822906E0,3.682320262E0
2.984202250E0,-6.185137939E-1,4.186793518E-1,-3.160677338E0,3.247727351E0
2.994210250E0,1.172511749E0,1.491947479E0,-3.078797607E0,3.616584824E0
3.004219250E0,2.155068512E0,1.975891113E0,-2.513722687E0,3.855809607E0
3.014227250E0,2.604733429E0,2.105671234E0,-1.637444916E0,3.728231945E0
3.024235250E0,2.849025421E0,1.911974030E0,-4.770579529E-1,3.464126850E0
3.034243250E0,2.886597290E0,1.324146423E0,4.623884583E-1,3.209300664E0
3.044251250E0,2.334694977E0,7.427554321E-1,5.478607178E-1,2.510505454E0
3.054259958E0,2.067799988E0,2.868035889E-1,5.463638306E-1,2.157907904E0
3.064267958E0,2.036215668E0,-1.986369324E-1,9.434880066E-1,2.252953727E0
3.074275958E0,2.110311584E0,-4.478686523E-1,1.240769806E0,2.488676561E0
3.084283958E0,2.281854858E0,-6.463558960E-1,1.182391205E0,2.650035189E0
3.094291958E0,2.528092804E0,-8.714877319E-1,1.144070892E0,2.908546424E0
3.104300958E0,2.780018921E0,-9.773176575E-1,1.194815369E0,3.179817411E0
3.114308958E0,2.987786865E0,-9.988728333E-1,1.294508057E0,3.405931355E0
3.124316958E0,3.087479553E0,-9.952803040E-1,1.360820160E0,3.517803915E0
3.134324958E0,3.010090485E0,-1.007255402E0,1.296154633E0,3.428589360E0
3.144333958E0,2.458487549E0,-9.018745422E-1,1.171314240E0,2.868713260E0
3.154341958E0,1.472338257E0,-5.219645691E-1,8.196954346E-1,1.764122320E0
3.164349958E0,4.526586914E-1,-7.798782349E-2,2.234852600E-1,5.108107800E-1
3.174357958E0,-2.463876343E-1,2.148033142E-1,-1.919608154E0,1.947239789E0
3.184365958E0,-2.139351196E0,3.442840576E-2,-9.324858856E0,9.567183574E0
3.194374958E0,-5.981710968E0,-1.453178101E0,-1.209679459E1,1.357295222E1
3.204382958E0,-7.709418182E0,-3.492986298E0,-6.703809357E0,1.079708951E1
3.214390958E0,-5.173990631E0,-3.371439056E0,-1.888772278E0,6.457882089E0
3.224398958E0,-4.001927948E0,-2.509830780E0,2.348166962E0,5.275278753E0
3.234406958E0,-9.047335968E0,-4.474195862E0,4.663552094E0,1.111851766E1
3.244415958E0,-1.930490524E1,-9.377399597E0,4.596940613E0,2.194873237E1
3.254423958E0,-3.734703644E1,-1.593481339E1,4.769980774E0,4.088364129E1
3.264431958E0,-5.204961227E1,-2.463906281E1,8.524922333E0,5.821442995E1
3.274439958E0,-5.576443726E1,-3.226315842E1,1.602283035E1,6.638761139E1
3.284448958E0,-5.411456818E1,-3.187232117E1,1.244901215E1,6.402506735E1
3.294456958E0,-4.655873062E1,-2.349110001E1,1.028960266E0,5.215942806E1
3.304464958E0,-3.041330521E1,-1.060649368E1,-2.212429230E1,3.907622233E1
3.314472958E0,-1.630634079E1,-4.751868439E0,-2.884426804E1,3.347340440E1
3.324480958E0,-1.123069565E1,-4.682263184E0,-1.119177658E1,1.653202880E1
3.334489958E0,-8.494834900E0,-4.036206665E0,-1.516346741E0,9.526410219E0
3.344497958E0,-5.979315948E0,-3.806284790E0,-4.782554626E-1,7.104136218E0
3.354505958E0,-3.544778595E0,-2.539020081E0,-1.511107635E0,4.614707417E0
3.364513958E0,-1.507515106E0,-1.216969299E0,-3.938160553E0,4.388932058E0
3.374521958E0,7.429051208E-1,-2.185455322E-2,-4.870870972E0,4.927247676E0
3.384530958E0,2.191442871E0,5.361849976E-1,-4.789290619E0,5.294074125E0
3.394538958E0,3.137625275E0,7.761360168E-1,-4.081113281E0,5.206012399E0
3.404546958E0,3.677552490E0,7.560777283E-1,-2.626138916E0,4.581773833E0
3.414554958E0,3.993246002E0,4.116439819E-1,-1.240470428E0,4.201693859E0
3.424563958E0,4.046684875E0,-1.507365417E-1,2.335144043E-1,4.056218555E0
3.434571958E0,3.348836060E0,-7.488926697E-1,5.489085388E-1,3.475175358E0
3.444579958E0,3.069217529E0,-1.208586731E0,1.263821869E0,3.532424641E0
3.454587958E0,2.783312073E0,-1.574725342E0,1.656455383E0,3.601448380E0
3.464595958E0,2.598147125E0,-2.051483917E0,2.271975403E0,4.015074965E0
3.474604958E0,2.553539886E0,-2.394121399E0,2.357747040E0,4.220350024E0
3.484612958E0,2.279310150E0,-2.262545013E0,2.112556915E0,3.844120370E0
3.494620958E0,1.729503479E0,-1.672621765E0,1.906285858E0,3.069653340E0
3.504628958E0,1.452429657E0,-1.307081909E0,1.750310211E0,2.623280553E0
3.514636958E0,1.466799774E0,-1.208437042E0,1.736688538E0,2.574472517E0
3.524645958E0,1.526824951E0,-1.072669373E0,1.719025269E0,2.537097138E0
3.534653958E0,1.430575104E0,-8.146060181E-1,1.485810242E0,2.217602346E0
3.544661958E0,1.027463379E0,-4.397854614E-1,9.985734558E-1,1.498746541E0
3.554669958E0,3.626957703E-1,-9.385482788E-2,4.971162415E-1,6.224801266E-1
3.564678958E0,-3.001258850E-1,4.790039063E-2,2.465373230E-1,3.913446638E-1
3.574686958E0,-1.007704468E0,-3.107537842E-1,-3.146456909E-1,1.100471771E0
3.584694958E0,-3.613635406E0,-1.236428833E0,-4.199517059E0,5.676535972E0
3.594702958E0,-8.215216370E0,-2.636916504E0,-5.856271820E0,1.042780074E1
3.604710958E0,-9.429640961E0,-3.180585938E0,-3.935017090E0,1.070133707E1
3.614719958E0,-1.112726074E1,-3.449277191E0,-8.472381592E-1,1.168037916E1
3.624727958E0,-1.919668030E1,-5.111420746E0,3.842958527E0,2.023382037E1
3.634735958E0,-3.047093536E1,-9.239236908E0,4.229305115E0,3.212052961E1
3.644743958E0,-4.773648148E1,-1.575982727E1,9.737700348E0,5.120514259E1
3.654751958E0,-5.922958145E1,-2.216515732E1,1.599169510E1,6.523167812E1
3.664760958E0,-5.892721024E1,-2.485117172E1,9.591604156E0,6.466835171E1
3.674768958E0,-5.055242569E1,-2.272364594E1,-1.400218231E1,5.716618701E1
3.684776958E0,-3.556633942E1,-1.503039413E1,-2.219973541E1,4.453880892E1
3.694784958E0,-2.507435760E1,-9.556427307E0,-4.789589996E0,2.725782245E1
3.704793958E0,-1.803344925E1,-6.522386627E0,2.846630402E0,1.938685441E1
3.714801958E0,-1.353305786E1,-4.407434692E0,2.316582642E0,1.441997541E1
3.724809958E0,-9.732461243E0,-2.725232849E0,-7.164102173E-1,1.013217348E1
3.734817958E0,-5.879922638E0,-8.328680420E-1,-5.025948486E0,7.779930436E0
3.744825958E0,-1.958826599E0,9.300160217E-1,-7.553292847E0,7.858381785E0
3.754834958E0,9.614506531E-1,1.872605896E0,-8.461304626E0,8.719215342E0
3.764842958E0,3.012186127E0,2.242636414E0,-7.726183319E0,8.590494283E0
3.774850958E0,3.653602295E0,2.232307892E0,-5.578150177E0,7.031910669E0
3.784858958E0,3.555406494E0,1.988764343E0,-3.240162048E0,5.205261670E0
3.794867958E0,3.491788788E0,1.348845062E0,-1.329984283E0,3.972509300E0
3.804875958E0,3.718567200E0,3.421884155E-1,7.185058594E-2,3.734969536E0
3.814883958E0,3.404819641E0,-5.451663208E-1,3.326083374E-1,3.464192750E0
3.824891958E0,3.020718384E0,-1.476529541E0,7.354206848E-1,3.441761558E0
3.834899958E0,2.663411407E0,-2.074236603E0,1.794618073E0,3.823201778E0
3.844908958E0,2.386187897E0,-2.502795410E0,1.952090607E0,3.970961506E0
3.854916958E0,2.268682251E0,-2.635269928E0,1.901645508E0,3.963309524E0
3.864924958E0,2.086810455E0,-2.543959808E0,1.646875305E0,3.679498288E0
3.874932958E0,1.775308228E0,-2.310146027E0,1.504371643E0,3.278967522E0
3.884940958E0,1.460363159E0,-1.962269440E0,1.388662262E0,2.812746840E0
3.894949958E0,1.268162842E0,-1.599124603E0,1.216520233E0,2.375996205E0
3.904957958E0,1.127156067E0,-1.210382996E0,1.127455444E0,2.001665200E0
3.914965958E0,9.521699524E-1,-7.461982727E-1,1.089883575E0,1.628276908E0
3.924973958E0,6.981481934E-1,-3.165916443E-1,1.081950073E0,1.325992885E0
3.934982958E0,3.363505554E-1,4.505630493E-2,1.034498749E0,1.088737539E0
3.944990958E0,-1.866618347E-1,2.173480225E-1,9.119036865E-1,9.558510014E-1
3.954998958E0,-9.229806519E-1,-1.718426514E-1,8.193960571E-1,1.246127232E0
3.965006958E0,-1.628164215E0,-7.201524353E-1,1.032852173E0,2.058232701E0
3.975014958E0,-3.004402313E0,-1.047072601E0,2.111359406E0,3.818459484E0
3.985023958E0,-8.650810547E0,-2.616558838E0,4.509372711E0,1.010036363E1
3.995031958E0,-1.511287262E1,-4.511917419E0,1.672023010E0,1.586039024E1
4.005039958E0,-2.312511108E1,-7.217091980E0,-5.204078064E0,2.477780474E1
4.015047958E0,-3.637540695E1,-1.136017639E1,-2.429447937E0,3.818541680E1
4.025055958E0,-5.083309204E1,-1.583796478E1,6.003715210E0,5.358067722E1
4.035064958E0,-6.070626068E1,-2.219614288E1,9.920320587E0,6.539366640E1
4.045072958E0,-5.596801392E1,-2.390049866E1,-3.332819366E0,6.094883184E1
4.055080833E0,-3.972364426E1,-1.599648514E1,-1.721330475E1,4.615358394E1
4.065088833E0,-2.655956909E1,-7.027286682E0,-9.222771149E0,2.898021698E1
4.075097833E0,-1.903696243E1,-3.161276093E0,1.235530701E0,1.933716994E1
4.085105833E0,-1.430889450E1,-1.547032928E0,3.385210419E0,1.478504049E1
4.095113833E0,-1.067999084E1,-8.599617004E-1,1.843416595E0,1.087197881E1
4.105121833E0,-7.347321167E0,-2.894979858E-1,-9.068142700E-1,7.408727930E0
4.115129833E0,-4.003873901E0,3.516188049E-1,-1.841620331E0,4.421109300E0
4.125138833E0,-1.445244598E0,6.774911499E-1,-2.071093140E0,2.614795021E0
4.135146833E0,5.433700562E-1,1.410816193E0,-2.164498901E0,2.640209999E0
4.145154833E0,1.690883789E0,1.980232086E0,-1.541344757E0,3.025913211E0
4.155162833E0,2.160457306E0,2.132615204E0,-9.252259827E-1,3.173588899E0
4.165171833E0,2.184407501E0,1.916015625E0,-4.504133606E-1,2.940344232E0
4.175179833E0,2.339784393E0,1.270707550E0,2.177970886E-1,2.671464815E0
4.185187833E0,1.984273682E0,7.307803345E-1,2.411485291E-1,2.128270320E0
4.195195833E0,1.902094574E0,3.080593872E-1,5.135820007E-1,1.994149148E0
4.205203833E0,1.951491852E0,-1.375639343E-1,5.730084229E-1,2.038524696E0
4.215212833E0,1.957778778E0,-5.258564758E-1,6.080355835E-1,2.116395532E0
4.225220833E0,2.014959869E0,-7.499404907E-1,8.412506104E-1,2.308717524E0
4.235228833E0,2.190095673E0,-8.934919739E-1,1.056353302E0,2.590507530E0
4.245236833E0,2.382595367E0,-1.033450928E0,1.208137665E0,2.864328564E0
4.255244833E0,2.454146576E0,-1.097966766E0,1.480720825E0,3.069348563E0
4.265253833E0,2.395767975E0,-1.172661438E0,1.760339355E0,3.195877608E0
4.275261833E0,2.098785553E0,-1.154399414E0,1.916913757E0,3.067914138E0
4.285269833E0,1.555116119E0,-8.687933350E-1,1.800006866E0,2.532432175E0
4.295277833E0,8.813671875E-1,-4.227209473E-1,1.240919495E0,1.579677914E0
4.305286833E0,2.252815247E-1,-5.837860107E-2,5.013075256E-1,5.526925562E-1
4.315294833E0,-3.347039795E-1,8.322692871E-2,-2.185455322E-2,3.455880453E-1
4.325302833E0,-7.771838379E-1,2.080673218E-2,-2.056723022E-1,8.042068974E-1
4.335310833E0,-1.258732452E0,-1.966909790E-1,-2.829116821E-1,1.305041665E0
4.345319833E0,-4.602179718E0,-9.389973450E-1,-1.091111023E1,1.187914562E1
4.355327833E0,-1.278102173E1,-3.068918152E0,-2.012130753E1,2.403413805E1
4.365335833E0,-1.543530212E1,-4.419110413E0,-4.590204620E0,1.669871453E1
4.375343833E0,-1.741568390E1,-4.983736267E0,2.655926971E0,1.830840301E1
4.385351833E0,-2.591171631E1,-6.291117554E0,4.299808502E0,2.700895324E1
4.395360833E0,-3.760090851E1,-8.840316467E0,2.995570679E0,3.874213416E1
4.405368833E0,-5.394272552E1,-1.461800171E1,2.582579498E0,5.594795195E1
4.415376833E0,-5.459267395E1,-1.929038544E1,-6.614295502E0,5.827716469E1
4.425384833E0,-4.642011887E1,-1.903322021E1,-9.139843597E0,5.099634936E1
4.435392833E0,-3.383668625E1,-1.207284439E1,-8.403524780E-1,3.593579135E1
4.445401833E0,-2.405557617E1,-6.778953094E0,3.750001831E0,2.527226669E1
4.455409833E0,-1.723066864E1,-4.034111023E0,2.624192963E0,1.789011968E1
4.465417833E0,-1.169218597E1,-2.144889679E0,4.300556946E-1,1.189507093E1
4.475425833E0,-7.129224701E0,-9.228309631E-1,7.789801025E-1,7.230786390E0
4.485434833E0,-4.146527252E0,-6.346801758E-1,-8.795709229E-1,4.286041552E0
4.495442833E0,-2.398911438E0,-5.560935974E-1,-1.866468658E0,3.089938742E0
4.505450833E0,-1.241368561E0,-7.414082336E-1,-2.125280457E0,2.570505610E0
4.515458833E0,-3.453318787E-1,-7.364685059E-1,-1.637145538E0,1.828082460E0
4.525466833E0,1.475930786E-1,-7.225474548E-1,-8.755293274E-1,1.144731473E0
4.535475833E0,6.394702148E-1,-6.849755859E-1,-7.952961731E-1,1.229068636E0
4.545483833E0,1.185834045E0,-6.132746887E-1,-1.025517426E0,1.683447123E0
4.555491833E0,1.728006592E0,-5.854325867E-1,-1.520088959E0,2.374743889E0
4.565499833E0,2.174528046E0,-6.773414612E-1,-2.108814697E0,3.103943154E0
4.575507833E0,2.423011322E0,-8.578660583E-1,-2.642754364E0,3.686606660E0
4.585516833E0,2.424508209E0,-1.252744904E0,-2.844235382E0,3.941736262E0
4.595524833E0,2.128573608E0,-1.705553284E0,-2.444716187E0,3.662836994E0
4.605532833E0,1.649719391E0,-2.202220459E0,-1.832639008E0,3.306042158E0
4.615540833E0,1.054107971E0,-2.473157043E0,-1.391206970E0,3.027062307E0
4.625549833E0,4.641847229E-1,-2.570005646E0,-1.372795258E0,2.950417478E0
4.635557833E0,6.152206421E-2,-2.711012421E0,-1.537752228E0,3.117379544E0
4.645565833E0,-3.465293884E-1,-2.861000519E0,-1.815873871E0,3.406288963E0
4.655573833E0,-8.446934509E-1,-2.804567871E0,-2.097737732E0,3.602722798E0
4.665581833E0,-1.398392029E0,-2.348915405E0,-2.296374664E0,3.570187733E0
4.675590833E0,-2.027683411E0,-1.683549042E0,-2.560275879E0,3.674350278E0
4.685598833E0,-2.549797668E0,-9.939331055E-1,-2.525248718E0,3.723741701E0
4.695606833E0,-3.295995941E0,-5.014572144E-1,-3.389401703E0,4.754270973E0
4.705614833E0,-4.742737427E0,-3.803590393E-1,-5.353617096E0,7.162363249E0
4.715623833E0,-6.832841034E0,-7.792794800E-1,-5.210963745E0,8.628391290E0
4.725631833E0,-9.352401581E0,-1.272354126E0,-2.719245300E0,9.822453632E0
4.735639833E0,-1.242745697E1,-1.580862579E0,-2.454146576E0,1.276572163E1
4.745647833E0,-1.545775543E1,-1.907932434E0,-4.849914551E0,1.631269691E1
4.755655833E0,-1.789378967E1,-2.275418243E0,-1.858984222E0,1.813342382E1
4.765664833E0,-2.123349472E1,-3.210074615E0,5.096601562E0,2.207127601E1
4.775672833E0,-2.763433411E1,-4.436923370E0,7.868387604E0,2.907325634E1
4.785680833E0,-3.512131485E1,-6.783294067E0,5.821394348E0,3.624097774E1
4.795688833E0,-3.978082535E1,-1.195009964E1,-6.378835144E0,4.202390373E1
4.805697833E0,-3.718028320E1,-1.534144730E1,-1.548514847E1,4.309899404E1
4.815705833E0,-3.090024261E1,-1.212119385E1,-4.929399261E0,3.355662842E1
4.825713833E0,-2.449446350E1,-6.649023285E0,3.556454315E0,2.562882401E1
4.835721833E0,-1.956521393E1,-3.244503021E0,3.799249420E0,2.019303573E1
4.845729833E0,-1.554652084E1,-1.009500732E0,1.171164551E0,1.562322081E1
4.855738833E0,-1.231953140E1,8.967851257E-1,-1.168021088E0,1.240722978E1
4.865746833E0,-1.023481659E1,2.013612671E0,-2.506537628E0,1.072794656E1
4.875754833E0,-9.048683167E0,2.084864502E0,-3.012485504E0,9.762192169E0
4.885762833E0,-8.651259613E0,1.403780823E0,-2.207908630E0,9.038238435E0
4.895771833E0,-8.548423462E0,3.113525391E-1,-7.375163269E-1,8.585826368E0
4.905779833E0,-8.084837494E0,-4.275109863E-1,1.005908203E-1,8.096757466E0
4.915787833E0,-7.304061127E0,-1.028810577E0,1.658551025E-1,7.378026027E0
4.925795833E0,-5.968688049E0,-1.605561218E0,-4.513114929E-1,6.197317639E0
4.935803833E0,-4.251758423E0,-2.280208282E0,-1.277443542E0,4.990857792E0
4.945812833E0,-2.490371246E0,-2.932252350E0,-1.912872162E0,4.296409279E0
4.955820833E0,-1.091829529E0,-3.339255981E0,-2.093995514E0,4.089931472E0
4.965828833E0,-5.403762817E-2,-3.655997314E0,-1.853146362E0,4.099193563E0
4.975836833E0,7.665559387E-1,-3.824247437E0,-9.753717041E-1,4.020426150E0
4.985845833E0,1.502425690E0,-4.078568573E0,4.400848389E-2,4.346716152E0
4.995853833E0,2.075434113E0,-4.176914062E0,6.809339905E-1,4.713566478E0
5.005861833E0,2.504292297E0,-4.401746521E0,5.457650757E-1,5.093595181E0
5.015869833E0,3.045117645E0,-4.918471985E0,-1.425036621E-1,5.786571993E0
5.025877833E0,3.111130371E0,-5.324128418E0,-1.401535492E0,6.323747096E0
5.035886833E0,2.840642853E0,-5.424120483E0,-1.931433563E0,6.420340368E0
5.045894833E0,2.087409210E0,-4.944218445E0,-1.531914368E0,5.581158918E0
5.055902500E0,9.548643494E-1,-4.031865692E0,-9.336085510E-1,4.247273456E0
5.065910500E0,-1.883084106E-1,-3.094215546E0,-5.360353088E-1,3.145944016E0
5.075919500E0,-1.279688873E0,-1.914967804E0,-3.803590393E-1,2.334390349E0
5.085927500E0,-2.011367340E0,-4.680766296E-1,-7.729925537E-1,2.205042357E0
5.095935500E0,-2.478994904E0,5.530998230E-1,-3.364553375E0,4.215632166E0
5.105943500E0,-3.319946136E0,1.445993042E0,-6.892716522E0,7.786043879E0
5.115951500E0,-5.089715881E0,2.311343536E0,-9.080417175E0,1.066309021E1
5.125960500E0,-8.127798157E0,3.119962006E0,-8.634344788E0,1.226161391E1
5.135968500E0,-1.120450012E1,2.361189880E0,-6.408623199E0,1.312198506E1
5.145976500E0,-1.240904526E1,1.113684082E-1,-5.107828217E0,1.341963920E1
5.155984500E0,-1.241997253E1,-2.170486450E0,-9.653425598E-1,1.264510243E1
5.165993500E0,-1.407822418E1,-2.818189545E0,3.705394592E0,1.482796471E1
5.176001500E0,-1.919503372E1,-3.243006134E0,5.234913940E0,2.015863915E1
5.186009500E0,-2.694771194E1,-3.973487091E0,7.120393066E0,2.815435625E1
5.196017500E0,-3.863989792E1,-7.826175385E0,6.296955414E0,3.992420794E1
5.206025500E0,-4.410518280E1,-1.633103943E1,-1.466560272E1,4.926509821E1
5.216034500E0,-3.883599014E1,-1.812445999E1,-2.029794022E1,4.742084518E1
5.226042500E0,-3.299049591E1,-1.236743179E1,1.083746338E0,3.524912333E1
5.236050500E0,-2.611499359E1,-6.621630249E0,8.141569519E0,2.814469811E1
5.246058500E0,-1.998718643E1,-3.200344849E0,4.911286926E0,2.082907986E1
5.256066500E0,-1.477697113E1,-5.771997070E-1,-1.451980591E-2,1.478824689E1
5.266075500E0,-1.129640900E1,1.157243500E0,-3.028202820E0,1.175236491E1
5.276083500E0,-9.710307312E0,1.402583313E0,-3.053949280E0,1.027540336E1
5.286091500E0,-9.119485931E0,6.173162842E-1,-1.258732452E0,9.226619665E0
5.296099500E0,-8.909921722E0,-2.998265076E-1,3.023712158E-1,8.920091333E0
5.306108500E0,-8.500373383E0,-5.833369446E-1,5.936654663E-1,8.541022674E0
5.316116500E0,-7.944878540E0,-6.156697083E-1,8.217910767E-2,7.969121508E0
5.326124500E0,-7.009623413E0,-6.271957397E-1,-7.694000244E-1,7.079560105E0
5.336132500E0,-5.694308624E0,-8.577163696E-1,-1.659149780E0,5.992796181E0
5.346141500E0,-4.166735229E0,-1.306183777E0,-2.153871002E0,4.868979239E0
5.356149500E0,-2.557731171E0,-1.945953369E0,-2.321821747E0,3.964792489E0
5.366157500E0,-1.345701599E0,-2.521805878E0,-2.471959534E0,3.779021251E0
5.376165500E0,-4.622387695E-1,-2.837349701E0,-2.616109772E0,3.886933025E0
5.386173500E0,2.559677124E-1,-2.907703400E0,-2.304757233E0,3.719161792E0
5.396182500E0,8.690927124E-1,-3.024610291E0,-1.429227905E0,3.456339387E0
5.406190500E0,1.577270050E0,-3.164569244E0,-4.631369019E-1,3.566058763E0
5.416198500E0,2.210752716E0,-3.310216370E0,6.212081909E-2,3.981057520E0
5.426206500E0,2.536325684E0,-3.645519104E0,-1.107696533E-2,4.441044946E0
5.436215500E0,2.810555420E0,-4.326453094E0,-4.733157349E-1,5.180873086E0
5.446223500E0,2.762505341E0,-4.794080658E0,-1.125509491E0,5.646363142E0
5.456231500E0,2.115700378E0,-4.807103577E0,-1.695224762E0,5.518896618E0
5.466239500E0,1.151405640E0,-4.556374969E0,-1.723665619E0,5.005727817E0
5.476247500E0,4.340972900E-2,-3.997137909E0,-1.356030121E0,4.221115203E0
5.486256500E0,-1.344653778E0,-2.574196930E0,-4.703219604E-1,2.942071781E0
5.496264500E0,-2.410736847E0,-1.071771240E0,-5.680686951E-1,2.698712245E0
5.506272500E0,-3.256328430E0,-1.221459961E-1,-2.224224701E0,3.945347895E0
5.516280500E0,-4.657265167E0,5.695655823E-1,-3.673810272E0,5.959144713E0
5.526289500E0,-7.235653381E0,6.509962463E-1,-5.274282074E0,8.977556871E0
5.536297500E0,-1.042117905E1,-1.507365417E-1,-6.615043945E0,1.234433071E1
5.546305500E0,-1.257699600E1,-1.257834320E0,-5.644312592E0,1.384273240E1
5.556313500E0,-1.353230942E1,-2.138303375E0,-2.234403534E0,1.388122108E1
5.566321500E0,-1.551718185E1,-2.631527710E0,1.138682098E0,1.577987540E1
5.576330500E0,-2.023776535E1,-3.101400604E0,3.906426544E0,2.084336826E1
5.586338500E0,-2.717329285E1,-3.316054230E0,5.305866394E0,2.788433750E1
5.596346500E0,-3.580359604E1,-4.308640137E0,1.868115234E0,3.611027172E1
5.606354500E0,-4.063330261E1,-6.027366028E0,-5.684578857E0,4.146937254E1
5.616363500E0,-3.667029373E1,-7.352111206E0,-7.580536194E0,3.816056224E1
5.626371500E0,-2.821647354E1,-6.431375885E0,-2.030527496E0,2.901129119E1
5.636379500E0,-2.177896042E1,-4.131408691E0,2.143093414E0,2.227070955E1
5.646387500E0,-1.743229935E1,-2.698139191E0,3.265459442E0,1.793957193E1
5.656395500E0,-1.397957932E1,-2.046693878E0,2.759960632E0,1.439565825E1
5.666404500E0,-1.118414246E1,-1.656156006E0,2.355801086E0,1.154892610E1
5.676412500E0,-8.898844757E0,-1.471290436E0,1.308878174E0,9.114126158E0
5.686420500E0,-7.256460114E0,-1.447489929E0,-8.741821289E-2,7.399938001E0
5.696428500E0,-6.318809967E0,-1.613045654E0,-7.292834473E-1,6.562097990E0
5.706437500E0,-5.341791687E0,-1.822759552E0,-8.202941895E-1,5.703514125E0
5.716445500E0,-4.203708344E0,-2.001637573E0,-7.644602966E-1,4.718274723E0
5.726453500E0,-3.065175934E0,-2.070195007E0,-7.214996338E-1,3.768497392E0
5.736461500E0,-2.330354004E0,-2.265239410E0,-8.958869934E-1,3.371123385E0
5.746469500E0,-1.734742584E0,-2.502945099E0,-1.498384094E0,3.393997775E0
5.756478500E0,-1.043779449E0,-2.632126465E0,-2.088307343E0,3.518322444E0
5.766486500E0,-4.436773682E-1,-2.770438843E0,-2.390079803E0,3.685737708E0
5.776494500E0,1.324745178E-1,-2.918630676E0,-2.296524353E0,3.716177959E0
5.786502500E0,5.662724304E-1,-3.172652435E0,-1.757195892E0,3.670711831E0
5.796511500E0,8.304730225E-1,-3.446133728E0,-1.202150116E0,3.743085360E0
5.806519500E0,1.081800385E0,-3.669020233E0,-1.320703583E0,4.046759135E0
5.816527500E0,1.347048798E0,-3.903582458E0,-2.081421661E0,4.624371590E0
5.826535500E0,9.807604980E-1,-4.315675507E0,-2.999312897E0,5.346290685E0
5.836543500E0,-2.975811768E-1,-4.698429565E0,-3.785328369E0,6.040902731E0
5.846552500E0,-1.883383484E0,-4.784051514E0,-4.173770599E0,6.622283839E0
5.856560500E0,-3.341052246E0,-4.445455627E0,-4.056414642E0,6.883255451E0
5.866568500E0,-4.580025787E0,-3.597918091E0,-3.667373657E0,6.882679736E0
5.876576500E0,-5.693560181E0,-2.458337860E0,-3.764671326E0,7.254846846E0
5.886585500E0,-6.689588928E0,-1.455722809E0,-4.069437561E0,7.964298525E0
5.896593500E0,-7.632777557E0,-5.616320801E-1,-3.718866577E0,8.509094691E0
5.906601500E0,-8.613088989E0,1.038839722E-1,-2.021097107E0,8.847650950E0
5.916609500E0,-9.925260315E0,6.122268677E-1,-1.303639069E0,1.002921178E1
5.926617500E0,-1.131781448E1,7.174580383E-1,-3.919000397E0,1.199859304E1
5.936626500E0,-1.233809280E1,7.466473389E-1,-5.400319977E0,1.348886475E1
5.946634500E0,-1.313997528E1,8.161029053E-1,-1.906136169E0,1.330256853E1
5.956642500E0,-1.330642914E1,7.858657837E-2,3.171754303E0,1.367944654E1
5.966650500E0,-1.396790359E1,-8.650511169E-1,5.921835480E0,1.519601197E1
5.976659500E0,-1.692814774E1,-1.642384644E0,7.367379456E0,1.853477524E1
5.986667500E0,-2.119427628E1,-3.550466766E0,4.254752197E0,2.190675871E1
5.996675500E0,-2.505130554E1,-7.066654816E0,-6.604116669E0,2.685367529E1
6.006683500E0,-2.672766953E1,-9.505682831E0,-1.010338989E1,3.011319996E1
6.016691500E0,-2.625659912E1,-9.431886292E0,-8.794212341E-1,2.791313057E1
6.026700500E0,-2.347268829E1,-7.654632111E0,3.781885529E0,2.497725258E1
6.036708500E0,-2.030542465E1,-7.026388550E0,6.378236389E-1,2.149621421E1
6.046716500E0,-1.810559921E1,-5.989045715E0,-4.306993561E0,1.955074385E1
6.056725833E0,-1.667038376E1,-3.774999847E0,-4.556374969E0,1.768934344E1
6.066734833E0,-1.584230576E1,-1.800306244E0,-2.357747040E0,1.611765260E1
6.076742833E0,-1.511990799E1,-3.388952637E-1,-1.308728485E0,1.518022522E1
6.086750833E0,-1.429033310E1,5.089416504E-1,-1.618135071E0,1.439065679E1
6.096758833E0,-1.342797638E1,5.769003296E-1,-2.097138977E0,1.360299068E1
6.106767833E0,-1.259885056E1,7.244934082E-2,-2.047442322E0,1.276433721E1
6.116775833E0,-1.179367493E1,-7.914042664E-1,-1.772164764E0,1.195230760E1
6.126783833E0,-1.095916031E1,-1.855840759E0,-1.542841644E0,1.122175120E1
6.136791833E0,-9.989626465E0,-2.938988342E0,-1.278641052E0,1.049119690E1
6.146799833E0,-8.713679810E0,-3.816463623E0,-1.157842255E0,9.583016701E0
6.156808833E0,-6.969506836E0,-4.592449951E0,-1.213825836E0,8.434334310E0
6.166816833E0,-4.889282684E0,-5.122946777E0,-1.688189392E0,7.280086007E0
6.176824833E0,-3.058589630E0,-5.176685028E0,-2.253264313E0,6.421077672E0
6.186832833E0,-1.516197052E0,-4.782554626E0,-2.544708252E0,5.625586400E0
6.196841833E0,-1.764830017E-1,-4.203259277E0,-2.512225800E0,4.899980946E0
6.206849833E0,8.497828674E-1,-3.619473267E0,-1.978884888E0,4.211733972E0
6.216857833E0,1.761237488E0,-3.172802124E0,-1.521885223E0,3.935068670E0
6.226865833E0,2.496209106E0,-2.974763947E0,-1.282682648E0,4.089688890E0
6.236873833E0,2.766097870E0,-2.838397522E0,-1.122066650E0,4.119081389E0
6.246882833E0,2.944676514E0,-2.972368927E0,-1.469344482E0,4.434531544E0
6.256890833E0,2.891087952E0,-3.034938812E0,-1.785337372E0,4.555949151E0
6.266898833E0,2.563718719E0,-3.062331848E0,-1.472188568E0,4.256509039E0
6.276906833E0,1.358874207E0,-2.676584015E0,-7.884104919E-1,3.103583767E0
6.286915833E0,-2.168989563E-1,-2.080822906E0,-4.110452271E-1,2.132094581E0
6.296923833E0,-1.466799774E0,-1.691781921E0,-1.032852173E-2,2.239136960E0
6.306931833E0,-2.497256927E0,-1.413510590E0,2.409988403E-1,2.879650116E0
6.316939833E0,-3.497626648E0,-1.148112488E0,4.520599365E-1,3.708896418E0
6.326947833E0,-4.589456177E0,-5.460644531E-1,2.851570129E-1,4.630616472E0
6.336956833E0,-5.905818787E0,2.490820312E-1,-5.111869812E-1,5.933131511E0
6.346964833E0,-7.489974518E0,7.827223206E-1,-6.021977234E-1,7.554800766E0
6.356972833E0,-9.950707397E0,8.629554749E-1,-2.791694641E-1,9.991957038E0
6.366980833E0,-1.281859360E1,4.590953064E-1,-1.994751892E0,1.298099170E1
6.376989833E0,-1.493668900E1,-3.797602844E-1,-6.606362000E0,1.633685756E1
6.386997833E0,-1.534833298E1,-1.487756195E0,-4.365970917E0,1.602642960E1
6.397005833E0,-1.626338013E1,-1.882784729E0,2.336940308E0,1.653794732E1
6.407013833E0,-2.052831116E1,-1.618135071E0,5.771847382E0,2.138560596E1
6.417022833E0,-2.699022354E1,-1.894759827E0,8.155939636E0,2.825918670E1
6.427030833E0,-3.449846008E1,-3.800147552E0,1.890119476E0,3.475855896E1
6.437038833E0,-3.760285446E1,-7.235803070E0,-1.760908173E1,4.214749422E1
6.447046833E0,-3.669199860E1,-9.214238892E0,-1.230860413E1,3.978324641E1
6.457054833E0,-3.223037659E1,-8.800499268E0,2.558479614E0,3.350808530E1
6.467063833E0,-2.417682404E1,-6.339167633E0,3.586691437E0,2.525011331E1
6.477071833E0,-1.851888977E1,-4.012106781E0,7.705975342E-1,1.896417938E1
6.487079833E0,-1.475496689E1,-2.879262543E0,-2.778222656E-1,1.503583672E1
6.497087833E0,-1.180669785E1,-2.095342712E0,-3.345542908E-1,1.199585352E1
6.507096833E0,-9.630373535E0,-1.570833435E0,-6.077362061E-2,9.757833035E0
6.517104833E0,-8.030350800E0,-1.548679504E0,-5.647755432E-1,8.197799314E0
6.527112833E0,-6.840774536E0,-1.605561218E0,-1.569935303E0,7.199911106E0
6.537120833E0,-5.462440796E0,-1.511107635E0,-2.140548706E0,6.058354108E0
6.547128833E0,-4.025728455E0,-1.386267242E0,-2.313738556E0,4.845782967E0
6.557137833E0,-2.852917328E0,-1.293310547E0,-2.287093964E0,3.878477568E0
6.567145833E0,-1.791923676E0,-1.315614166E0,-2.118843842E0,3.071047105E0
6.577153833E0,-8.758287048E-1,-1.353335724E0,-1.951042786E0,2.530842044E0
6.587161833E0,-1.975891113E-1,-1.516496429E0,-1.698667603E0,2.285667190E0
6.597170833E0,2.633024597E-1,-1.880838776E0,-1.347048798E0,2.328394973E0
6.607178833E0,4.667294312E-1,-2.139051819E0,-8.196954346E-1,2.337793757E0
6.617186833E0,6.891668701E-1,-2.207459564E0,-4.932243347E-1,2.364550475E0
6.627194833E0,9.521699524E-1,-2.178419952E0,-5.912704468E-1,2.449845270E0
6.637202833E0,1.167122955E0,-2.231709137E0,-7.316784668E-1,2.622604630E0
6.647211833E0,1.211879883E0,-2.358046417E0,-7.635621643E-1,2.758996726E0
6.657219833E0,1.080153809E0,-2.415377197E0,-4.905299377E-1,2.690984741E0
6.667227833E0,5.786965942E-1,-2.122586060E0,-6.197113037E-2,2.200932018E0
6.677235833E0,-1.466949463E-1,-1.736688538E0,1.561253357E-1,1.749851881E0
6.687244833E0,-8.301736450E-1,-1.333576813E0,1.666035461E-1,1.579674694E0
6.697252833E0,-1.480720825E0,-9.785151672E-1,-1.471440125E-1,1.780920395E0
6.707260833E0,-2.137105865E0,-4.191284180E-1,-7.803273010E-1,2.313395947E0
6.717268833E0,-2.763702850E0,5.120851135E-1,-1.146316223E0,3.035510746E0
6.727277833E0,-3.544030151E0,1.410816193E0,-1.420845337E0,4.070547078E0
6.737285833E0,-4.658612366E0,2.026785278E0,-1.594035187E0,5.324610400E0
6.747293833E0,-6.864425354E0,2.549797668E0,-2.982996826E0,7.906963618E0
6.757301833E0,-1.004052063E1,2.257754974E0,-4.830305328E0,1.136843708E1
6.767309833E0,-1.282742523E1,5.882766724E-1,-5.891149292E0,1.412779344E1
6.777318833E0,-1.416698959E1,-1.811383209E0,-4.452041931E0,1.496012636E1
6.787326833E0,-1.487920853E1,-3.775748291E0,-4.366419983E-1,1.535701070E1
6.797334833E0,-1.966206253E1,-4.282594299E0,3.651955719E0,2.045175047E1
6.807342833E0,-2.835493561E1,-5.443580017E0,6.323450317E0,2.955707970E1
6.817351833E0,-3.707654892E1,-8.376730499E0,2.692900085E0,3.810632237E1
6.827359833E0,-4.139985855E1,-1.222373062E1,-4.043391724E0,4.335570199E1
6.837367833E0,-3.923760498E1,-1.527034515E1,-7.338938599E0,4.273912851E1
6.847375833E0,-3.209969833E1,-1.434272415E1,-3.057392120E0,3.529096224E1
6.857383833E0,-2.346445541E1,-8.701854401E0,7.958949280E-1,2.503869778E1
6.867392833E0,-1.816188217E1,-4.303550720E0,1.465751953E0,1.872225792E1
6.877400833E0,-1.446516953E1,-1.697619781E0,7.123686218E-1,1.458185555E1
6.887408833E0,-1.148920807E1,-1.715432739E-1,-1.800755310E-1,1.149189960E1
6.897416833E0,-9.530830536E0,4.185296631E-1,-3.439846802E-1,9.546215127E0
6.907425833E0,-7.854915619E0,7.918533325E-2,-7.214996338E-1,7.888379518E0
6.917433833E0,-6.361620941E0,-2.775228882E-1,-1.407073975E0,6.521280328E0
6.927441833E0,-4.519102478E0,-4.176315308E-2,-1.270258484E0,4.694420942E0
6.937449833E0,-2.628084869E0,4.104464722E-1,-1.193767548E0,2.915540661E0
6.947457833E0,-1.038390656E0,7.499404907E-1,-1.854044495E0,2.253474402E0
6.957466833E0,2.421963501E-1,9.482780457E-1,-2.767744446E0,2.935694065E0
6.967474833E0,1.093326416E0,9.160949707E-1,-3.334316254E0,3.626604132E0
6.977482833E0,1.694775696E0,7.271878052E-1,-3.542682953E0,3.993954089E0
6.987490833E0,2.022893372E0,5.379812622E-1,-3.316054230E0,3.921445790E0
6.997499833E0,1.867366791E0,3.420387268E-1,-2.550246735E0,3.179277847E0
7.007507833E0,1.742676086E0,3.053649902E-2,-1.662891998E0,2.408954590E0
7.017515833E0,1.468895416E0,-4.683760071E-1,-7.900570679E-1,1.732402955E0
7.027523833E0,9.068142700E-1,-9.421408081E-1,-3.773652649E-1,1.361009172E0
7.037532833E0,1.095721436E-1,-1.368603973E0,-6.409671021E-1,1.515229922E0
7.047540833E0,-6.036946106E-1,-1.906585236E0,-1.209035797E0,2.336938596E0
7.057552000E0,-1.177301788E0,-2.274370422E0,-1.249601440E0,2.849614725E0
7.067560000E0,-1.642684021E0,-2.445165253E0,-5.195695496E-1,2.991186457E0
7.077568000E0,-2.074835358E0,-2.298021240E0,5.938151550E-1,3.152532287E0
7.087577000E0,-2.491419067E0,-1.835632782E0,1.559756470E0,3.465480764E0
7.097585000E0,-2.857707367E0,-1.428928528E0,1.877395935E0,3.705798649E0
7.107593000E0,-3.346590729E0,-1.131796417E0,1.714235229E0,3.926733383E0
7.117601000E0,-4.092938690E0,-1.083746338E0,1.415606232E0,4.464369412E0
7.127610000E0,-5.439089355E0,-1.414408722E0,1.201102295E0,5.746902798E0
7.137618000E0,-8.457412720E0,-2.446512451E0,1.133143616E0,8.876782499E0
7.147626000E0,-1.148741180E1,-3.371588745E0,-2.597099304E-1,1.197479394E1
7.157634000E0,-1.352213058E1,-3.266956329E0,-3.175047455E0,1.426891536E1
7.167642000E0,-1.653491547E1,-2.881807251E0,-3.756887512E0,1.719948971E1
7.177651000E0,-2.093306946E1,-3.461401978E0,1.239272919E0,2.125348202E1
7.187659000E0,-2.736234970E1,-4.595294037E0,5.537135468E0,2.829266296E1
7.197667000E0,-3.591735947E1,-5.954317932E0,6.024222565E0,3.690259978E1
7.207675000E0,-4.263194641E1,-7.641160126E0,1.272653503E0,4.333001073E1
7.217684000E0,-4.331063507E1,-9.111253052E0,-4.273313599E0,4.446444930E1
7.227692000E0,-3.651341995E1,-8.802894287E0,-2.652484131E0,3.765310686E1
7.237700000E0,-2.684307953E1,-5.645360413E0,-7.888595581E-2,2.743040714E1
7.247708000E0,-2.118843842E1,-3.419938202E0,7.619155884E-1,2.147618251E1
7.257717000E0,-1.768617142E1,-2.454296265E0,4.813989258E-1,1.786213802E1
7.267725000E0,-1.451636307E1,-1.852846985E0,5.298980713E-2,1.463422860E1
7.277733000E0,-1.110316086E1,-1.295406189E0,-1.887574768E-1,1.118006653E1
7.287741000E0,-8.137976990E0,-7.716453552E-1,-7.237449646E-1,8.206455557E0
7.297749000E0,-6.104006653E0,-2.981799316E-1,-2.207309875E0,6.497693851E0
7.307758000E0,-4.473896484E0,1.396595764E-1,-3.727997589E0,5.825222792E0
7.317766000E0,-2.464624786E0,4.352947998E-1,-3.216960297E0,4.075866834E0
7.327774000E0,-9.481283569E-1,8.096662903E-1,-2.145488434E0,2.481456730E0
7.337782000E0,9.639953613E-2,9.957293701E-1,-1.875449982E0,2.125578153E0
7.347791000E0,8.408015442E-1,8.158035278E-1,-1.862127686E0,2.200000489E0
7.357799000E0,1.132694550E0,4.653822327E-1,-1.337618408E0,1.813505051E0
7.367807000E0,1.076112213E0,1.621128845E-1,5.703140259E-2,1.089747982E0
7.377815000E0,8.107141113E-1,5.194198608E-2,1.495540009E0,1.701938676E0
7.387824000E0,7.875123596E-1,3.248245239E-2,2.148482208E0,2.288494401E0
7.397832000E0,9.391470337E-1,-6.481521606E-2,2.036964111E0,2.243974366E0
7.407840000E0,1.150357819E0,-1.904040527E-1,1.941462708E0,2.264697388E0
7.417848000E0,1.247206421E0,-3.275189209E-1,1.753603363E0,2.176675735E0
7.427856000E0,1.262175293E0,-3.486250305E-1,1.503024445E0,1.993416254E0
7.437865000E0,1.422042847E0,-4.263134766E-1,1.547182617E0,2.144230186E0
7.447873000E0,1.532812500E0,-5.635780334E-1,1.470541992E0,2.197641488E0
7.457881000E0,1.502425690E0,-5.586383057E-1,1.270857239E0,2.045589849E0
7.467889000E0,1.248553619E0,-4.025129700E-1,9.580078125E-1,1.624401982E0
7.477898000E0,8.220904541E-1,-3.192860413E-1,5.773493958E-1,1.054091370E0
7.487906000E0,4.153862000E-1,-3.905378723E-1,9.864486694E-2,5.786158783E-1
7.497914000E0,-6.062393188E-2,-6.219566345E-1,-1.155297546E0,1.313475442E0
7.507922000E0,-1.529519348E0,-1.778302002E0,-8.338410187E0,8.662036244E0
7.517931000E0,-4.020938416E0,-1.754501495E0,-8.734486542E0,9.774327414E0
7.527939000E0,-6.870412903E0,-7.114704895E-1,-3.959266663E0,7.961441843E0
7.537947000E0,-1.374112518E1,-6.119274902E-1,-1.730700989E0,1.386319958E1
7.547955000E0,-1.905732010E1,-6.881190491E-1,-8.666827240E0,2.094681006E1
7.557963000E0,-1.890329041E1,-4.005969543E0,-6.461463318E0,2.037480523E1
7.567972000E0,-2.323992233E1,-5.774541779E0,4.555925903E0,2.437613143E1
7.577980000E0,-3.514975571E1,-6.049070892E0,1.054572006E1,3.719285948E1
7.587988000E0,-4.802657822E1,-9.205407257E0,1.365744919E1,5.077221343E1
7.597996000E0,-5.312841888E1,-1.557990143E1,3.601360931E0,5.548271823E1
7.608005000E0,-4.465064850E1,-2.133243896E1,-1.378064301E1,5.136788379E1
7.618013000E0,-2.932551727E1,-1.704969498E1,-1.315389633E1,3.638273012E1
7.628021000E0,-2.047966232E1,-9.963730316E0,-3.128643951E0,2.298871253E1
7.638029000E0,-1.530941391E1,-5.167404327E0,2.835553436E0,1.640489515E1
7.648037000E0,-1.160431870E1,-1.728605347E0,3.300187225E0,1.218767921E1
7.658046000E0,-8.629854126E0,9.036708069E-1,1.304537201E0,8.774555286E0
7.668054000E0,-5.353916473E0,2.311642914E0,-2.331551514E0,6.280465510E0
7.678062000E0,-2.716999969E0,2.953358459E0,-4.350702667E0,5.918870561E0
7.688070000E0,-1.071621552E0,2.997366943E0,-4.855453033E0,5.805859583E0
7.698079000E0,-1.567240906E-1,2.664459229E0,-4.882846069E0,5.564718426E0
7.708087000E0,3.733236694E-1,1.983824615E0,-2.458637238E0,3.181167668E0
7.718095000E0,5.486091614E-1,1.191971283E0,4.068539429E-1,1.373789533E0
7.728103000E0,8.542735291E-1,7.020401001E-1,2.336940308E0,2.585330456E0
7.738112000E0,1.137185211E0,6.267466736E-1,2.861898651E0,3.142684440E0
7.748120000E0,1.298998718E0,4.610412598E-1,2.705024872E0,3.035970400E0
7.758128000E0,1.306034088E0,3.505709839E-1,2.172432404E0,2.558923133E0
7.768136000E0,1.298250275E0,4.513114929E-1,1.603465576E0,2.111927483E0
7.778144000E0,1.410217438E0,5.495072937E-1,1.359772339E0,2.034613551E0
7.788153000E0,1.380878448E0,5.743556213E-1,9.518705750E-1,1.772785170E0
7.798161000E0,1.391805725E0,5.414241028E-1,4.213737488E-1,1.551714881E0
7.808169000E0,1.405577087E0,4.002676392E-1,-1.231938171E-1,1.466641690E0
7.818177000E0,1.501228180E0,1.734892273E-1,-8.135581970E-1,1.716292953E0
7.828186000E0,1.928439789E0,-4.635859680E-1,-4.583318939E0,4.994056915E0
7.838194000E0,1.338965607E0,-1.084195404E0,-9.810748444E0,9.960878154E0
7.848202000E0,-8.608598328E-1,7.379653931E-2,-8.535550232E0,8.579169152E0
7.858210000E0,-2.084415436E0,1.282383270E0,-5.298082581E0,5.836006648E0
7.868219000E0,-3.834725647E0,2.001637573E0,-4.655468903E0,6.354924426E0
7.878227000E0,-7.294481049E0,2.501897278E0,-2.929557953E0,8.249318369E0
7.888235000E0,-9.568701782E0,1.647923126E0,-1.351689148E-1,9.710508486E0
7.898243000E0,-9.496701508E0,-5.078938293E-1,4.089495850E-1,9.519061688E0
7.908252000E0,-1.116752701E1,-2.191442871E0,-1.475930786E-1,1.138147025E1
7.918260000E0,-1.610291382E1,-2.782863007E0,1.084494781E0,1.637755442E1
7.928268000E0,-2.360306717E1,-3.265609131E0,4.994214478E0,2.434566000E1
7.938276000E0,-3.250071442E1,-4.327500916E0,9.010213165E0,3.400305344E1
7.948284000E0,-4.207196091E1,-7.877668304E0,1.226893661E1,4.452678248E1
7.958293000E0,-4.436414429E1,-1.272084686E1,1.597478027E0,4.617953204E1
7.968301000E0,-4.073164810E1,-1.546299454E1,-1.002255798E1,4.470596186E1
7.978309000E0,-3.378025360E1,-1.309147614E1,-1.344653778E0,3.625328088E1
7.988317000E0,-2.491613663E1,-7.786956940E0,5.556295624E0,2.668937961E1
7.998326000E0,-1.875704453E1,-4.489464111E0,4.131558380E0,1.972439560E1
8.008334000E0,-1.461635513E1,-2.572550354E0,6.631210327E-1,1.485582654E1
8.018342000E0,-1.156884247E1,-1.275347900E0,-1.769320679E0,1.177264303E1
8.028350000E0,-8.846753082E0,-6.982978821E-1,-2.385888519E0,9.189402813E0
8.038358000E0,-6.614295502E0,-8.083190918E-2,-3.029550018E0,7.275548921E0
8.048367000E0,-5.191803589E0,7.816744995E-1,-3.565285950E0,6.346424460E0
8.058371333E0,-4.022734680E0,1.475631409E0,-5.261708221E0,6.785680199E0
8.068379333E0,-3.283122711E0,1.720073090E0,-7.110363922E0,8.018405158E0
8.078387333E0,-2.369722137E0,1.625619507E0,-7.449408875E0,7.984479593E0
8.088396333E0,-1.298250275E0,1.301543427E0,-6.364015961E0,6.624210762E0
8.098404333E0,-7.949967957E-1,8.089178467E-1,-4.699028320E0,4.833966812E0
8.108412333E0,-5.739065552E-1,3.616479492E-1,-3.113375702E0,3.186419030E0
8.118420333E0,-2.918930054E-1,-1.748364258E-1,-1.818867645E0,1.850418551E0
8.128429333E0,2.134561157E-1,-9.993218994E-1,-1.160386963E0,1.546190698E0
8.138437333E0,6.020480347E-1,-1.971849518E0,-8.409512329E-1,2.226623303E0
8.148445333E0,9.144483948E-1,-2.840193787E0,-4.766088867E-1,3.021601007E0
8.158453333E0,8.530760193E-1,-3.295696564E0,1.960922241E-1,3.409956993E0
8.168462333E0,5.523513794E-1,-3.139571228E0,1.384920044E0,3.475629881E0
8.178470333E0,2.871029663E-1,-2.596201172E0,2.337988129E0,3.505549476E0
8.188478333E0,3.697311401E-2,-2.093247070E0,2.549797668E0,3.299169359E0
8.198486333E0,-2.773731995E-1,-1.892664185E0,2.332150269E0,3.016295490E0
8.208494333E0,-4.326004028E-1,-1.983076172E0,2.087259521E0,2.911423453E0
8.218503333E0,-4.754113770E-1,-2.124831390E0,1.760039978E0,2.799761622E0
8.228511333E0,-5.221142578E-1,-2.280807037E0,1.097068634E0,2.584229794E0
8.238519333E0,-7.794291687E-1,-2.901117096E0,-1.879341888E0,3.543432822E0
8.248527333E0,-2.264041901E0,-3.544329529E0,-7.885601807E0,8.937050598E0
8.258536333E0,-5.262905731E0,-2.304757233E0,-9.840237122E0,1.139475095E1
8.268544333E0,-8.796607361E0,-6.173162842E-1,-7.028035126E0,1.127628743E1
8.278552333E0,-1.142828476E1,-4.346960449E-1,-3.225791931E0,1.188277690E1
8.288560333E0,-1.251771927E1,-1.169068909E0,-1.628762970E0,1.267725864E1
8.298569333E0,-1.373483826E1,-1.329984283E0,-3.642824707E0,1.427181880E1
8.308577333E0,-1.500629425E1,-1.460512848E0,-1.707648926E0,1.517359647E1
8.318585333E0,-1.963062790E1,-2.546055450E0,2.811603241E0,1.999372559E1
8.328593333E0,-3.099484589E1,-4.045936432E0,5.182822266E0,3.168456596E1
8.338601333E0,-4.423017288E1,-5.200784912E0,-3.552113342E-1,4.453630577E1
8.348610333E0,-5.058206406E1,-5.978567505E0,-6.213429108E0,5.131174500E1
8.358618333E0,-4.722469574E1,-7.477550354E0,-7.544311523E-1,4.781897964E1
8.368626333E0,-3.859454224E1,-8.406817932E0,2.571801910E0,3.958317121E1
8.378634333E0,-2.726879425E1,-6.555617523E0,-2.380050659E-1,2.804674504E1
8.388643333E0,-1.971879456E1,-4.634662170E0,-1.994602203E0,2.035410008E1
8.398651333E0,-1.534010010E1,-3.110681305E0,-1.965712280E0,1.577526653E1
8.408659333E0,-1.254780670E1,-2.232607269E0,-1.372795258E0,1.281860192E1
8.418667333E0,-1.033750305E1,-1.816173248E0,-8.496331787E-1,1.053016292E1
8.428676333E0,-8.027806091E0,-1.725910950E0,-1.868713989E0,8.421195356E0
8.438684333E0,-5.780379639E0,-1.535806274E0,-4.247267761E0,7.335582670E0
8.448692333E0,-3.799997864E0,-1.247356110E0,-6.507717133E0,7.638472577E0
8.458700333E0,-1.281634827E0,-6.448590088E-1,-8.152945862E0,8.278221862E0
8.468708333E0,1.015039215E0,-3.008743286E-1,-8.664581909E0,8.729021115E0
8.478717333E0,2.708018646E0,-5.932164001E-1,-8.645721130E0,9.079304189E0
8.488725333E0,4.072880402E0,-2.007026367E0,-7.760162659E0,8.990919535E0
8.498733333E0,4.652924194E0,-3.635789337E0,-6.402036896E0,8.709462904E0
8.508741333E0,4.121080170E0,-4.113296356E0,-4.588408356E0,7.413231409E0
8.518750333E0,3.088826752E0,-3.554508362E0,-1.729653168E0,5.016680225E0
8.528758333E0,1.886227570E0,-2.513273621E0,2.114802246E0,3.787715311E0
8.538766333E0,8.747808838E-1,-1.363215179E0,4.398453369E0,4.687215512E0
8.548774333E0,3.897894287E-1,-7.047344971E-1,4.019591217E0,4.099475584E0
8.558783333E0,2.148033142E-1,-4.123924255E-1,2.947370911E0,2.983823598E0
8.568791333E0,1.196012878E-1,-2.567161560E-1,2.168091431E0,2.186510486E0
8.578799333E0,-3.367996216E-2,-1.496887207E-2,1.726360016E0,1.726753402E0
8.588807333E0,4.266128540E-2,1.577719116E-1,1.888772278E0,1.895830340E0
8.598816333E0,1.893562317E-1,3.353027344E-2,1.984273682E0,1.993570191E0
8.608824333E0,2.309696960E-1,3.233276367E-2,1.870809631E0,1.885290716E0
8.618832333E0,2.070195007E-1,1.481918335E-1,1.717378693E0,1.736147306E0
8.628840333E0,1.664538574E-1,2.668949890E-1,1.774110718E0,1.801779304E0
8.638849333E0,1.492396545E-1,3.400927734E-1,1.610201569E0,1.652478339E0
8.648857333E0,8.382568359E-3,4.248165894E-1,1.307830353E0,1.375121680E0
8.658865333E0,-6.611750793E-1,4.083508301E-1,8.818162537E-1,1.175373469E0
8.668873333E0,-1.838327179E0,3.254232788E-1,4.703219604E-1,1.925240212E0
8.678881333E0,-3.427422638E0,1.001417542E-1,7.334747314E-2,3.429669687E0
8.688890333E0,-6.195316772E0,-8.756790161E-2,-2.578687592E0,6.711128649E0
8.698898333E0,-1.638133484E1,-4.330494690E-1,-1.601414841E1,2.291262997E1
8.708906333E0,-2.574166992E1,-2.890040131E0,-7.701334991E0,2.702399791E1
8.718914333E0,-2.461915421E1,-4.327351227E0,8.207432556E-1,2.501004482E1
8.728923333E0,-2.685161179E1,-3.295696564E0,3.169508972E0,2.723814345E1
8.738931333E0,-3.418321564E1,-2.708916779E0,9.365873566E0,3.554644918E1
8.748939333E0,-4.457325943E1,-5.283113708E0,9.018745422E0,4.578236031E1
8.758947333E0,-5.298067612E1,-1.101828735E1,-2.232906647E0,5.416032284E1
8.768956333E0,-4.506618439E1,-1.368319565E1,-1.142873383E1,4.846448984E1
8.778964333E0,-3.099963593E1,-1.016910324E1,-3.438349915E0,3.280564492E1
8.788972333E0,-2.325309494E1,-6.197711792E0,3.692371674E0,2.434649183E1
8.798980333E0,-1.788106613E1,-4.610113220E0,1.045575714E0,1.849537506E1
8.808988333E0,-1.379396530E1,-3.952380981E0,-3.828139343E0,1.485090721E1
8.818997333E0,-1.124042542E1,-3.463198242E0,-6.339616699E0,1.336157347E1
8.829005333E0,-9.909243622E0,-3.048710175E0,-4.464017029E0,1.128783376E1
8.839013333E0,-9.244026947E0,-2.305505676E0,-2.526745605E0,9.856562990E0
8.849021333E0,-8.428522797E0,-1.415905609E0,-1.893113251E0,8.753779927E0
8.859030333E0,-7.383396149E0,-6.691085815E-1,-1.066382446E0,7.489954373E0
8.869038333E0,-6.094127197E0,-1.058299255E-1,-1.266067200E0,6.225151598E0
8.879046333E0,-4.515809326E0,1.664538574E-1,-2.025887146E0,4.952217633E0
8.889054333E0,-2.592908020E0,4.796026611E-1,-1.535955963E0,3.051614562E0
8.899063333E0,-8.843609619E-1,6.397695923E-1,-9.547146606E-1,1.450130865E0
8.909071333E0,5.996530151E-1,6.060896301E-1,-4.733157349E-1,9.751698125E-1
8.919079333E0,1.539099426E0,5.659730530E-1,-4.243675232E-1,1.693883212E0
8.929087333E0,1.920655975E0,5.923182678E-1,-6.001020813E-1,2.097589763E0
8.939096333E0,2.002835083E0,3.623963928E-1,4.041595459E-2,2.035758572E0
8.949104333E0,1.750010834E0,2.532733154E-1,6.459068298E-1,1.882519833E0
8.959112333E0,1.440155182E0,1.384620667E-1,7.809260559E-1,1.644099813E0
8.969120333E0,1.534608765E0,-9.610015869E-2,8.876541138E-1,1.775440544E0
8.979128333E0,1.625170441E0,-3.920347595E-1,8.165519714E-1,1.860544903E0
8.989137333E0,1.742825775E0,-6.342311096E-1,8.689430237E-1,2.048109558E0
8.999145333E0,1.877246246E0,-7.804769897E-1,7.791297913E-1,2.177209460E0
9.009153333E0,2.035167847E0,-9.346563721E-1,6.743476868E-1,2.338853459E0
9.019161333E0,2.134860535E0,-1.145268402E0,6.039939880E-1,2.496813560E0
9.029170333E0,2.083068237E0,-1.345551910E0,6.259982300E-1,2.557646772E0
9.039178333E0,1.645528107E0,-1.367556152E0,6.493496704E-1,2.235984699E0
9.049186333E0,8.568182373E-1,-9.029223633E-1,2.468367004E-1,1.268989615E0
9.059193708E0,2.454895020E-2,-3.803590393E-1,-8.909472656E-1,9.690524650E-1
9.069202708E0,-1.100212097E0,-2.195933533E-1,-3.655997314E0,3.824265193E0
9.079210708E0,-3.427272949E0,-3.614982605E-1,-1.114507370E1,1.166574252E1
9.089218708E0,-7.503596191E0,-1.481918335E0,-1.103071152E1,1.342298902E1
9.099226708E0,-1.020981857E1,-3.017125854E0,2.969973907E0,1.105279099E1
9.109235708E0,-1.103011276E1,-3.332070923E0,6.223907318E0,1.309591946E1
9.119243708E0,-1.650931870E1,-3.583547974E0,5.428012390E0,1.774437202E1
9.129251708E0,-2.724948441E1,-4.904850311E0,5.579497375E0,2.824398605E1
9.139259708E0,-3.943025436E1,-5.692961426E0,7.372169495E0,4.051547423E1
9.149267708E0,-5.193989044E1,-8.178093567E0,7.093149719E0,5.305606663E1
9.159276708E0,-5.604929489E1,-9.661957855E0,-6.278693390E0,5.722148965E1
9.169284708E0,-4.894132599E1,-6.164929962E0,-1.354967331E1,5.115518935E1
9.179292708E0,-3.342579071E1,2.173480225E-1,-6.299051056E0,3.401483160E1
9.189300708E0,-2.339993958E1,1.793270874E0,1.340312805E0,2.350679542E1
9.199309708E0,-1.666364777E1,1.285826111E0,2.575095062E0,1.691039977E1
9.209317708E0,-1.233435059E1,6.568341064E-1,1.452130280E0,1.243689341E1
9.219325708E0,-8.662486267E0,8.981323242E-4,-8.149053955E-1,8.700732150E0
9.229333708E0,-4.500241699E0,-2.194436646E-1,-2.582729187E0,5.193343906E0
9.239342708E0,-2.093396759E0,-3.767665100E-1,-4.238136749E0,4.741947501E0
9.249350708E0,-2.432441711E-1,-2.314187622E-1,-4.238885193E0,4.252160633E0
9.259358708E0,1.303190002E0,2.224374390E-1,-3.131338348E0,3.398979619E0
9.269366708E0,2.266736298E0,7.235952759E-1,-3.129392395E0,3.931256838E0
9.279375708E0,2.679428101E0,5.513035583E-1,-3.303031311E0,4.288739489E0
9.289383708E0,2.685864716E0,8.128097534E-2,-2.757864990E0,3.850492848E0
9.299391708E0,2.503394165E0,-3.556604004E-1,-1.965712280E0,3.202733432E0
9.309399708E0,2.392325134E0,-7.217990112E-1,-1.122964783E0,2.739573555E0
9.319408708E0,1.894460449E0,-1.100810852E0,-3.549119568E-1,2.219623261E0
9.329416708E0,1.653162231E0,-1.482666779E0,3.815565491E-1,2.253182536E0
9.339424708E0,1.594035187E0,-1.827549591E0,9.520202637E-1,2.605230943E0
9.349432708E0,1.430425415E0,-1.923050995E0,9.301657104E-1,2.570885109E0
9.359440708E0,1.298250275E0,-2.006277924E0,6.162684631E-1,2.467871897E0
9.369449708E0,9.380992126E-1,-1.996847534E0,3.574566650E-1,2.234995632E0
9.379457708E0,2.995271301E-1,-1.685494995E0,2.748284912E-1,1.733822534E0
9.389465708E0,-4.028123474E-1,-1.218915253E0,3.875440979E-1,1.340970771E0
9.399473708E0,-1.112336884E0,-7.900570679E-1,6.788383484E-1,1.523911092E0
9.409482708E0,-1.901495819E0,-7.029382324E-1,1.035546570E0,2.276436954E0
9.419490708E0,-2.833008728E0,-6.783892822E-1,1.192420349E0,3.147700234E0
9.429498708E0,-4.148173828E0,-7.479945374E-1,1.232985992E0,4.391707685E0
9.439506708E0,-6.863377533E0,-8.204438782E-1,1.091530151E0,6.997893782E0
9.449515708E0,-1.110001740E1,-5.116360474E-1,-1.631756744E0,1.123097448E1
9.459523708E0,-1.432086960E1,-2.029779053E-1,-6.889722748E0,1.589329373E1
9.469531708E0,-1.644180908E1,-1.019978943E0,-7.754923553E0,1.820747875E1
9.479539708E0,-2.016337006E1,-2.354753265E0,-2.219883728E0,2.042141618E1
9.489547708E0,-2.719709335E1,-2.969375153E0,1.651216278E0,2.740849487E1
9.499556708E0,-3.614099442E1,-2.537373505E0,-7.104226685E-1,3.623692098E1
9.509564708E0,-4.310526215E1,-1.908680878E0,-5.307363281E0,4.347269019E1
9.519572708E0,-4.214051834E1,-7.029382324E-1,-3.602408752E0,4.230005623E1
9.529580708E0,-3.290652054E1,7.110214233E-2,1.933978271E0,3.296338001E1
9.539589708E0,-2.351055954E1,9.208850098E-1,3.707639923E0,2.381892174E1
9.549597708E0,-1.839285187E1,1.148860931E0,2.608775024E0,1.861243102E1
9.559605708E0,-1.476334946E1,8.524772644E-1,9.830058289E-1,1.482057708E1
9.569613708E0,-1.207464066E1,3.980223083E-1,3.393443298E-1,1.208596390E1
9.579622708E0,-1.017299515E1,-2.320175171E-1,4.502636719E-1,1.018559766E1
9.589630708E0,-8.942404175E0,-9.678872681E-1,1.736389160E-2,8.994648392E0
9.599638708E0,-7.635771332E0,-1.483714600E0,-4.435276794E-1,7.791221319E0
9.609646708E0,-6.306685181E0,-1.717528381E0,-1.100810852E0,6.628421097E0
9.619655708E0,-4.493805084E0,-1.633702698E0,-1.510508881E0,5.014469635E0
9.629663708E0,-2.671793976E0,-1.419049072E0,-1.569635925E0,3.408216580E0
9.639671708E0,-1.146615601E0,-1.406026154E0,-1.617985382E0,2.430949110E0
9.649679708E0,1.649569702E-1,-1.658251648E0,-1.890418854E0,2.520058089E0
9.659687708E0,1.184037781E0,-2.287543030E0,-2.372117157E0,3.501676511E0
9.669696708E0,1.746867371E0,-2.877765656E0,-2.707270203E0,4.319999158E0
9.679704708E0,1.857786713E0,-3.086282043E0,-2.511627045E0,4.391443810E0
9.689712708E0,1.617236938E0,-3.120560760E0,-2.134860535E0,4.112296716E0
9.699720708E0,1.284329224E0,-3.053799591E0,-1.631906433E0,3.693008544E0
9.709729708E0,9.915380859E-1,-3.234922943E0,-1.293310547E0,3.622226718E0
9.719737708E0,7.223977661E-1,-3.623514862E0,-1.917961578E0,4.162967103E0
9.729745708E0,1.534309387E-1,-4.132755890E0,-3.541635132E0,5.444850017E0
9.739753708E0,-1.145118713E0,-4.076323242E0,-4.878205719E0,6.459458110E0
9.749762708E0,-2.877166901E0,-3.780538330E0,-5.244494019E0,7.076388694E0
9.759770708E0,-4.608316956E0,-3.974684601E0,-6.265820160E0,8.734712652E0
9.769778708E0,-6.503675537E0,-3.464844818E0,-5.597310333E0,9.253800737E0
9.779786708E0,-7.924820251E0,-1.856888580E0,-2.686613159E0,8.571388539E0
9.789795708E0,-9.211544495E0,-3.423381042E-1,-2.165397034E0,9.468827365E0
9.799803708E0,-1.047641418E1,1.083746338E-1,-2.794239349E0,1.084319016E1
9.809811708E0,-1.206610840E1,-1.226399689E0,-3.594175873E0,1.264962957E1
9.819819708E0,-1.373902954E1,-3.711382141E0,-4.899760895E0,1.505134369E1
9.829828708E0,-1.356015152E1,-4.222718811E0,-3.662583618E0,1.466709181E1
9.839836708E0,-1.266216888E1,-2.824476471E0,2.829416199E0,1.327832008E1
9.849844708E0,-1.354817642E1,-1.868863678E0,5.600603485E0,1.477878531E1
9.859852708E0,-1.759875320E1,-2.784659271E0,1.999541931E0,1.792954571E1
9.869860708E0,-2.140818146E1,-3.744463348E0,-1.376238098E1,2.572419813E1
9.879869708E0,-2.134201904E1,-3.213517456E0,-1.288355850E1,2.513552369E1
9.889877708E0,-2.144051422E1,-2.486479340E0,5.140160980E0,2.218782289E1
9.899885708E0,-2.262036072E1,-2.444117432E0,8.501870270E0,2.428860282E1
9.909893708E0,-2.490236526E1,-1.851799164E0,3.238814850E0,2.518028748E1
9.919902708E0,-2.465268448E1,-1.169817352E0,-4.862338715E0,2.515483378E1
9.929910708E0,-2.125939087E1,-9.604028320E-1,-4.160448303E0,2.168394346E1
9.939918708E0,-1.797117874E1,-1.130299530E0,1.063987427E0,1.803809612E1
9.949926708E0,-1.602507568E1,-1.297651520E0,2.218087463E0,1.622981399E1
9.959935708E0,-1.467353622E1,-1.360371094E0,1.252894592E0,1.478962541E1
9.969943708E0,-1.347452957E1,-1.341360626E0,-1.796264648E-3,1.354112989E1
9.979951708E0,-1.223645416E1,-1.471889191E0,-1.011296997E0,1.236608224E1
9.989959708E0,-1.087593338E1,-1.664837952E0,-1.620979156E0,1.112138416E1
9.999968708E0,-9.337582397E0,-1.742227020E0,-2.287692719E0,9.770329472E0
1.000997671E1,-7.775430908E0,-1.801503754E0,-2.788251801E0,8.454412439E0
1.001998471E1,-6.258784790E0,-1.864073639E0,-3.075504456E0,7.218440637E0
1.002999271E1,-4.861290894E0,-1.754950562E0,-3.655099182E0,6.330225166E0
1.004000171E1,-3.524570618E0,-1.303339691E0,-4.019291840E0,5.502363063E0
1.005000971E1,-2.545905762E0,-7.494914246E-1,-3.960314484E0,4.767333044E0
1.006001808E1,-1.818268890E0,-2.683918762E-1,-3.989354095E0,4.392389106E0
1.007002608E1,-1.208437042E0,-8.726852417E-2,-3.879332886E0,4.064130844E0
1.008003408E1,-8.285270691E-1,-4.646337891E-1,-3.486699371E0,3.613781146E0
1.009004308E1,-5.498066711E-1,-1.195713501E0,-3.191513214E0,3.452213022E0
1.010005108E1,-4.195774841E-1,-2.052531738E0,-3.030747528E0,3.684340155E0
1.011005908E1,-6.018983459E-1,-2.928510132E0,-2.832709351E0,4.118579303E0
1.012006708E1,-9.217831421E-1,-3.699107666E0,-2.514321442E0,4.566715888E0
1.013007608E1,-1.227148132E0,-4.169130249E0,-1.993554382E0,4.781401327E0
1.014008408E1,-1.554517365E0,-4.278552704E0,-1.173709259E0,4.701077632E0
1.015009208E1,-1.927691345E0,-4.065096588E0,-2.415975952E-1,4.505482615E0
1.016010008E1,-2.363135834E0,-3.401077423E0,6.676116943E-1,4.194930748E0
1.017010908E1,-2.870730286E0,-2.182910614E0,9.756710815E-1,3.736057438E0
1.018011708E1,-3.518732758E0,-6.011499023E-1,5.367837524E-1,3.609847396E0
1.019012508E1,-4.266427917E0,5.523513794E-1,6.870712280E-2,4.302582932E0
1.020013308E1,-5.350323944E0,1.152303772E0,-1.392105103E-1,5.474773955E0
1.021014208E1,-7.107819214E0,1.114881592E0,-5.897735596E-1,7.218856405E0
1.022015008E1,-9.714797974E0,-7.334747314E-2,-2.418370972E0,1.001155321E1
1.023015808E1,-1.212927704E1,-1.211430817E0,-5.882018280E0,1.353458773E1
1.024016608E1,-1.456890381E1,-1.411115570E0,-8.187374268E0,1.677132382E1
1.025017508E1,-1.639705215E1,-9.231303406E-1,-2.633773041E0,1.663286654E1
1.026018308E1,-1.944636108E1,-6.053411865E-1,4.486769714E0,1.996643433E1
1.027019108E1,-2.366713394E1,-5.364843750E-1,4.634063416E0,2.412251206E1
1.028019908E1,-2.801693848E1,-8.129594421E-1,-1.416654053E0,2.806450879E1
1.029020708E1,-2.920546692E1,-1.922003174E0,-4.872218170E0,2.967139875E1
1.030021608E1,-2.740067001E1,-2.860850830E0,-8.705895996E-1,2.756336538E1
1.031022408E1,-2.507106445E1,-3.458857269E0,2.487078094E0,2.543044482E1
1.032023208E1,-2.300700668E1,-3.683839417E0,8.879534912E-1,2.331697859E1
1.033024008E1,-2.087543930E1,-2.755919037E0,-1.652862854E0,2.112134019E1
1.034024908E1,-1.900792282E1,-1.039887543E0,-1.925745392E0,1.913350442E1
1.035025708E1,-1.742870682E1,6.554869080E-1,-7.101232910E-1,1.745547935E1
1.036026508E1,-1.597986969E1,1.693578186E0,-3.293151855E-2,1.606939722E1
1.037027308E1,-1.427716049E1,1.946252747E0,-1.561253357E-1,1.441005158E1
1.038028208E1,-1.246053818E1,1.714235229E0,-6.927593994E-1,1.259696510E1
1.039029008E1,-1.076441528E1,1.129401398E0,-1.306333466E0,1.090204985E1
1.040029808E1,-9.227411499E0,1.689985657E-1,-1.784588928E0,9.399917081E0
1.041030608E1,-7.678582306E0,-8.373587036E-1,-1.753603363E0,7.920664150E0
1.042031508E1,-6.029311981E0,-1.600172424E0,-1.343007202E0,6.380973523E0
1.043032308E1,-4.289779358E0,-2.138902130E0,-1.498533783E0,5.022221895E0
1.044033108E1,-2.491568756E0,-2.389630737E0,-2.209255829E0,4.098665788E0
1.045033908E1,-1.017434235E0,-2.446512451E0,-2.649190979E0,3.746839794E0
1.046034808E1,6.601272583E-2,-2.201322327E0,-2.903811493E0,3.644488833E0
1.047035608E1,8.226892090E-1,-1.941462708E0,-2.915936279E0,3.598441241E0
1.048036408E1,1.292262726E0,-1.765428772E0,-2.589016113E0,3.389643954E0
1.049037208E1,1.585203552E0,-1.460213470E0,-2.378254395E0,3.209546330E0
1.050038008E1,1.741328888E0,-1.140178986E0,-2.116448822E0,2.968432251E0
1.051038908E1,1.743125153E0,-1.079405365E0,-2.127675476E0,2.954759579E0
1.052039708E1,1.761686554E0,-1.237177277E0,-2.331252136E0,3.173150430E0
1.053040508E1,1.632056122E0,-1.450034637E0,-2.338736572E0,3.199358747E0
1.054041308E1,8.342152405E-1,-1.593735809E0,-1.989063721E0,2.681843281E0
1.055042208E1,-3.644920349E-1,-1.796713715E0,-1.826501770E0,2.587883949E0
1.056043008E1,-1.367107086E0,-1.793719940E0,-1.798210602E0,2.884436579E0
1.057043808E1,-2.052082672E0,-1.528172150E0,-1.542991333E0,2.987837958E0
1.058044608E1,-2.564018097E0,-1.158890076E0,-9.601034546E-1,2.973047873E0
1.059045508E1,-3.148702240E0,-8.204438782E-1,-2.933898926E-1,3.267037126E0
1.060046308E1,-3.788771210E0,-8.027806091E-1,7.045848083E-1,3.936455733E0
1.061047108E1,-4.422702942E0,-1.172212372E0,1.727407837E0,4.890636052E0
1.062047908E1,-5.184319153E0,-1.653910675E0,2.070195007E0,5.822224057E0
1.063048808E1,-6.550677795E0,-2.183359680E0,2.080373840E0,7.211545908E0
1.064049608E1,-1.012748978E1,-3.303480377E0,2.161505127E-1,1.065484645E1
1.065050408E1,-1.717722977E1,-5.385500793E0,-1.082294357E1,2.100468873E1
1.066051208E1,-2.258563293E1,-6.729555817E0,-1.896915344E1,3.025271093E1
1.067052008E1,-2.331401825E1,-5.151387634E0,-3.919000397E0,2.419584273E1
1.068052908E1,-2.787099197E1,-3.014132080E0,8.977131958E0,2.943579596E1
1.069053708E1,-3.576542542E1,-2.315684509E0,1.131152756E1,3.758295765E1
1.070054508E1,-4.083388550E1,-1.469344482E0,6.213578796E0,4.133005855E1
1.071055308E1,-3.849589737E1,3.749702454E-1,-3.089575195E0,3.862149909E1
1.072056208E1,-3.035807007E1,2.121238861E0,-5.144801331E0,3.086391183E1
1.073057008E1,-2.332030518E1,2.081870728E0,7.685018921E-1,2.342565718E1
1.074057808E1,-1.915416870E1,1.462009735E0,3.349434814E0,1.949970166E1
1.075058608E1,-1.588526642E1,1.020727386E0,2.464924164E0,1.610774425E1
1.076059508E1,-1.265857635E1,7.370672607E-1,1.562301178E0,1.277589952E1
1.077060308E1,-9.898316345E0,4.700225830E-1,-2.646496582E-1,9.913002933E0
1.078061108E1,-7.841593323E0,-2.941383362E-1,-2.314487000E0,8.181317331E0
1.079061908E1,-6.399941254E0,-1.049018555E0,-3.322341156E0,7.286812660E0
1.080062808E1,-5.426216125E0,-1.230291595E0,-3.954626312E0,6.826163499E0
1.081063608E1,-4.652325439E0,-1.420396271E0,-4.111500092E0,6.369151479E0
1.082064408E1,-3.959416351E0,-2.082918549E0,-3.996838531E0,5.999187092E0
1.083065208E1,-3.323388977E0,-2.696791992E0,-3.739673309E0,5.683551513E0
1.084066108E1,-2.858306122E0,-3.003953247E0,-3.206931152E0,5.241951584E0
1.085066908E1,-2.206411743E0,-3.062780914E0,-2.726280670E0,4.656338261E0
1.086067708E1,-1.673220520E0,-2.905458069E0,-2.428849182E0,4.140128241E0
1.087068508E1,-1.085392914E0,-2.555785217E0,-2.291434937E0,3.600109710E0
1.088069308E1,-6.059399414E-1,-2.059716797E0,-1.786834259E0,2.793272841E0
1.089070208E1,-1.755848694E-1,-1.773062897E0,-1.090332642E0,2.088877055E0
1.090071008E1,2.736309814E-1,-1.719324646E0,-6.728507996E-1,1.866461720E0
1.091071808E1,6.138734436E-1,-1.807491302E0,-7.397616577E-1,2.047220732E0
1.092072608E1,9.580078125E-1,-1.998494110E0,-9.656419373E-1,2.417482581E0
1.093073508E1,9.738748169E-1,-2.132315826E0,-1.090931396E0,2.585601333E0
1.094074308E1,5.047503662E-1,-2.040107574E0,-1.368753662E0,2.508046737E0
1.095075108E1,-5.935157776E-1,-1.713935852E0,-1.351090393E0,2.261698993E0
1.096075908E1,-2.196382599E0,-1.283730469E0,-5.373825073E-1,2.600161610E0
1.097076808E1,-3.473227386E0,-8.180488586E-1,2.122586060E-1,3.574572160E0
1.098077608E1,-4.373904419E0,-2.719844055E-1,9.502239990E-1,4.484187890E0
1.099078408E1,-5.403014374E0,3.742218018E-1,1.743574219E0,5.689697473E0
1.100079208E1,-6.824009399E0,6.929090881E-1,2.088457031E0,7.169998609E0
1.101080108E1,-9.052724762E0,5.942642212E-1,2.795586548E0,9.493170162E0
1.102080908E1,-1.352557343E1,7.185058594E-1,4.306993561E0,1.421293709E1
1.103081708E1,-1.953362961E1,1.161584473E0,3.486250305E-1,1.957124175E1
1.104082508E1,-2.374197830E1,1.221909027E0,-6.288872223E0,2.459114697E1
1.105083408E1,-2.605915970E1,3.787124634E-1,-3.733536072E0,2.632797977E1
1.106084221E1,-2.954436218E1,-2.627037048E-1,1.386416931E0,2.957804087E1
1.107085021E1,-3.411750229E1,-1.278491364E0,5.086871796E0,3.451832509E1
1.108085821E1,-3.723312332E1,-3.012485504E0,4.353995819E0,3.760768300E1
1.109086621E1,-3.271177551E1,-4.760999451E0,-2.318079529E0,3.313760501E1
1.110087521E1,-2.318319031E1,-3.927382965E0,-6.846612396E0,2.449001329E1
1.111088321E1,-1.772793457E1,-2.122885437E0,-4.986580353E0,1.853786100E1
1.112089121E1,-1.456037155E1,-5.734574890E-1,-2.204316101E0,1.473744492E1
1.113089921E1,-1.208197540E1,4.968168640E-1,-6.304888916E-1,1.210861152E1
1.114090821E1,-9.871372375E0,9.825567627E-1,4.914280701E-1,9.932316543E0
1.115091621E1,-8.100554810E0,9.696835327E-1,6.438111877E-1,8.183750193E0
1.116092421E1,-6.323749695E0,7.676037598E-1,-3.800596619E-1,6.381494424E0
1.117093221E1,-4.255201263E0,7.282356262E-1,-1.500629425E0,4.570443479E0
1.118094121E1,-2.119442596E0,7.583230591E-1,-1.658700714E0,2.796136413E0
1.119094921E1,-5.352868652E-1,7.319778442E-1,-1.879491577E0,2.086818675E0
1.120095721E1,5.162763977E-1,5.863307190E-1,-1.789977722E0,1.953034889E0
1.121096521E1,1.298849030E0,2.844085693E-1,-1.448986816E0,1.966585831E0
1.122097421E1,1.686991882E0,-1.071771240E-1,-1.115031281E0,2.025024272E0
1.123098221E1,1.626068573E0,-5.583389282E-1,-1.104702759E0,2.043577634E0
1.124099021E1,1.432970123E0,-1.001417542E0,-1.169967041E0,2.103583453E0
1.125099821E1,1.108594666E0,-1.328786774E0,-5.309458923E-1,1.810127057E0
1.126100721E1,7.039860535E-1,-1.409918060E0,3.763174438E-1,1.620209900E0
1.127101521E1,3.703298950E-1,-1.292262726E0,1.105451202E0,1.740433723E0
1.128102321E1,4.460723877E-2,-1.040037231E0,1.426832886E0,1.766216106E0
1.129103121E1,-4.878355408E-1,-8.978329468E-1,1.337618408E0,1.683244047E0
1.130104021E1,-1.121767273E0,-9.648934937E-1,1.155447235E0,1.877349084E0
1.131104821E1,-1.791923676E0,-1.073866882E0,1.121318207E0,2.370977659E0
1.132105621E1,-2.567311249E0,-1.196761322E0,1.105451202E0,3.040616232E0
1.133106421E1,-3.451971588E0,-1.324445801E0,1.167572021E0,3.877304341E0
1.134107221E1,-4.581073608E0,-1.487756195E0,1.311123505E0,4.991863254E0
1.135108121E1,-6.364914093E0,-1.725012817E0,1.106948090E0,6.686788071E0
1.136108921E1,-1.134475845E1,-3.300187225E0,-1.460662537E0,1.190497019E1
1.137109721E1,-1.651904846E1,-4.344415741E0,-3.650608521E0,1.746653523E1
1.138110521E1,-1.947704727E1,-3.621718597E0,-5.077441406E0,2.045122557E1
1.139111421E1,-2.160891403E1,-1.759291534E0,-4.651427307E0,2.217376938E1
1.140112221E1,-2.400483170E1,-7.458988953E-1,-1.496887207E-3,2.401641755E1
1.141113021E1,-2.640838348E1,-3.942800903E-1,5.201683044E0,2.691868647E1
1.142113821E1,-2.918600739E1,-2.824626160E-1,5.285508728E0,2.966208716E1
1.143114721E1,-3.002755737E1,2.647993469E-1,1.977388000E-1,3.002937597E1
1.144115521E1,-2.641182632E1,9.048683167E-1,-6.345005493E0,2.717834526E1
1.145116321E1,-2.261601974E1,1.341210938E0,-7.380851440E0,2.382771839E1
1.146117121E1,-2.005649231E1,1.012494507E0,-2.511776733E0,2.023850418E1
1.147118021E1,-1.796369431E1,2.639012146E-1,1.038240967E0,1.799560783E1
1.148118821E1,-1.618569168E1,-2.549198914E-1,1.486408997E0,1.625579931E1
1.149119621E1,-1.459090805E1,-4.526586914E-1,4.427792358E-1,1.460464142E1
1.150120421E1,-1.274674301E1,-4.864883423E-1,-3.695814514E-1,1.276137605E1
1.151121221E1,-1.074016571E1,-6.210585022E-1,-7.376660156E-1,1.078336795E1
1.152122121E1,-8.990753632E0,-9.467811584E-1,-6.468049622E-1,9.063575568E0
1.153122921E1,-7.591014404E0,-1.596130829E0,-5.815406799E-1,7.778773867E0
1.154123721E1,-5.810167694E0,-2.093696136E0,-8.934919739E-1,6.240187501E0
1.155124521E1,-3.872896271E0,-2.450853424E0,-1.155297546E0,4.726597132E0
1.156125421E1,-2.117197266E0,-2.758014679E0,-1.300196228E0,3.712099064E0
1.157126221E1,-6.743476868E-1,-3.040028229E0,-1.445993042E0,3.433280110E0
1.158127021E1,4.303550720E-1,-3.112327881E0,-1.299148407E0,3.399937780E0
1.159127821E1,1.155147858E0,-3.165617065E0,-8.672964478E-1,3.479612206E0
1.160128721E1,1.668729858E0,-3.323089600E0,-4.971162415E-1,3.751627432E0
1.161129521E1,1.954785004E0,-3.490740967E0,-2.613565063E-1,4.009334625E0
1.162130321E1,1.994751892E0,-3.578608246E0,-2.348616028E-1,4.103733917E0
1.163131121E1,1.903292084E0,-3.768862610E0,-5.879772949E-1,4.262928973E0
1.164132021E1,1.602866821E0,-3.723955994E0,-9.565109253E-1,4.165566401E0
1.165132821E1,8.979826355E-1,-3.139571228E0,-7.390132141E-1,3.348047317E0
1.166133621E1,-1.202000427E-1,-2.117796021E0,2.104623413E-1,2.131619673E0
1.167134421E1,-9.717791748E-1,-9.963281250E-1,1.181193695E0,1.825443245E0
1.168135321E1,-1.684746552E0,-3.833528137E-1,1.189426575E0,2.097633404E0
1.169136121E1,-2.412682800E0,-2.978805542E-2,3.644920349E-1,2.440241805E0
1.170136921E1,-3.526366882E0,3.137475586E-1,-7.126679993E-1,3.611315079E0
1.171137721E1,-5.488037567E0,6.776408386E-1,-2.479294281E0,6.060086928E0
1.172138621E1,-8.852890320E0,5.918692017E-1,-4.449796600E0,9.925959196E0
1.173139421E1,-1.244781464E1,-3.353027344E-1,-4.524790649E0,1.324893383E1
1.174140221E1,-1.457114914E1,-1.260379028E0,-3.048560486E0,1.493990173E1
1.175141021E1,-1.623957962E1,-1.642234955E0,-2.370769958E0,1.649367855E1
1.176141921E1,-1.995874557E1,-1.810185699E0,-1.031504974E0,2.006719461E1
1.177142721E1,-2.632874908E1,-1.620081024E0,1.642085266E0,2.642960717E1
1.178143521E1,-3.348701340E1,-1.585353241E0,2.211501160E0,3.359738306E1
1.179144321E1,-3.871100006E1,-1.715432739E0,2.050735474E-2,3.874899555E1
1.180145121E1,-3.859035095E1,-1.460961914E0,-1.886077881E0,3.866402574E1
1.181146021E1,-3.199401810E1,-5.860313416E-1,-7.755372620E-1,3.200878137E1
1.182146821E1,-2.423116104E1,4.032614136E-1,5.349874878E-1,2.424042072E1
1.183147621E1,-1.942884750E1,7.262896729E-1,9.692344666E-1,1.946656178E1
1.184148421E1,-1.594633942E1,3.083587646E-1,5.248086548E-1,1.595795256E1
1.185149321E1,-1.322200470E1,-9.729766846E-3,2.679428101E-2,1.322203543E1
1.186150121E1,-1.081845291E1,-3.433859253E-1,-1.210981750E-1,1.082457861E1
1.187150921E1,-9.070837097E0,-5.935157776E-1,-5.767506409E-1,9.108511839E0
1.188151721E1,-7.438182220E0,-6.813830566E-1,-1.206491089E0,7.566138934E0
1.189152621E1,-5.821094971E0,-6.861730957E-1,-1.554517365E0,6.064033675E0
1.190153421E1,-3.816313934E0,-4.376898193E-1,-1.170416107E0,4.015681547E0
1.191154221E1,-1.926942902E0,-1.842668152E-1,-1.166673889E0,2.260130786E0
1.192155021E1,-2.326162720E-1,-1.460961914E-1,-1.331930237E0,1.359960508E0
1.193155921E1,9.321116638E-1,-4.824467468E-1,-1.450783081E0,1.790630773E0
1.194156721E1,1.606010284E0,-1.024170227E0,-1.869013367E0,2.668596008E0
1.195157521E1,1.720073090E0,-1.565893707E0,-2.342628479E0,3.301300157E0
1.196158321E1,1.555415497E0,-1.811832275E0,-2.180814972E0,3.233884275E0
1.197159121E1,1.318458252E0,-1.854643250E0,-1.449435883E0,2.697943313E0
1.198160021E1,1.058448944E0,-1.754501495E0,-5.542973328E-1,2.122695267E0
1.199160821E1,9.627978516E-1,-1.645079041E0,2.170486450E-2,1.906236044E0
1.200161621E1,9.587562561E-1,-1.601968689E0,4.544549561E-1,1.921469892E0
1.201162421E1,9.668394470E-1,-1.467697906E0,6.830296326E-1,1.885588805E0
1.202163321E1,8.361611938E-1,-1.320553894E0,7.602690125E-1,1.738113086E0
1.203164121E1,4.845423889E-1,-1.049617310E0,6.831793213E-1,1.342837223E0
1.204164921E1,-1.188528442E-1,-7.207511902E-1,3.209326172E-1,7.978759437E-1
1.205165721E1,-8.891510010E-1,-5.298980713E-1,-6.128256226E-1,1.202886824E0
1.206167037E1,-2.128573608E0,-1.362167358E-1,-2.745141449E0,3.476374862E0
1.207167838E1,-3.789819031E0,5.616320801E-1,-4.989274750E0,6.290550167E0
1.208168638E1,-6.001769257E0,8.918453979E-1,-3.669169922E0,7.090798992E0
1.209169438E1,-8.816665649E0,5.783972168E-1,-8.936416626E-2,8.836069402E0
1.210170338E1,-1.168649780E1,-2.764750671E-1,-1.395098877E-1,1.169060017E1
1.211171138E1,-1.410621597E1,-1.368603973E0,-4.593048706E0,1.489813755E1
1.212171938E1,-1.688234299E1,-2.192939758E0,-5.444029083E0,1.787344237E1
1.213172738E1,-2.212563950E1,-2.317929840E0,5.111869812E-1,2.225259612E1
1.214173638E1,-3.230432281E1,-2.398013306E0,4.212689667E0,3.266598375E1
1.215174438E1,-4.387271622E1,-3.467090149E0,2.305505676E0,4.406984569E1
1.216175238E1,-4.690795441E1,-5.516478424E0,-3.328478394E0,4.734835255E1
1.217176038E1,-3.945360580E1,-6.355483704E0,-2.990331573E0,4.007394748E1
1.218176838E1,-2.871493698E1,-3.391796722E0,2.530936890E0,2.902511899E1
1.219177738E1,-2.169468567E1,-4.805007935E-1,3.987408142E0,2.206331097E1
1.220178538E1,-1.708906311E1,7.165599060E-1,1.613494720E0,1.718001459E1
1.221179338E1,-1.349833008E1,1.216669922E0,-5.080435181E-1,1.356257014E1
1.222180138E1,-1.039618103E1,1.243464203E0,-9.280700684E-1,1.051133185E1
1.223181038E1,-8.355025635E0,1.119072876E0,-1.303190002E0,8.529776178E0
1.224181838E1,-6.972350922E0,1.012644196E0,-2.078427887E0,7.345678194E0
1.225182638E1,-5.374573517E0,1.060095520E0,-2.843486938E0,6.172135851E0
1.226183438E1,-3.328029327E0,1.296603699E0,-2.772833862E0,4.521677563E0
1.227184338E1,-1.488953705E0,1.063238983E0,-2.370171204E0,2.994189674E0
1.228185138E1,2.619552612E-2,7.262896729E-1,-2.300416260E0,2.412487899E0
1.229185938E1,1.046024780E0,9.879455566E-3,-2.625839539E0,2.826534756E0
1.230186738E1,1.614542542E0,-9.749226379E-1,-3.386707306E0,3.876468515E0
1.231187638E1,1.594184875E0,-1.876497803E0,-3.525768127E0,4.300431410E0
1.232188438E1,1.114731903E0,-2.233954468E0,-2.784808960E0,3.740099026E0
1.233189238E1,6.941065979E-1,-2.177970886E0,-1.614991608E0,2.798846020E0
1.234190038E1,2.592608643E-1,-2.044448547E0,-6.776408386E-1,2.169373911E0
1.235190938E1,-1.601669312E-2,-1.910477142E0,-3.462300110E-1,1.941662861E0
1.236191738E1,-6.167175293E-2,-1.890867920E0,-6.647676086E-1,2.005268279E0
1.237192538E1,-1.886077881E-2,-2.049837341E0,-1.292711792E0,2.423487700E0
1.238193337E1,1.556762695E-2,-2.326911163E0,-1.585951996E0,2.816025860E0
1.239194238E1,-1.130149841E-1,-2.228415985E0,-1.268312531E0,2.566559344E0
1.240195038E1,-5.227130127E-1,-1.800156555E0,-6.358776855E-1,1.979427429E0
1.241195837E1,-1.193917236E0,-1.344055023E0,-2.752775574E-1,1.818708335E0
1.242196638E1,-2.268682251E0,-7.629634094E-1,-1.060993652E0,2.618155811E0
1.243197438E1,-3.982618103E0,2.415975952E-1,-2.807861023E0,4.878903553E0
1.244198337E1,-6.080505524E0,1.206640778E0,-3.207978973E0,6.979946883E0
1.245199138E1,-9.003177795E0,1.526675262E0,-2.480042725E0,9.462481688E0
1.246199938E1,-1.160237274E1,9.725276184E-1,-3.101849670E0,1.204916323E1
1.247200737E1,-1.414857788E1,-1.360670471E-1,-5.591622162E0,1.521403985E1
1.248201638E1,-1.768572235E1,-1.241518250E0,-3.964206390E0,1.816703264E1
1.249202438E1,-2.475432312E1,-2.389630737E0,2.021546173E0,2.495142275E1
1.250203237E1,-3.518433380E1,-3.890110474E0,8.795709229E-1,3.540965899E1
1.251204038E1,-4.368590469E1,-6.212081909E0,-3.014281769E0,4.422820509E1
1.252204938E1,-4.220473480E1,-7.840395813E0,-2.175725555E0,4.298191745E1
1.253205737E1,-3.398966812E1,-7.647596741E0,3.847299500E0,3.505117670E1
1.254206538E1,-2.508573395E1,-4.984484711E0,6.039490814E0,2.627954689E1
1.255207338E1,-1.919997345E1,-2.382745056E0,2.904559937E0,1.956407225E1
1.256208237E1,-1.552571411E1,-7.246430969E-1,2.757266235E-1,1.554506132E1
1.257209038E1,-1.326736038E1,-1.043330383E-1,-4.331991577E-1,1.327484081E1
1.258209838E1,-1.155192764E1,-2.315684509E-1,4.553530884E-1,1.156321766E1
1.259210637E1,-1.016745667E1,-3.276686096E-1,6.879693604E-1,1.019597193E1
1.260211538E1,-8.759334869E0,-2.812651062E-1,8.681945801E-3,8.763853764E0
1.261212338E1,-7.078330536E0,-1.356179810E-1,-9.653425598E-1,7.145141123E0
1.262213137E1,-4.832251282E0,3.215313721E-1,-1.567390594E0,5.090260126E0
1.263213938E1,-2.530338135E0,5.331912231E-1,-1.547631683E0,3.013646924E0
1.264214838E1,-4.014651489E-1,2.532733154E-1,-1.945653992E0,2.002720923E0
1.265215637E1,1.151405640E0,-1.558259583E-1,-2.885998535E0,3.111109805E0
1.266216438E1,1.935026093E0,-5.408253479E-1,-4.133654022E0,4.596075893E0
1.267217238E1,2.017055511E0,-9.771679688E-1,-4.956193542E0,5.439413995E0
1.268218037E1,1.754052429E0,-1.352138214E0,-4.872517548E0,5.352233639E0
1.269218938E1,1.256936188E0,-1.512604523E0,-4.151017914E0,4.593344179E0
1.270219738E1,8.496331787E-1,-1.653910675E0,-3.213068390E0,3.712291144E0
1.271220537E1,2.987786865E-1,-1.738185425E0,-2.134112091E0,2.768572140E0
1.272221338E1,-2.856060791E-1,-1.747615814E0,-1.493893433E0,2.316775659E0
1.273222238E1,-1.110390930E0,-1.671723633E0,-1.407223663E0,2.451103091E0
1.274223037E1,-2.128274231E0,-1.626068573E0,-1.994901581E0,3.339653054E0
1.275223838E1,-3.072510681E0,-1.660796356E0,-2.625540161E0,4.369442477E0
1.276224638E1,-3.977528687E0,-1.571881256E0,-2.465672607E0,4.936708067E0
1.277225537E1,-4.719984741E0,-9.306147766E-1,-1.466500397E0,5.029405853E0
1.278226338E1,-5.313949585E0,8.367599487E-2,-1.475930786E-1,5.316657369E0
1.279227138E1,-6.391708374E0,8.425978088E-1,3.757186890E-2,6.447117081E0
1.280227937E1,-8.473429413E0,1.494941254E0,-8.707392883E-1,8.648239259E0
1.281228838E1,-1.218181778E1,2.251468048E0,-2.990780640E0,1.274404024E1
1.282229638E1,-1.682501221E1,2.866239624E0,-5.389841766E0,1.789823342E1
1.283230437E1,-1.786684570E1,2.302362213E0,-3.193758545E0,1.829549510E1
1.284231238E1,-1.573887085E1,1.302890625E0,1.465452576E0,1.586055267E1
1.285232138E1,-1.528441589E1,8.047265625E-1,5.031636658E0,1.611143450E1
1.286232937E1,-1.718516327E1,5.049000549E-1,5.854026489E0,1.816189381E1
1.287233738E1,-2.025827271E1,-1.422042847E-1,7.372019806E0,2.155839769E1
1.288234538E1,-2.423834610E1,-1.176104279E0,7.842940521E0,2.550279120E1
1.289235437E1,-2.903182800E1,-3.038082275E0,6.149512024E0,2.983108243E1
1.290236238E1,-3.134242310E1,-6.825206909E0,-6.936126251E0,3.281829950E1
1.291237038E1,-2.832529724E1,-1.037327866E1,-1.635439087E1,3.431316766E1
1.292237837E1,-2.271301804E1,-9.715696106E0,-7.241940308E0,2.574338048E1
1.293238638E1,-1.816846848E1,-5.675148468E0,7.970924377E-1,1.905087697E1
1.294239538E1,-1.526405823E1,-2.140399017E0,2.323767700E0,1.558758089E1
1.295240337E1,-1.305120987E1,-8.247848511E-2,1.182840271E0,1.310496062E1
1.296241138E1,-1.087757996E1,1.224304047E0,-5.501060486E-1,1.096007677E1
1.297241938E1,-8.895850983E0,1.780547333E0,-1.283580780E0,9.162646623E0
1.298242837E1,-7.226372681E0,1.587598572E0,-1.832489319E0,7.622266621E0
1.299243638E1,-5.963598633E0,1.470691681E0,-2.508483582E0,6.634751883E0
1.300244438E1,-4.517755280E0,1.505419464E0,-2.653232574E0,5.451242393E0
1.301245237E1,-3.003504181E0,1.450932770E0,-2.546055450E0,4.196265199E0
1.302246138E1,-1.716031494E0,1.010249176E0,-2.326911163E0,3.062659473E0
1.303246938E1,-6.376739502E-1,2.839595032E-1,-2.327659607E0,2.430074137E0
1.304247737E1,2.466870117E-1,-5.252577209E-1,-2.461631012E0,2.529106046E0
1.305248538E1,8.728349304E-1,-1.363065491E0,-2.629132690E0,3.087414299E0
1.306248971E1,1.049018555E0,-2.112107849E0,-2.594704285E0,3.506270072E0
1.307249771E1,9.788145447E-1,-2.661315765E0,-1.888023834E0,3.406657235E0
1.308250571E1,6.957531738E-1,-2.906805267E0,-8.083190918E-1,3.096283110E0
1.309251371E1,3.222798157E-1,-2.890040131E0,3.903881836E-1,2.934041440E0
1.310252271E1,-1.115180969E-1,-2.755020905E0,1.316063232E0,3.055257584E0
1.311253071E1,-5.134323120E-1,-2.612217865E0,1.587748260E0,3.099716028E0
1.312253871E1,-9.183403015E-1,-2.060764618E0,1.726659393E0,2.841030162E0
1.313254671E1,-1.169817352E0,-1.352138214E0,1.982178040E0,2.669415698E0
1.314255571E1,-1.339863739E0,-1.004111938E0,1.902843018E0,2.534617757E0
1.315256371E1,-1.756746826E0,-1.087638245E0,1.500779114E0,2.553713827E0
1.316257171E1,-2.508782959E0,-1.206042023E0,1.190474396E0,3.027500385E0
1.317257971E1,-3.578757935E0,-1.275796967E0,9.154962158E-1,3.908106904E0
1.318258771E1,-5.540578308E0,-1.437610474E0,2.805166626E-1,5.730918029E0
1.319259671E1,-9.723030853E0,-1.645977173E0,-1.812730408E0,1.002659271E1
1.320260471E1,-1.411175446E1,-1.731599121E0,-6.083050232E0,1.546426686E1
1.321261271E1,-1.702050568E1,-1.806144104E0,-8.266260223E0,1.900765183E1
1.322262071E1,-1.932256851E1,-1.989363098E0,-4.436623993E0,1.992493041E1
1.323262971E1,-2.511746796E1,-2.391726379E0,1.232387238E0,2.526116248E1
1.324263771E1,-3.449486755E1,-2.435884552E0,3.080294495E0,3.471768476E1
1.325264571E1,-4.219695099E1,-2.086960144E0,7.268884277E-1,4.225478011E1
1.326265371E1,-4.240891022E1,-1.947300568E0,-8.113128662E-1,4.246134564E1
1.327266271E1,-3.365167099E1,-1.221310272E0,2.360591125E-1,3.367465342E1
1.328267071E1,-2.355202332E1,5.502557373E-1,9.318122864E-1,2.357687125E1
1.329267871E1,-1.802746170E1,1.300794983E0,6.119274902E-1,1.808468684E1
1.330268671E1,-1.421653656E1,1.143921204E0,-3.604504395E-1,1.426703866E1
1.331269571E1,-1.133323242E1,9.042695618E-1,-4.779560852E-1,1.137929271E1
1.332270371E1,-8.626710663E0,5.697152710E-1,2.647993469E-1,8.649556696E0
1.333271171E1,-6.510710907E0,2.791694641E-1,3.915856934E-1,6.528447860E0
1.334271971E1,-4.978796539E0,9.385482788E-2,-2.432441711E-1,4.985618461E0
1.335272871E1,-2.901566162E0,3.650907898E-1,-8.948391724E-1,3.058286223E0
1.336273671E1,-8.255332947E-1,6.999444580E-1,-1.353485413E0,1.733017665E0
1.337274471E1,9.020242310E-1,5.117857361E-1,-2.051633606E0,2.298863373E0
1.338275271E1,1.930984497E0,-1.172062683E-1,-2.709515533E0,3.329251096E0
1.339276171E1,2.231709137E0,-9.981243896E-1,-3.312910767E0,4.117299566E0
1.340276971E1,1.973645782E0,-1.805096283E0,-3.238964539E0,4.200540626E0
1.341277771E1,1.331780548E0,-2.045795746E0,-2.300865326E0,3.354534381E0
1.342278571E1,7.382647705E-1,-2.016606445E0,-1.157393188E0,2.439527704E0
1.343279471E1,2.606080627E-1,-1.868115234E0,-2.290237427E-2,1.886344510E0
1.344280271E1,-1.167572021E-2,-1.585502930E0,4.957690430E-1,1.661247365E0
1.345281071E1,-7.005432129E-2,-1.320254517E0,5.270539856E-1,1.423293891E0
1.346281871E1,-4.834945679E-2,-1.253193970E0,2.770738220E-1,1.284368599E0
1.347282671E1,-1.621128845E-1,-1.432521057E0,-3.986210632E-1,1.495759312E0
1.348283571E1,-6.569837952E-1,-1.769320679E0,-1.456471252E0,2.383994941E0
1.349284371E1,-1.408570862E0,-2.246079254E0,-2.337688751E0,3.534647449E0
1.350285171E1,-2.333048401E0,-2.764451294E0,-3.058889008E0,4.737310182E0
1.351285971E1,-3.821403351E0,-3.390150146E0,-5.540129242E0,7.535865816E0
1.352286871E1,-6.558611298E0,-3.016078033E0,-6.702911224E0,9.850945525E0
1.353287671E1,-1.002180954E1,-1.804647217E0,-3.014581146E0,1.061984546E1
1.354288471E1,-1.323397980E1,-1.926493835E0,-1.526525574E0,1.346030758E1
1.355289271E1,-1.548933975E1,-3.123853912E0,-5.516328735E0,1.673642710E1
1.356290171E1,-1.541000473E1,-3.415297852E0,-4.966971130E0,1.654700297E1
1.357290971E1,-1.692141174E1,-2.476599884E0,1.473086700E0,1.716501403E1
1.358291771E1,-2.281615356E1,-1.698368225E0,5.876030731E0,2.362179196E1
1.359292571E1,-3.056000015E1,-1.482068024E0,6.304290161E0,3.123866529E1
1.360293471E1,-3.762770279E1,-1.297202454E0,-1.968406677E-1,3.765057101E1
1.361294271E1,-3.693883530E1,-1.801952820E0,-9.527088318E0,3.819018197E1
1.362295071E1,-3.211421814E1,-1.919308777E0,-5.111420746E0,3.257504221E1
1.363295871E1,-2.623878616E1,-1.287772064E0,3.349734192E0,2.648306960E1
1.364296771E1,-2.090747269E1,-9.945318604E-1,4.709506531E0,2.145439255E1
1.365297571E1,-1.658880341E1,-8.020321655E-1,1.771566010E0,1.670239804E1
1.366298371E1,-1.314341812E1,-8.403524780E-1,-1.945204926E0,1.331313090E1
1.367299171E1,-1.103340591E1,-1.387015686E0,-3.290607147E0,1.159689415E1
1.368300071E1,-9.977351990E0,-1.821562042E0,-2.529889069E0,1.045303686E1
1.369300871E1,-9.269623718E0,-1.875000916E0,-1.109043732E0,9.522159960E0
1.370301671E1,-8.609496460E0,-1.807341614E0,-5.498066711E-1,8.814317919E0
1.371302471E1,-7.349865875E0,-1.509311371E0,-6.399192810E-1,7.530474479E0
1.372303271E1,-5.593119049E0,-8.725355530E-1,-1.102457428E0,5.767123318E0
1.373304171E1,-3.836521912E0,-2.784210205E-1,-1.575623474E0,4.156802614E0
1.374304971E1,-2.255659332E0,2.332150269E-1,-2.060016174E0,3.063666906E0
1.375305771E1,-8.637039185E-1,6.671626282E-1,-2.538121948E0,2.762816218E0
1.376306571E1,2.854563904E-1,1.069974976E0,-2.954256592E0,3.154990303E0
1.377307471E1,1.115630035E0,1.238674164E0,-3.323388977E0,3.718044964E0
1.378308271E1,1.709295502E0,9.780661011E-1,-3.595822449E0,4.099785786E0
1.379309071E1,1.882784729E0,5.281018066E-1,-3.609743500E0,4.105364538E0
1.380309871E1,1.773511963E0,-1.167572021E-1,-3.219505005E0,3.677524902E0
1.381310771E1,1.406325531E0,-9.104067993E-1,-2.324815521E0,2.865546937E0
1.382311571E1,7.819738770E-1,-1.550475769E0,-1.418450317E0,2.242199714E0
1.383312371E1,-7.933502197E-2,-1.746118927E0,-6.054908752E-1,1.849822844E0
1.384313171E1,-9.862989807E-1,-1.545985107E0,3.204835510E-1,1.861602895E0
1.385314071E1,-1.788480835E0,-1.188678131E0,9.351054382E-1,2.342230044E0
1.386314871E1,-2.468816071E0,-8.478369141E-1,9.008267212E-1,2.761407070E0
1.387315671E1,-3.089275818E0,-3.829037476E-1,7.936495972E-1,3.212494364E0
1.388316471E1,-3.656596069E0,2.474354553E-1,1.024619293E0,3.805491271E0
1.389317371E1,-4.367617493E0,6.953041077E-1,1.333576813E0,4.619302705E0
1.390318171E1,-5.712870026E0,7.825726318E-1,1.105750580E0,5.871285055E0
1.391318971E1,-8.037386169E0,4.590953064E-1,-5.423222351E-1,8.068733379E0
1.392319771E1,-1.146929947E1,-6.409671021E-1,-4.895719299E0,1.248694264E1
1.393320671E1,-1.504281830E1,-2.225422211E0,-9.288783875E0,1.781910189E1
1.394321471E1,-1.845557144E1,-3.417992249E0,-7.557933197E0,2.023396013E1
1.395322271E1,-2.218147339E1,-3.782184906E0,7.433541870E-1,2.251389037E1
1.396323071E1,-2.878963165E1,-3.668571167E0,4.755011902E0,2.940937679E1
1.397323971E1,-3.547233490E1,-4.406087494E0,5.091961212E0,3.610579205E1
1.398324771E1,-3.733580978E1,-6.342460785E0,3.534001007E0,3.803522925E1
1.399325571E1,-3.272584625E1,-7.350764008E0,1.774410095E0,3.358814189E1
1.400326371E1,-2.503394165E1,-4.946314087E0,6.881190491E-1,2.552719658E1
1.401327171E1,-2.008403503E1,-2.466570740E0,1.015338593E0,2.026038862E1
1.402328071E1,-1.714340012E1,-1.382525024E0,1.622176666E0,1.727538712E1
1.403328871E1,-1.510104721E1,-1.279090118E0,2.182611237E0,1.531148230E1
1.404329671E1,-1.303534286E1,-9.565109253E-1,2.021246796E0,1.322575198E1
1.405330471E1,-1.101694016E1,-1.929487610E-1,-3.203338623E-2,1.101867622E1
1.406331475E1,-8.957672424E0,6.447093201E-1,-2.264041901E0,9.261826553E0
1.407332275E1,-6.894812164E0,1.137484589E0,-4.304897919E0,8.207585032E0
1.408333075E1,-5.063370667E0,1.720222778E0,-5.553301849E0,7.709477955E0
1.409333875E1,-3.808530121E0,2.076481934E0,-5.396577759E0,6.923852281E0
1.410334775E1,-3.103346558E0,1.854792938E0,-4.419409790E0,5.709833587E0
1.411335575E1,-2.747237091E0,1.327738953E0,-3.790866852E0,4.866299811E0
1.412336375E1,-2.531685333E0,6.248007202E-1,-3.450624390E0,4.325114478E0
1.413337175E1,-2.379451904E0,6.930587769E-2,-2.634671173E0,3.550786794E0
1.414338075E1,-2.031126251E0,-1.100212097E-1,-1.731599121E0,2.671331883E0
1.415338875E1,-1.431173859E0,-1.892065430E-1,-1.173858948E0,1.860645737E0
1.416339675E1,-7.599696350E-1,-3.999682617E-1,-1.062789917E0,1.366400697E0
1.417340475E1,-8.038284302E-2,-6.759942627E-1,-1.235081635E0,1.410268162E0
1.418341375E1,4.643344116E-1,-1.114432526E0,-1.453178101E0,1.889257233E0
1.419342175E1,6.489006042E-1,-1.589544525E0,-1.222807159E0,2.107838025E0
1.420342975E1,4.793032837E-1,-1.791474609E0,1.661544800E-2,1.854558974E0
1.421343775E1,2.439926147E-2,-1.645378418E0,1.137484589E0,2.000434116E0
1.422344675E1,-5.920188904E-1,-1.219963074E0,1.847009125E0,2.291339995E0
1.423345475E1,-1.014440460E0,-6.741979980E-1,2.262545013E0,2.569580185E0
1.424346275E1,-1.258582764E0,-2.284249878E-1,2.134112091E0,2.488100272E0
1.425347075E1,-1.709594879E0,-1.299298096E-1,1.847607880E0,2.520565667E0
1.426347975E1,-2.445015564E0,-2.031275940E-1,1.691781921E0,2.980182544E0
1.427348775E1,-3.333717499E0,-3.936813354E-1,1.773212585E0,3.796437834E0
1.428349575E1,-4.468956757E0,-6.333329773E-1,1.974094849E0,4.926432342E0
1.429350375E1,-6.446793823E0,-9.862989807E-1,2.458637238E0,6.969851745E0
1.430351275E1,-1.042881317E1,-1.670077057E0,3.935166779E0,1.127097330E1
1.431352075E1,-1.480181946E1,-1.960772552E0,2.974314880E0,1.522448808E1
1.432352875E1,-1.842668152E1,-1.434467010E0,-2.689307556E0,1.867706247E1
1.433353675E1,-2.553584793E1,-1.475631409E0,-1.286230270E1,2.863033092E1
1.434354475E1,-3.326457596E1,-2.605481873E0,-1.180355438E1,3.539271741E1
1.435355375E1,-3.765793991E1,-4.029320984E0,-1.906734924E0,3.792085843E1
1.436356175E1,-3.806539261E1,-4.403991852E0,1.682351532E0,3.835621938E1
1.437356975E1,-3.448319183E1,-4.658612366E0,3.294349365E0,3.495205181E1
1.438357775E1,-2.683020630E1,-5.353617096E0,3.629951477E0,2.759887197E1
1.439358675E1,-2.024210632E1,-3.883973236E0,1.555714874E0,2.066998707E1
1.440359475E1,-1.656679916E1,-1.086740112E0,-1.833088074E0,1.670329460E1
1.441360275E1,-1.481544113E1,1.184337158E0,-2.932551727E0,1.514925114E1
1.442361075E1,-1.398167496E1,2.036365356E0,-1.220711517E0,1.418182482E1
1.443361975E1,-1.320628738E1,2.006277924E0,3.341052246E-1,1.336199101E1
1.444362775E1,-1.224453735E1,2.079475708E0,2.845582581E-1,1.242311908E1
1.445363575E1,-1.052985306E1,2.419119415E0,-1.231638794E0,1.087413805E1
1.446364375E1,-8.381370850E0,2.762655029E0,-3.243604889E0,9.402160007E0
1.447365275E1,-5.870043182E0,2.844983826E0,-4.631668396E0,8.000230751E0
1.448366075E1,-3.313808899E0,2.455942841E0,-4.291875000E0,5.952577229E0
1.449366875E1,-1.507215729E0,1.931732941E0,-3.531905365E0,4.298563355E0
1.450367675E1,-4.257147217E-1,1.097667389E0,-2.475252686E0,2.740982046E0
1.451368575E1,-6.825805664E-2,3.103047180E-1,-1.447040863E0,1.481511201E0
1.452369375E1,4.924758911E-2,-1.080752563E-1,-9.779164124E-1,9.851020737E-1
1.453370175E1,3.382965088E-2,-3.197351074E-1,-7.860154724E-1,8.492321868E-1
1.454370975E1,1.794767761E-1,-6.236032104E-1,-4.209246826E-1,7.734794540E-1
1.455371875E1,3.950285339E-1,-8.500822449E-1,-9.759704590E-2,9.424502900E-1
1.456372675E1,4.546046448E-1,-8.708889771E-1,-1.447489929E-1,9.930081895E-1
1.457373475E1,6.454577637E-1,-1.195863190E0,-4.709207153E-1,1.438217930E0
1.458374275E1,7.902067566E-1,-1.620230713E0,-8.339158630E-1,1.986199876E0
1.459375175E1,8.403524780E-1,-2.085762634E0,-1.131047974E0,2.517114930E0
1.460375975E1,6.903643799E-1,-2.613565063E0,-1.375938721E0,3.033237986E0
1.461376775E1,4.064048767E-1,-3.045117645E0,-1.717528381E0,3.519632103E0
1.462377575E1,-2.707868958E-1,-3.261717224E0,-2.189945984E0,3.938018309E0
1.463378475E1,-1.061891785E0,-2.974015503E0,-1.828747101E0,3.649205165E0
1.464379275E1,-1.802850952E0,-2.655627594E0,-1.765428772E0,3.663245586E0
1.465380075E1,-3.245850220E0,-2.933150482E0,-3.301833801E0,5.480969061E0
1.466380875E1,-6.474186859E0,-3.624113617E0,-5.161267090E0,9.038139906E0
1.467381775E1,-1.020278320E1,-3.952380981E0,-3.512445831E0,1.149153498E1
1.468382575E1,-1.229438370E1,-3.410956879E0,-1.366508331E0,1.283175134E1
1.469383375E1,-1.373618546E1,-2.530338135E0,-2.114203491E0,1.412640288E1
1.470384175E1,-1.607956238E1,-1.544488220E0,-1.613794098E0,1.623397984E1
1.471384975E1,-2.130564468E1,-8.062234497E-1,2.906655579E0,2.151811187E1
1.472385875E1,-2.797203186E1,-5.179229736E-1,4.036206665E0,2.826647793E1
1.473386675E1,-3.430955292E1,1.889071655E-1,-2.633323975E0,3.441097939E1
1.474387475E1,-3.583158783E1,6.682104492E-1,-6.378984833E0,3.640110766E1
1.475388275E1,-3.385734329E1,7.274871826E-2,-9.623487854E-1,3.387109538E1
1.476389175E1,-2.998609360E1,-9.877958679E-1,3.804338837E0,3.024259486E1
1.477389975E1,-2.378748367E1,-2.244582367E0,2.365979919E0,2.401000605E1
1.478390775E1,-1.886197632E1,-2.962639160E0,1.347198486E-2,1.909323343E1
1.479391575E1,-1.605366623E1,-3.059038696E0,-7.484436035E-3,1.634252040E1
1.480392475E1,-1.456980194E1,-2.846480713E0,7.704478455E-1,1.486523363E1
1.481393275E1,-1.362302078E1,-2.585124207E0,8.951385498E-1,1.389499318E1
1.482394075E1,-1.264884659E1,-2.253414001E0,3.652404785E-1,1.285319397E1
1.483394875E1,-1.141151962E1,-1.857786713E0,-8.572673035E-1,1.159349209E1
1.484395775E1,-9.714049530E0,-1.551822968E0,-1.891616364E0,1.001744105E1
1.485396575E1,-8.046816559E0,-1.397643585E0,-2.571053467E0,8.562416730E0
1.486397375E1,-6.194119263E0,-1.112336884E0,-3.260519714E0,7.087693249E0
1.487398175E1,-4.105063477E0,-7.039860535E-1,-3.496279449E0,5.437932741E0
1.488399075E1,-2.212848358E0,-3.996688843E-1,-3.857178955E0,4.464780237E0
1.489399875E1,-7.394622803E-1,-1.005908203E-1,-4.136498108E0,4.203277242E0
1.490400675E1,3.182382202E-1,2.918930054E-2,-4.041745148E0,4.054359557E0
1.491401475E1,9.877958679E-1,-2.151026917E-1,-3.607348480E0,3.746327922E0
1.492402375E1,1.522334290E0,-7.888595581E-1,-3.066972198E0,3.513704535E0
1.493403175E1,1.728156281E0,-1.437760162E0,-2.626138916E0,3.456918284E0
1.494403975E1,1.551074524E0,-1.935325470E0,-2.349663849E0,3.416465580E0
1.495404775E1,1.243464203E0,-2.405048676E0,-1.961221619E0,3.343180012E0
1.496405675E1,4.679269409E-1,-2.709964600E0,-1.678309937E0,3.221736798E0
1.497406475E1,-7.774832153E-1,-2.700234833E0,-1.849853210E0,3.364179722E0
1.498407275E1,-1.713337097E0,-2.602488098E0,-1.961221619E0,3.681692348E0
1.499408075E1,-2.307301941E0,-2.461930389E0,-1.505419464E0,3.694730200E0
1.500408975E1,-2.757266235E0,-2.248025208E0,-8.039781189E-1,3.647261334E0
1.501409775E1,-3.131038971E0,-1.882934418E0,-1.568737793E-1,3.656973673E0
1.502410575E1,-3.409759369E0,-1.265019379E0,3.442840576E-2,3.637020525E0
1.503411375E1,-3.961362305E0,-3.534150696E-1,-9.740245056E-1,4.094632738E0
1.504412275E1,-5.190007324E0,6.180647278E-1,-2.408641205E0,5.754974586E0
1.505413075E1,-7.390730896E0,1.024469604E0,-3.112627258E0,8.084608191E0
1.506413846E1,-1.032343231E1,-1.252894592E-1,-1.652713165E0,1.045564025E1
1.507414646E1,-1.219020035E1,-1.911225586E0,-2.844085693E-2,1.233914813E1
1.508415546E1,-1.315569260E1,-2.370021515E0,2.237846375E-1,1.336934289E1
1.509416346E1,-1.437356003E1,-1.417552185E0,5.387297058E-1,1.445333566E1
1.510417146E1,-1.819526276E1,-6.104306030E-1,1.824855194E0,1.829672946E1
1.511417946E1,-2.468337067E1,2.095642090E-3,2.113305359E0,2.477367255E1
1.512418846E1,-3.110052612E1,2.954855347E-1,5.066963196E-1,3.110605693E1
1.513419646E1,-3.585688522E1,-7.177574158E-1,-3.855233002E0,3.607068360E1
1.514420446E1,-3.573773300E1,-2.316133575E0,-6.697821808E0,3.643364999E1
1.515421246E1,-2.995660492E1,-2.824626160E0,-2.317331085E0,3.017858039E1
1.516422046E1,-2.250405258E1,-1.591191101E0,1.703008575E0,2.262442286E1
1.517422946E1,-1.773901154E1,-6.412664795E-1,1.340163116E0,1.780111767E1
1.518423746E1,-1.438763077E1,-4.730163574E-1,-7.213499451E-1,1.441346625E1
1.519424546E1,-1.184187469E1,-4.740641785E-1,-1.596729584E0,1.195843963E1
1.520425346E1,-1.030172745E1,-4.605921936E-1,-1.049617310E0,1.036529932E1
1.521426246E1,-9.107061768E0,-4.546046448E-1,-4.834945679E-1,9.131210567E0
1.522427046E1,-8.081095276E0,-3.095562744E-1,-6.391708374E-1,8.112241694E0
1.523427846E1,-6.841672668E0,-5.164260864E-2,-1.177301788E0,6.942419705E0
1.524428646E1,-5.312901764E0,1.836680603E-1,-1.277144165E0,5.467335396E0
1.525429546E1,-3.747008057E0,3.453318787E-1,-1.313368835E0,3.985506390E0
1.526430346E1,-2.234852600E0,5.110372925E-1,-1.653311920E0,2.826511200E0
1.527431146E1,-9.297166443E-1,5.926176453E-1,-1.991159363E0,2.276023796E0
1.528431946E1,1.288819885E-1,3.002755737E-1,-2.059417419E0,2.085180111E0
1.529432846E1,9.300160217E-1,-2.607577515E-1,-1.935774536E0,2.163364847E0
1.530433646E1,1.317709808E0,-7.758366394E-1,-1.683848419E0,2.274560865E0
1.531434446E1,1.328637085E0,-1.216819611E0,-1.732197876E0,2.499287088E0
1.532435246E1,1.200653229E0,-1.760638733E0,-1.688638458E0,2.718991866E0
1.533436146E1,7.246430969E-1,-2.078278198E0,-1.056203613E0,2.441293501E0
1.534436946E1,8.187973022E-2,-2.118394775E0,-2.767744446E-1,2.137967448E0
1.535437746E1,-6.286926270E-1,-2.182162170E0,1.833686829E-1,2.278313023E0
1.536438546E1,-1.504521332E0,-2.297721863E0,2.258802795E-1,2.755745289E0
1.537439446E1,-2.462529144E0,-2.411335602E0,1.616638184E-2,3.446570835E0
1.538440246E1,-3.364553375E0,-2.372416534E0,-4.775070190E-2,4.117142183E0
1.539441046E1,-4.240831146E0,-1.902094574E0,5.182223511E-1,4.676661949E0
1.540441846E1,-5.125192108E0,-1.482367401E0,6.147715759E-1,5.370563411E0
1.541442746E1,-6.777905273E0,-1.722767487E0,-1.660347290E0,7.187814747E0
1.542443546E1,-9.945318604E0,-2.639610901E0,-5.604046326E0,1.171675053E1
1.543444346E1,-1.288415726E1,-3.149001617E0,-3.178490295E0,1.363893397E1
1.544445146E1,-1.496872238E1,-2.731669464E0,-8.599617004E-1,1.524021660E1
1.545446046E1,-1.651231247E1,-1.670975189E0,-3.475323029E0,1.695660613E1
1.546446846E1,-1.727003677E1,6.316864014E-2,-4.421655121E0,1.782720378E1
1.547447646E1,-1.924592789E1,1.203347626E0,-1.658551025E-1,1.928422396E1
1.548448446E1,-2.129037643E1,1.507664795E0,3.975433044E0,2.171076345E1
1.549449346E1,-2.347208954E1,1.596430206E0,3.894002380E0,2.384640080E1
1.550450146E1,-2.607727203E1,1.409618683E0,1.496288452E0,2.615817311E1
1.551450946E1,-2.770124496E1,1.922003174E-1,-6.563850403E-1,2.770968702E1
1.552451746E1,-2.688933334E1,-2.248773651E0,-2.291584625E0,2.708033587E1
1.553452646E1,-2.291584625E1,-3.943699036E0,-2.621947632E0,2.340007224E1
1.554453446E1,-1.877126495E1,-4.218228149E0,-1.036744080E0,1.926729548E1
1.555454246E1,-1.582224747E1,-3.766916656E0,2.772235107E-1,1.626683832E1
1.556455046E1,-1.377166168E1,-2.874472504E0,3.588038635E-1,1.407302376E1
1.557455946E1,-1.212583420E1,-1.889820099E0,-1.136137390E-1,1.227274147E1
1.558456746E1,-1.064900528E1,-1.059197388E0,-6.985972595E-1,1.072432985E1
1.559457546E1,-9.423653412E0,-5.025050354E-1,-1.067879333E0,9.497269145E0
1.560458346E1,-8.149802399E0,-3.164419556E-1,-1.520687714E0,8.296499610E0
1.561459246E1,-6.805148621E0,-3.080593872E-1,-1.998943176E0,7.099346601E0
1.562460046E1,-5.757327576E0,-3.365002441E-1,-2.243983612E0,6.188337069E0
1.563460846E1,-4.581073608E0,-1.339714050E-1,-1.944157104E0,4.978346170E0
1.564461646E1,-3.413501587E0,1.137634277E-1,-1.627715149E0,3.783436508E0
1.565462546E1,-2.219584351E0,3.643423462E-1,-1.489402771E0,2.697706554E0
1.566463346E1,-1.182540894E0,4.754113770E-1,-1.276395721E0,1.803775202E0
1.567464146E1,-1.520837402E-1,2.839595032E-1,-1.260229340E0,1.300746114E0
1.568464946E1,7.432044983E-1,3.293151855E-3,-1.449136505E0,1.628606884E0
1.569465846E1,1.420695648E0,-2.251318359E-1,-1.766925659E0,2.278395653E0
1.570466646E1,1.730401611E0,-3.881428528E-1,-2.195634155E0,2.822366729E0
1.571467446E1,1.859882355E0,-4.487667847E-1,-2.328108673E0,3.013410691E0
1.572468246E1,1.814227295E0,-4.406835938E-1,-1.832639008E0,2.616139989E0
1.573469146E1,1.561852112E0,-2.912942505E-1,-8.970845032E-1,1.824553361E0
1.574469946E1,1.034798126E0,-3.210823059E-1,2.628533936E-1,1.114895921E0
1.575470746E1,4.805007935E-2,-4.206253052E-1,1.343605957E0,1.408726881E0
1.576471546E1,-1.135538635E0,-4.426295471E-1,1.720821533E0,2.108695250E0
1.577472446E1,-2.066752167E0,-6.917115784E-1,1.536554718E0,2.666632676E0
1.578473246E1,-2.974314880E0,-9.431886292E-1,1.370849304E0,3.408134624E0
1.579474046E1,-4.036356354E0,-1.039737854E0,1.330583038E0,4.375348974E0
1.580474846E1,-5.682632904E0,-1.280886383E0,5.716612244E-1,5.853185731E0
1.581475746E1,-9.398655396E0,-2.291584625E0,-4.084107056E0,1.050076253E1
1.582476546E1,-1.435963898E1,-4.057013397E0,-1.390712997E1,2.039771687E1
1.583477346E1,-1.862307312E1,-6.593788147E0,-2.096240845E1,2.880485137E1
1.584478146E1,-2.078158447E1,-8.128696289E0,-1.274853928E1,2.569971226E1
1.585479046E1,-1.887799301E1,-5.297932892E0,2.911295929E0,1.982226922E1
1.586479846E1,-1.980920654E1,-2.418071594E0,1.044812302E1,2.252587420E1
1.587480646E1,-2.436288712E1,-1.938618622E0,9.722881165E0,2.630290723E1
1.588481446E1,-3.036779984E1,-2.142045593E0,2.901117096E0,3.058117242E1
1.589482346E1,-3.259965866E1,-3.888912964E-1,-1.344324463E1,3.526485230E1
1.590483146E1,-3.186648331E1,2.312690735E0,-1.118174744E1,3.385044715E1
1.591483946E1,-2.920037750E1,2.565964050E0,2.481988678E0,2.941779199E1
1.592484746E1,-2.433205124E1,2.055226135E0,3.770509186E0,2.470808393E1
1.593485646E1,-1.931897598E1,2.586471405E0,-1.358574829E0,1.953863846E1
1.594486446E1,-1.560983917E1,1.881138153E0,-3.765719147E0,1.616744879E1
1.595487246E1,-1.344384338E1,4.831951904E-1,-3.116668854E0,1.380883874E1
1.596488046E1,-1.234707413E1,-1.141376495E0,-1.952689362E0,1.255252865E1
1.597488946E1,-1.150896698E1,-2.716850281E0,-1.214723969E0,1.188752080E1
1.598489746E1,-1.056922119E1,-3.796105957E0,-7.734416199E-1,1.125686764E1
1.599490546E1,-9.442514191E0,-4.243226166E0,-1.364861755E0,1.044169000E1
1.600491346E1,-7.779023438E0,-4.226910095E0,-2.620151367E0,9.232830973E0
1.601492246E1,-6.242768097E0,-4.197571106E0,-2.879412231E0,8.054984264E0
1.602493046E1,-4.756808167E0,-3.991749115E0,-2.742147675E0,6.788273624E0
1.603493846E1,-3.520529022E0,-3.413651276E0,-2.542013855E0,5.523492923E0
1.604494646E1,-2.654579773E0,-2.573747864E0,-2.376009064E0,4.395041628E0
1.605495546E1,-1.811682587E0,-1.754351807E0,-2.205663300E0,3.350357391E0
1.606496275E1,-1.131347351E0,-1.114282837E0,-1.634301453E0,2.278708912E0
1.607497075E1,-4.550537109E-1,-6.821315002E-1,-1.165925446E0,1.425397982E0
1.608497875E1,4.131408691E-2,-4.358935547E-1,-8.937913513E-1,9.952753511E-1
1.609498775E1,3.243754578E-1,-4.348457336E-1,-6.950047302E-1,8.816699069E-1
1.610499575E1,5.562432861E-1,-4.474195862E-1,-6.409671021E-1,9.593902779E-1
1.611500375E1,7.381150818E-1,-4.185296631E-1,-4.572990417E-1,9.639000811E-1
1.612501175E1,9.000782776E-1,-3.360511780E-1,-2.763253784E-1,9.997134663E-1
1.613502075E1,9.723779297E-1,-2.317181396E-1,-1.484912109E-1,1.010574972E0
1.614502875E1,8.714877319E-1,-7.454498291E-2,1.275347900E-1,8.839190823E-1
1.615503675E1,6.239025879E-1,2.544708252E-1,4.231700134E-1,7.956649422E-1
1.616504475E1,-1.037342834E-1,6.378236389E-1,8.813671875E-1,1.092880558E0
1.617505375E1,-1.109193420E0,7.015910339E-1,1.278790741E0,1.832442573E0
1.618506175E1,-2.296374664E0,4.472698975E-1,9.776170349E-1,2.535571341E0
1.619506975E1,-3.988306274E0,7.873626709E-2,1.362167358E-2,3.989106653E0
1.620507775E1,-6.022126923E0,-8.646020508E-1,-9.324110413E-1,6.154911838E0
1.621508675E1,-8.079149323E0,-1.889969788E0,-6.104306030E-1,8.319691406E0
1.622509475E1,-1.028945297E1,-2.304906921E0,1.956431580E-1,1.054626544E1
1.623510275E1,-1.334445007E1,-2.240840149E0,1.169517975E0,1.358173349E1
1.624511075E1,-1.883099075E1,-2.921774139E0,8.548722839E-1,1.907547597E1
1.625511975E1,-2.681089645E1,-4.518653412E0,-3.939507751E0,2.747293429E1
1.626512775E1,-3.268378372E1,-5.371879120E0,-8.185578003E0,3.411877036E1
1.627513575E1,-3.598771317E1,-4.879103851E0,-3.813619537E0,3.651663795E1
1.628514375E1,-3.632226746E1,-4.223018188E0,6.782395935E-1,3.657322798E1
1.629515275E1,-3.195899094E1,-3.946692810E0,-2.567161560E-1,3.220278542E1
1.630516075E1,-2.371683060E1,-1.488654327E0,-1.799707489E0,2.383155665E1
1.631516875E1,-1.840048599E1,5.643264771E-1,-1.333427124E0,1.845736647E1
1.632517675E1,-1.527124329E1,1.269959106E0,-7.378157043E-1,1.534170915E1
1.633518575E1,-1.312141388E1,1.334175568E0,-2.007325745E-1,1.319059590E1
1.634519375E1,-1.158530823E1,1.449435883E0,1.369651794E-1,1.167642884E1
1.635520175E1,-1.061846878E1,1.313069458E0,-1.395098877E-1,1.070025671E1
1.636520975E1,-9.511969757E0,9.470805359E-1,-3.484753418E-1,9.565352334E0
1.637521875E1,-8.168663177E0,6.891668701E-1,2.357597351E-1,8.201072597E0
1.638522675E1,-6.450236664E0,6.242019653E-1,5.718109131E-1,6.505547543E0
1.639523475E1,-4.673581238E0,5.704637146E-1,6.382727051E-1,4.751334811E0
1.640524275E1,-3.026855621E0,3.610491943E-1,3.408412170E-1,3.067308952E0
1.641525175E1,-1.473835144E0,-8.831634521E-2,-1.175056458E-1,1.481147321E0
1.642525975E1,-1.838177490E-1,-5.763015747E-1,-4.987628174E-1,7.840132766E-1
1.643526775E1,7.334747314E-1,-1.138981476E0,-8.502319336E-1,1.599424373E0
