"Time (s)","Acceleration x (m/s^2)","Acceleration y (m/s^2)","Acceleration z (m/s^2)","Absolute acceleration (m/s^2)"
1.663750038E-3,-7.006779327E0,1.378034363E0,7.204967194E0,1.014423420E1
1.174175006E-2,-6.917564850E0,1.334624634E0,7.086862793E0,9.992874992E0
2.182074997E-2,-6.862778778E0,1.296154633E0,6.911726990E0,9.825971676E0
3.189975000E-2,-6.836583252E0,1.332079926E0,6.714437256E0,9.674552969E0
4.197775002E-2,-6.851552124E0,1.410516815E0,6.527026978E0,9.567413724E0
5.205675005E-2,-6.898105316E0,1.464404755E0,6.383924561E0,9.512246372E0
6.213574996E-2,-6.854545898E0,1.452279968E0,6.276148682E0,9.406591245E0
7.221374998E-2,-6.846013641E0,1.409918060E0,6.298003235E0,9.408539550E0
8.229275001E-2,-6.974745941E0,1.345402222E0,6.419700165E0,9.574431486E0
9.237175004E-2,-7.039261780E0,1.278191986E0,6.523434448E0,9.681951155E0
1.024497501E-1,-7.030579834E0,1.317410431E0,6.580914917E0,9.719725520E0
1.125287500E-1,-7.106771393E0,1.467997284E0,6.627318420E0,9.827642907E0
1.226077500E-1,-7.131919098E0,1.624421997E0,6.716083832E0,9.930196316E0
1.326857500E-1,-7.074588318E0,1.762584686E0,6.835236053E0,9.993845934E0
1.427647501E-1,-6.947053528E0,1.796863403E0,6.897805939E0,9.953391260E0
1.528437500E-1,-6.997348938E0,1.643133087E0,7.015760651E0,1.004408662E1
1.629217500E-1,-7.255561981E0,1.411115570E0,7.068151703E0,1.022708147E1
1.730007500E-1,-7.368427277E0,1.129102020E0,6.924450531E0,1.017431113E1
1.830797500E-1,-7.498656464E0,9.812095642E-1,6.774761810E0,1.015332549E1
1.931577501E-1,-7.311695251E0,8.346643066E-1,6.487658844E0,9.810569261E0
2.032367500E-1,-6.968309326E0,7.002438354E-1,6.390510864E0,9.480838855E0
2.133157500E-1,-6.614295502E0,6.062393188E-1,6.502927094E0,9.295401652E0
2.233937500E-1,-6.494245148E0,4.742138672E-1,6.755601654E0,9.382870165E0
2.334727501E-1,-6.508315887E0,1.878593445E-1,6.832391968E0,9.437957768E0
2.435507500E-1,-6.566694489E0,-3.483256531E-1,6.558611298E0,9.287528704E0
2.536297500E-1,-6.644083557E0,-1.011296997E0,6.284830627E0,9.201394674E0
2.637087500E-1,-6.605014801E0,-1.657054138E0,6.095474396E0,9.139302875E0
2.737867500E-1,-6.455625458E0,-2.059118042E0,6.041736145E0,9.078416316E0
2.838657501E-1,-6.288273468E0,-2.242636414E0,5.929469604E0,8.929188714E0
2.939447500E-1,-6.409820709E0,-2.269281006E0,5.893244934E0,8.998098336E0
3.040230001E-1,-6.733597412E0,-2.147434387E0,5.818550262E0,9.154689274E0
3.141020000E-1,-7.161258087E0,-2.135159912E0,5.705086212E0,9.401624005E0
3.241810000E-1,-7.590415649E0,-2.101779327E0,5.666765900E0,9.702789384E0
3.342590000E-1,-8.063581696E0,-2.026934967E0,5.734425201E0,1.010017067E1
3.443380001E-1,-8.303981781E0,-2.070494385E0,5.655389557E0,1.025799646E1
3.544170000E-1,-8.291258240E0,-2.198478241E0,5.668113098E0,1.028133142E1
3.644950000E-1,-8.115373993E0,-2.338137817E0,5.762716370E0,1.022423999E1
3.745740000E-1,-7.822882233E0,-2.568508759E0,5.871390381E0,1.011276167E1
3.846530000E-1,-7.433691559E0,-2.860252075E0,5.914650421E0,9.920882104E0
3.947310001E-1,-6.763984222E0,-3.168610840E0,5.875881042E0,9.503554874E0
4.048100000E-1,-6.333629150E0,-3.543431396E0,5.704786835E0,9.231216448E0
4.148890000E-1,-6.091432800E0,-3.749403076E0,5.595963135E0,9.081760864E0
4.249670000E-1,-5.977669373E0,-3.824846191E0,5.602699127E0,9.041693261E0
4.350460001E-1,-6.004912720E0,-3.818858643E0,5.710774384E0,9.124450787E0
4.451250000E-1,-6.061495056E0,-3.743415527E0,5.821244659E0,9.200096277E0
4.552030000E-1,-6.091432800E0,-3.760929108E0,6.036047974E0,9.363974394E0
4.652820000E-1,-6.019282837E0,-3.729793854E0,6.217770081E0,9.423576436E0
4.753610000E-1,-5.777834930E0,-3.659290466E0,6.170618134E0,9.211422873E0
4.854390001E-1,-5.722899170E0,-3.667373657E0,6.256838837E0,9.238465061E0
4.955180000E-1,-5.733976135E0,-3.636537781E0,6.505920868E0,9.403717121E0
5.055970000E-1,-5.616769867E0,-3.508404236E0,6.666087799E0,9.396474369E0
5.156750000E-1,-5.794600067E0,-3.350033569E0,6.815327454E0,9.552423941E0
5.257540001E-1,-6.078110504E0,-3.057092743E0,6.903194733E0,9.692437302E0
5.358330000E-1,-6.536307678E0,-2.677781525E0,7.027885437E0,9.964186152E0
5.459110000E-1,-6.625073090E0,-2.669548645E0,7.018155670E0,1.001362035E1
5.559900000E-1,-6.832391968E0,-2.114802246E0,6.968459015E0,9.985659196E0
5.660690001E-1,-7.398365021E0,-1.893712006E0,7.072492676E0,1.040875126E1
5.761470000E-1,-6.771917725E0,-2.169288940E0,7.325765991E0,1.020938448E1
5.862260000E-1,-7.169790344E0,-1.747017059E0,7.328610077E0,1.040031191E1
5.963050000E-1,-7.260202332E0,-1.446891174E0,7.564220123E0,1.058401899E1
6.063830000E-1,-7.353458405E0,-1.086291046E0,7.713908844E0,1.071250523E1
6.164620001E-1,-7.657476196E0,-7.426057434E-1,7.841443634E0,1.098529213E1
6.265410000E-1,-7.761509857E0,-5.084925842E-1,8.020471344E0,1.117262550E1
6.366190000E-1,-7.962990875E0,-3.993695068E-1,8.122559052E0,1.138176986E1
6.466980000E-1,-8.270301819E0,-2.213896179E-1,8.224197693E0,1.166551899E1
6.567770001E-1,-8.471034393E0,2.514770508E-2,8.099357300E0,1.172001044E1
6.668550000E-1,-8.649463348E0,2.733316040E-1,7.746840363E0,1.161470886E1
6.769340000E-1,-8.783734131E0,6.598278809E-1,7.349865875E0,1.147213522E1
6.870130000E-1,-8.964109039E0,1.151705017E0,7.028334503E0,1.144898079E1
6.970910000E-1,-9.270372162E0,1.591191101E0,7.090155945E0,1.177887942E1
7.071700001E-1,-9.512269135E0,2.095193024E0,7.276817780E0,1.215833767E1
7.172480000E-1,-9.694889374E0,2.590213623E0,7.274871826E0,1.239450873E1
7.273270000E-1,-1.002016296E1,2.935994568E0,7.335944824E0,1.276087052E1
7.374060000E-1,-1.026984375E1,3.136727142E0,7.283553772E0,1.297531901E1
7.474840001E-1,-1.022837997E1,3.062481537E0,7.063810730E0,1.280218622E1
7.575630000E-1,-1.023391846E1,2.898572388E0,6.962471466E0,1.271262435E1
7.676420000E-1,-1.044842239E1,2.801723785E0,7.007527771E0,1.288893448E1
7.777200000E-1,-1.073477692E1,2.797532501E0,7.062613220E0,1.315074633E1
7.877990000E-1,-1.121991806E1,2.743045807E0,7.022796021E0,1.351778553E1
7.978780001E-1,-1.180759598E1,2.554887085E0,6.993756409E0,1.395920483E1
8.079560000E-1,-1.247281265E1,2.387984161E0,7.099286957E0,1.454899994E1
8.180350000E-1,-1.303923477E1,2.278262329E0,7.360344086E0,1.514552038E1
8.281140000E-1,-1.335148544E1,2.193538513E0,7.580685883E0,1.550937050E1
8.381920001E-1,-1.361224319E1,2.313139801E0,7.698490906E0,1.580855916E1
8.482710000E-1,-1.371223526E1,2.445464630E0,7.669301605E0,1.590043648E1
8.583500000E-1,-1.361793137E1,2.589016113E0,7.403454437E0,1.571503092E1
8.684280000E-1,-1.347303268E1,2.684218140E0,7.128625946E0,1.547723957E1
8.785070000E-1,-1.318652847E1,2.631378021E0,6.924899597E0,1.512491051E1
8.885860000E-1,-1.295780411E1,2.454296265E0,6.796616364E0,1.483651750E1
8.986640000E-1,-1.272922943E1,2.171833649E0,6.774462433E0,1.458230039E1
9.087430000E-1,-1.252206024E1,1.720971222E0,6.793772278E0,1.434988071E1
9.188220000E-1,-1.208871140E1,1.368005219E0,6.775210876E0,1.392522402E1
9.289000001E-1,-1.163455582E1,1.061592407E0,6.712790680E0,1.347410206E1
9.389790000E-1,-1.141062149E1,8.655001831E-1,6.732100525E0,1.327676733E1
9.490580000E-1,-1.114103210E1,8.684939575E-1,6.714437256E0,1.303689172E1
9.591360000E-1,-1.077130096E1,8.997789001E-1,6.562652893E0,1.264511524E1
9.692150000E-1,-1.078806610E1,9.069639587E-1,6.437812500E0,1.259564939E1
9.792940000E-1,-1.084644470E1,8.897497559E-1,6.549180908E0,1.270152699E1
9.893720000E-1,-1.076890594E1,8.068222046E-1,6.525081024E0,1.261732855E1
9.994510000E-1,-1.068792435E1,7.083270264E-1,6.440955963E0,1.249877465E1
1.009530000E0,-1.037492523E1,6.120771790E-1,6.063441010E0,1.203241576E1
1.019608000E0,-1.012569351E1,3.858975220E-1,5.620063019E0,1.158722117E1
1.029687000E0,-9.965526581E0,2.689906311E-1,5.312752075E0,1.129643353E1
1.039766000E0,-9.673633575E0,2.010319519E-1,5.146298218E0,1.095919640E1
1.049844000E0,-9.227860565E0,3.802093506E-2,4.995861053E0,1.049349722E1
1.059923000E0,-8.931327209E0,-1.570234680E-1,5.001399536E0,1.023754167E1
1.070002000E0,-8.580456848E0,-3.528163147E-1,5.179080048E0,1.002853874E1
1.080080000E0,-8.351283417E0,-4.990621948E-1,5.477409668E0,9.999750719E0
1.090159000E0,-8.308771820E0,-6.551875305E-1,5.767356720E0,1.013545082E1
1.100237000E0,-8.326135712E0,-8.813671875E-1,5.858068085E0,1.021852757E1
1.110316000E0,-8.276588745E0,-1.076411591E0,5.654192047E0,1.008119392E1
1.120395000E0,-8.031697998E0,-1.251248016E0,5.190606079E0,9.644489919E0
1.130473000E0,-7.819589081E0,-1.465153198E0,4.764142914E0,9.273063409E0
1.140552000E0,-7.636968842E0,-1.630110168E0,4.496798859E0,9.011201486E0
1.150631000E0,-7.424859924E0,-1.730850677E0,4.446503448E0,8.825858705E0
1.160709000E0,-7.246281281E0,-1.805844727E0,4.563709717E0,8.751977717E0
1.170788000E0,-7.034172363E0,-1.906585236E0,4.704267426E0,8.674374912E0
1.180867000E0,-6.880292358E0,-2.007625122E0,4.737348633E0,8.591359243E0
1.190945000E0,-6.776258698E0,-2.124232635E0,4.671784973E0,8.500330644E0
1.201024000E0,-6.579418030E0,-2.241139526E0,4.376748505E0,8.213852656E0
1.211103000E0,-6.336024170E0,-2.392624512E0,4.045337677E0,7.888891637E0
1.221181000E0,-6.045178986E0,-2.516566772E0,3.744313660E0,7.543022078E0
1.231260000E0,-5.780229950E0,-2.621947632E0,3.516637115E0,7.256197645E0
1.241339000E0,-5.554948425E0,-2.763403473E0,3.298989716E0,7.026890059E0
1.251417000E0,-5.377118225E0,-2.836750946E0,2.992576904E0,6.776139968E0
1.261496000E0,-5.392685852E0,-3.038082275E0,2.612217865E0,6.718235392E0
1.271575000E0,-5.445675659E0,-3.254831543E0,2.271676025E0,6.738681156E0
1.281653000E0,-5.441184998E0,-3.567531281E0,2.054328003E0,6.823051895E0
1.291732000E0,-5.309458923E0,-3.905827789E0,1.951342163E0,6.874124018E0
1.301813625E0,-5.356461182E0,-3.985462189E0,2.096390533E0,6.997888147E0
1.311891625E0,-5.654341736E0,-3.848047943E0,2.334395599E0,7.226925782E0
1.321970625E0,-6.094127197E0,-3.747606812E0,2.506537628E0,7.580611716E0
1.332049625E0,-6.521189117E0,-3.598516846E0,2.441722412E0,7.838191075E0
1.342127625E0,-6.847809906E0,-3.547622681E0,2.204914856E0,8.021207934E0
1.352206625E0,-7.207661591E0,-3.559148712E0,2.060914307E0,8.298511489E0
1.362285625E0,-7.463479614E0,-3.574566650E0,2.009122009E0,8.515728151E0
1.372363625E0,-7.674391022E0,-3.735332336E0,2.046244812E0,8.777021308E0
1.382442625E0,-7.734715576E0,-3.958218842E0,2.300116882E0,8.987984152E0
1.392521625E0,-7.771239624E0,-4.082759857E0,2.644400940E0,9.168094114E0
1.402599625E0,-7.918533325E0,-4.270918579E0,2.940634918E0,9.465265409E0
1.412678625E0,-8.211324463E0,-4.471800842E0,3.325783997E0,9.923894971E0
1.422757625E0,-8.605005798E0,-4.472249908E0,3.678899689E0,1.037214765E1
1.432835625E0,-8.816066895E0,-4.379742279E0,3.846700745E0,1.056893015E1
1.442914625E0,-9.286089478E0,-4.361180878E0,4.104913788E0,1.104996261E1
1.452993625E0,-9.896669769E0,-4.313280487E0,4.516857147E0,1.170258346E1
1.463071625E0,-1.038779846E1,-4.270319824E0,4.933740234E0,1.226718309E1
1.473150625E0,-1.077923447E1,-4.108955383E0,5.413492584E0,1.274289261E1
1.483228625E0,-1.101634140E1,-3.906875610E0,5.944139099E0,1.311320878E1
1.493307625E0,-1.106169708E1,-3.860621796E0,6.241420898E0,1.327482120E1
1.503386625E0,-1.102442459E1,-3.842808838E0,6.455775146E0,1.334099509E1
1.513464625E0,-1.098595459E1,-3.927832031E0,6.567143555E0,1.338829478E1
1.523543625E0,-1.092248657E1,-4.066443787E0,6.568640442E0,1.337847956E1
1.533622625E0,-1.081845291E1,-4.098626862E0,6.509812775E0,1.327461216E1
1.543700625E0,-1.082518890E1,-4.033811646E0,6.578070831E0,1.329388457E1
1.553779625E0,-1.089823700E1,-3.910019073E0,6.891069946E0,1.347392533E1
1.563858625E0,-1.118548965E1,-3.583697662E0,7.597600708E0,1.398862410E1
1.573936625E0,-1.147049698E1,-3.069217529E0,8.177494812E0,1.441748309E1
1.584015625E0,-1.190594147E1,-2.731070709E0,8.034542084E0,1.462067221E1
1.594094625E0,-1.222822128E1,-2.309846649E0,7.782765656E0,1.467774603E1
1.604172625E0,-1.244257553E1,-1.766027527E0,7.811655579E0,1.479724643E1
1.614251625E0,-1.245739471E1,-1.176852722E0,7.491920471E0,1.458425650E1
1.624330625E0,-1.260438904E1,-6.466552734E-1,6.669979706E0,1.427506271E1
1.634408625E0,-1.286604492E1,-1.809736633E-1,5.971232758E0,1.418532636E1
1.644487625E0,-1.273821075E1,3.038681030E-1,5.347479858E0,1.381846192E1
1.654566625E0,-1.273327103E1,6.403683472E-1,4.823719025E0,1.363138026E1
1.664644625E0,-1.272698410E1,9.589059448E-1,4.605622559E0,1.356861762E1
1.674723625E0,-1.258912079E1,1.266516266E0,4.460574188E0,1.341591397E1
1.684802625E0,-1.240934464E1,1.481469269E0,4.082161102E0,1.314726682E1
1.694880625E0,-1.211296097E1,1.631157990E0,3.477119293E0,1.270727580E1
1.704959625E0,-1.178858551E1,1.722019043E0,2.896626434E0,1.226077251E1
1.715038625E0,-1.138532410E1,1.603764954E0,2.531984711E0,1.177321593E1
1.725116625E0,-1.117156860E1,1.359472961E0,2.778522034E0,1.159190651E1
1.735195625E0,-1.105930206E1,1.063987427E0,3.388802948E0,1.161568839E1
1.745274625E0,-1.082923050E1,7.749385071E-1,3.917353821E0,1.154202858E1
1.755352625E0,-1.053209839E1,6.318360901E-1,4.301904144E0,1.139432721E1
1.765431625E0,-1.038779846E1,6.150709534E-1,4.679269409E0,1.140965518E1
1.775509625E0,-1.024828857E1,8.300239563E-1,4.975204010E0,1.142230333E1
1.785588625E0,-1.002495300E1,1.067729645E0,5.114115143E0,1.130459654E1
1.795667625E0,-9.879305878E0,1.414857788E0,5.334456940E0,1.131631292E1
1.805745625E0,-9.621242523E0,1.877096558E0,5.484445038E0,1.123258370E1
1.815824625E0,-9.307794342E0,2.199975128E0,5.240452423E0,1.090583640E1
1.825903625E0,-9.147328033E0,2.180365906E0,4.929399261E0,1.061727756E1
1.835981625E0,-9.201964417E0,2.087409210E0,5.142855377E0,1.074627320E1
1.846060625E0,-9.553433533E0,2.127525787E0,5.841602325E0,1.139819179E1
1.856139625E0,-1.025951523E1,2.139201508E0,6.486161957E0,1.232493946E1
1.866217625E0,-1.121183487E1,1.999541931E0,6.778204651E0,1.325320593E1
1.876296625E0,-1.188708069E1,1.748813324E0,6.585106201E0,1.370126487E1
1.886375625E0,-1.250559448E1,1.456022186E0,6.203399963E0,1.403538617E1
1.896453625E0,-1.319865326E1,1.070424042E0,6.003116455E0,1.453917682E1
1.906532625E0,-1.406565033E1,5.641767883E-1,6.143973541E0,1.535933675E1
1.916611625E0,-1.495240631E1,1.422042847E-1,6.635251923E0,1.635913337E1
1.926689625E0,-1.572554855E1,-1.017883301E-1,7.185208282E0,1.728960544E1
1.936768625E0,-1.632205811E1,-2.520758057E-1,7.633076935E0,1.802046022E1
1.946847625E0,-1.660377228E1,-1.471440125E-1,7.829318848E0,1.835769972E1
1.956925625E0,-1.655751846E1,-2.050735474E-2,7.428003387E0,1.814737095E1
1.967004625E0,-1.620515121E1,1.362167358E-2,6.448889465E0,1.744119511E1
1.977083625E0,-1.564815948E1,-2.516267395E-1,5.517526245E0,1.659431551E1
1.987161625E0,-1.518831573E1,-6.255491638E-1,5.272934875E0,1.608975105E1
1.997240625E0,-1.500883896E1,-1.027164001E0,5.717510376E0,1.609379501E1
2.007319625E0,-1.477697113E1,-1.442550201E0,6.412664795E0,1.617288152E1
2.017397625E0,-1.454824677E1,-1.939067688E0,6.635551300E0,1.610720362E1
2.027476625E0,-1.434946014E1,-2.375559998E0,6.187383270E0,1.580613816E1
2.037554625E0,-1.388198227E1,-2.892884216E0,5.388644257E0,1.516956485E1
2.047633625E0,-1.327020447E1,-3.197650452E0,4.891228638E0,1.449991078E1
2.057712625E0,-1.306333466E1,-3.452121277E0,4.403991852E0,1.421136861E1
2.067790625E0,-1.295346313E1,-3.606450348E0,4.188889160E0,1.408351816E1
2.077869625E0,-1.268207748E1,-3.745660858E0,4.058210907E0,1.383235845E1
2.087948625E0,-1.211311066E1,-3.915108490E0,3.783232727E0,1.328037553E1
2.098026625E0,-1.139834702E1,-4.095333710E0,3.559747467E0,1.262401976E1
2.108105625E0,-1.070843170E1,-4.305945740E0,3.485501862E0,1.205655015E1
2.118184625E0,-1.019859192E1,-4.300257568E0,3.594774628E0,1.163726329E1
2.128262625E0,-9.648485870E0,-4.189936981E0,3.643423462E0,1.113208812E1
2.138341625E0,-9.047635345E0,-4.257296906E0,3.479813690E0,1.058741638E1
2.148420625E0,-8.394393768E0,-4.222120056E0,3.073558502E0,9.886298922E0
2.158498625E0,-7.853568420E0,-4.283043365E0,2.595452728E0,9.314471121E0
2.168577625E0,-7.510032806E0,-4.201612701E0,2.353106689E0,8.921393004E0
2.178656625E0,-7.171287231E0,-4.075425110E0,2.123633881E0,8.517409890E0
2.188734625E0,-7.002588043E0,-4.043391724E0,1.592238922E0,8.241388276E0
2.198813625E0,-7.039860535E0,-4.068838806E0,9.674382019E-1,8.188468859E0
2.208892625E0,-7.083419952E0,-3.991150360E0,5.228627014E-1,8.147239092E0
2.218970625E0,-6.938970337E0,-3.821103973E0,3.276686096E-1,7.928272929E0
2.229049625E0,-6.616391144E0,-3.497027893E0,4.049079895E-1,7.494650514E0
2.239128625E0,-6.131100311E0,-3.235970764E0,6.577322388E-1,6.963799933E0
2.249206625E0,-5.901028748E0,-3.287613373E0,9.397457886E-1,6.820092676E0
2.259285625E0,-5.814358978E0,-3.126099243E0,1.375190277E0,6.743175447E0
2.269363625E0,-5.296735382E0,-3.395089874E0,1.823507996E0,6.550360477E0
2.279442625E0,-5.212610321E0,-3.580853577E0,2.049088898E0,6.647750297E0
2.289521625E0,-5.102439423E0,-3.422033844E0,1.982776794E0,6.455742212E0
2.299599625E0,-5.004692688E0,-3.448079681E0,1.963916016E0,6.386952991E0
2.309675917E0,-4.983586578E0,-3.588038635E0,1.666484528E0,6.362965277E0
2.319754917E0,-4.942871246E0,-3.591331787E0,1.355880432E0,6.258438456E0
2.329832917E0,-4.959037628E0,-3.774850159E0,1.274749146E0,6.361331095E0
2.339911917E0,-5.027595062E0,-4.040397949E0,1.351689148E0,6.590037272E0
2.349990917E0,-5.219496002E0,-4.124972076E0,1.598376160E0,6.842027440E0
2.360068917E0,-5.448070679E0,-4.118685150E0,1.894460449E0,7.087596340E0
2.370147917E0,-5.608387299E0,-4.090843048E0,2.389780426E0,7.341665712E0
2.380226917E0,-5.659131775E0,-3.834725647E0,3.052452393E0,7.486545187E0
2.390304917E0,-5.806425476E0,-3.571273499E0,3.421584778E0,7.627307100E0
2.400383917E0,-6.193370819E0,-3.340453491E0,3.390449524E0,7.810993509E0
2.410462917E0,-6.739285583E0,-3.220552826E0,3.077600098E0,8.078462294E0
2.420540917E0,-7.233408051E0,-3.262615356E0,2.592009888E0,8.347776126E0
2.430619917E0,-7.780969391E0,-3.509601746E0,2.076032867E0,8.784685626E0
2.440698917E0,-8.277486877E0,-3.797752533E0,1.716330872E0,9.267443281E0
2.450776917E0,-8.836723938E0,-4.116140442E0,1.699416046E0,9.895368462E0
2.460855917E0,-9.414073334E0,-4.446653137E0,2.046394501E0,1.061061880E1
2.470934917E0,-9.882599030E0,-4.703069916E0,2.649789734E0,1.126081773E1
2.481012917E0,-1.018302429E1,-4.935386810E0,3.498824158E0,1.184456826E1
2.491091917E0,-1.059242294E1,-5.226381683E0,4.290378113E0,1.256669542E1
2.501170917E0,-1.114627121E1,-5.376669159E0,5.074747009E0,1.337538748E1
2.511248917E0,-1.192809540E1,-5.292693787E0,5.780828705E0,1.427270289E1
2.521327917E0,-1.262040573E1,-4.949158173E0,6.384822693E0,1.498448425E1
2.531405917E0,-1.299926788E1,-4.440515900E0,6.759942627E0,1.530999580E1
2.541484917E0,-1.315359695E1,-3.977229309E0,6.947352905E0,1.539809008E1
2.551563917E0,-1.314536407E1,-3.691473541E0,7.017407227E0,1.535159854E1
2.561641917E0,-1.301079391E1,-3.578159180E0,7.072941742E0,1.523517267E1
2.571720917E0,-1.275707153E1,-3.583547974E0,7.401209106E0,1.517770030E1
2.581799917E0,-1.225501556E1,-3.680097198E0,7.999365234E0,1.509034016E1
2.591877917E0,-1.160042679E1,-3.784430237E0,8.504414978E0,1.487336169E1
2.601956917E0,-1.088656128E1,-4.015699310E0,9.145980835E0,1.477470889E1
2.612035917E0,-1.036459671E1,-4.087100830E0,9.890831909E0,1.489824869E1
2.622113917E0,-1.020383102E1,-3.552412720E0,9.996362457E0,1.471954707E1
2.632192917E0,-1.096080688E1,-3.123554535E0,9.715396729E0,1.497614150E1
2.642271917E0,-1.212688202E1,-2.572250977E0,8.949589233E0,1.528963342E1
2.652349917E0,-1.302710999E1,-1.858235779E0,7.667355652E0,1.522980556E1
2.662428917E0,-1.381761612E1,-9.422904968E-1,6.255940704E0,1.519707935E1
2.672507917E0,-1.438882828E1,-1.675016785E-1,4.983287201E0,1.522824965E1
2.682585917E0,-1.459988937E1,3.320095825E-1,4.172124023E0,1.518794321E1
2.692664917E0,-1.458701614E1,5.731581116E-1,3.948489075E0,1.512283426E1
2.702743917E0,-1.458072922E1,7.014413452E-1,4.253255310E0,1.520460013E1
2.712821917E0,-1.424108551E1,8.120613098E-1,4.879403229E0,1.507569355E1
2.722900917E0,-1.377884674E1,8.785231018E-1,5.304818573E0,1.479085935E1
2.732978917E0,-1.347857117E1,9.798623657E-1,5.258115692E0,1.450102726E1
2.743057917E0,-1.349952759E1,1.088536377E0,4.997807007E0,1.443607396E1
2.753136917E0,-1.345072906E1,1.228195953E0,4.727020111E0,1.430997194E1
2.763214917E0,-1.308833267E1,1.202599182E0,4.489613800E0,1.388910829E1
2.773293917E0,-1.271635620E1,9.680369568E-1,4.458478546E0,1.351002744E1
2.783372917E0,-1.250439697E1,5.674699402E-1,4.733456726E0,1.338236072E1
2.793450917E0,-1.232971024E1,1.996847534E-1,5.159620514E0,1.336724775E1
2.803529917E0,-1.197839081E1,-7.304809570E-2,5.532944183E0,1.319472068E1
2.813608917E0,-1.152962402E1,-2.354603577E-1,5.757177887E0,1.288925013E1
2.823686917E0,-1.111573471E1,-3.008743286E-1,5.892197113E0,1.258443763E1
2.833765917E0,-1.065020279E1,-1.983375549E-1,5.904321899E0,1.217896442E1
2.843844917E0,-1.018961060E1,-1.193019104E-1,5.579497375E0,1.161779618E1
2.853922917E0,-9.968969421E0,-2.621049500E-1,5.142256622E0,1.122015390E1
2.864001917E0,-9.919572144E0,-4.303550720E-1,4.843028870E0,1.104708313E1
2.874080917E0,-1.000519409E1,-5.508544922E-1,4.681963806E0,1.106020500E1
2.884158917E0,-1.001103195E1,-6.143225098E-1,4.547842712E0,1.101276651E1
2.894237917E0,-1.016131943E1,-5.060975647E-1,4.521198120E0,1.113327354E1
2.904316917E0,-1.034468811E1,-3.918850708E-1,4.592150574E0,1.132492794E1
2.914394917E0,-1.046503784E1,-1.399589539E-1,4.595443726E0,1.143042906E1
2.924473917E0,-1.099882782E1,8.367599487E-2,4.440366211E0,1.186162161E1
2.934552917E0,-1.151240982E1,2.782713318E-1,4.331542511E0,1.230346599E1
2.944630917E0,-1.213242050E1,4.534071350E-1,4.286486206E0,1.287537065E1
2.954709917E0,-1.321916061E1,3.121009827E-1,4.405788116E0,1.393752429E1
2.964787917E0,-1.469524109E1,1.719923401E-1,4.667144623E0,1.541953083E1
2.974866917E0,-1.618614075E1,1.919009399E-1,5.015619965E0,1.694651651E1
2.984945917E0,-1.749786301E1,-2.493814087E-1,4.922962646E0,1.817891532E1
2.995023917E0,-1.881991379E1,-6.054908752E-1,4.874014435E0,1.945023884E1
3.005102917E0,-1.912123718E1,-6.806346130E-1,5.128784637E0,1.980882144E1
3.015181917E0,-1.884176834E1,-4.665797424E-1,5.289101257E0,1.957561041E1
3.025259917E0,-1.841590393E1,-1.492396545E-1,5.283862152E0,1.915951433E1
3.035338917E0,-1.792133240E1,1.387614441E-1,5.195994873E0,1.865989744E1
3.045417917E0,-1.721540039E1,3.251239014E-1,4.921765137E0,1.790808444E1
3.055495917E0,-1.643642029E1,1.230441284E-1,4.547842712E0,1.705444004E1
3.065574917E0,-1.571297470E1,-4.902305603E-1,4.344565430E0,1.630990953E1
3.075653917E0,-1.499880981E1,-1.205592957E0,4.328099670E0,1.565727297E1
3.085731917E0,-1.451202209E1,-2.292333069E0,4.839436340E0,1.546847505E1
3.095810917E0,-1.374681335E1,-3.444187775E0,5.551206207E0,1.522015759E1
3.105889917E0,-1.267803589E1,-4.363126831E0,5.864654388E0,1.463433090E1
3.115967917E0,-1.134460876E1,-4.799020386E0,5.546266479E0,1.350895320E1
3.126046917E0,-1.068343369E1,-5.063969421E0,4.922812958E0,1.280678059E1
3.136125917E0,-9.995164948E0,-4.925956421E0,4.211342468E0,1.191233707E1
3.146203917E0,-9.910740509E0,-4.722978516E0,3.702999573E0,1.158626382E1
3.156282917E0,-9.977950745E0,-4.264781342E0,3.332370300E0,1.135132383E1
3.166360917E0,-9.953551483E0,-3.658691711E0,3.035238190E0,1.103049786E1
3.176439917E0,-1.021805145E1,-3.506158905E0,3.028202820E0,1.121925747E1
3.186518917E0,-1.045590683E1,-3.730242920E0,3.801045685E0,1.173408063E1
3.196596917E0,-9.679321747E0,-3.624712372E0,4.290976868E0,1.119108090E1
3.206675917E0,-8.777596893E0,-3.430715790E0,3.754941559E0,1.014473283E1
3.216754917E0,-8.618028717E0,-3.459905090E0,3.162922668E0,9.810476136E0
3.226832917E0,-8.235723724E0,-3.375929718E0,3.021317139E0,9.399595948E0
3.236911917E0,-7.650889893E0,-3.302133179E0,2.810256042E0,8.794187780E0
3.246990917E0,-7.151977386E0,-3.215912476E0,2.846480713E0,8.342381317E0
3.257068917E0,-6.706653442E0,-3.046315155E0,2.874622192E0,7.907129009E0
3.267147917E0,-6.468049622E0,-2.912942505E0,2.714904327E0,7.595499026E0
3.277226917E0,-6.371799774E0,-2.801424408E0,2.504292297E0,7.397248880E0
3.287304917E0,-6.568341064E0,-2.750979309E0,2.426154785E0,7.523112291E0
3.297383917E0,-6.714586945E0,-2.668650513E0,2.505639496E0,7.647588030E0
3.307462875E0,-6.749614105E0,-2.624192963E0,2.378404083E0,7.622367431E0
3.317540875E0,-6.640491028E0,-2.529889069E0,2.020049286E0,7.387628774E0
3.327619875E0,-6.476581879E0,-2.472109222E0,1.685644684E0,7.134341935E0
3.337698875E0,-6.406677246E0,-2.446213074E0,1.387015686E0,6.996662365E0
3.347776875E0,-6.299799500E0,-2.391277313E0,1.110989685E0,6.829346894E0
3.357855875E0,-6.139931946E0,-2.446063385E0,8.981323242E-1,6.669979914E0
3.367933875E0,-6.107299805E0,-2.550695801E0,8.292755127E-1,6.670296684E0
3.378012875E0,-6.248456268E0,-2.604284363E0,9.756710815E-1,6.839403252E0
3.388091875E0,-6.374045105E0,-2.673440552E0,1.107696533E0,7.000194783E0
3.398169875E0,-6.470594330E0,-2.810106354E0,1.266216888E0,7.167188703E0
3.408248875E0,-6.536307678E0,-2.990032196E0,1.467398529E0,7.335998163E0
3.418327875E0,-6.714287567E0,-3.108136597E0,1.687440948E0,7.588783011E0
3.428405875E0,-6.849456482E0,-3.360212402E0,2.030826874E0,7.894956572E0
3.438484875E0,-6.716083832E0,-3.598516846E0,2.500550079E0,8.019217931E0
3.448563875E0,-6.405479736E0,-3.712280273E0,2.847678223E0,7.932242227E0
3.458641875E0,-6.067332916E0,-3.726201324E0,3.216062164E0,7.812820289E0
3.468720875E0,-5.789211273E0,-3.537294159E0,3.544179840E0,7.654320863E0
3.478799875E0,-5.602998505E0,-3.336411896E0,3.827690277E0,7.561511055E0
3.488877875E0,-5.571414185E0,-3.222648468E0,4.050876160E0,7.604979739E0
3.498956875E0,-5.757028198E0,-3.204236755E0,4.181255035E0,7.803422360E0
3.509035875E0,-6.152206421E0,-3.335364075E0,4.153562622E0,8.137959192E0
3.519113875E0,-6.572083282E0,-3.515439606E0,4.017645264E0,8.467116850E0
3.529192875E0,-6.665638733E0,-3.823798370E0,3.623215485E0,8.495873360E0
3.539271875E0,-6.882537689E0,-4.247267761E0,2.960693207E0,8.612451030E0
3.549349875E0,-7.152576141E0,-4.621190186E0,2.311044159E0,8.823585966E0
3.559428875E0,-7.296876068E0,-5.065316620E0,1.547631683E0,9.016484716E0
3.569506875E0,-7.482490082E0,-5.456453247E0,9.785151672E-1,9.312251704E0
3.579585875E0,-7.849975891E0,-5.655988312E0,9.822573853E-1,9.725078655E0
3.589664875E0,-8.558153229E0,-5.750292206E0,1.743274841E0,1.045690462E1
3.599742875E0,-9.870174866E0,-5.651198273E0,3.188669128E0,1.181202796E1
3.609821875E0,-1.132020950E1,-5.272485809E0,4.700375519E0,1.334315479E1
3.619900875E0,-1.204425385E1,-4.700225830E0,5.620661774E0,1.409780168E1
3.629978875E0,-1.254346573E1,-4.792284393E0,5.735622711E0,1.460143452E1
3.640057875E0,-1.317066147E1,-5.100044403E0,5.272036743E0,1.507551485E1
3.650136875E0,-1.305719742E1,-4.741090851E0,4.542154541E0,1.461504412E1
3.660214875E0,-1.330268692E1,-4.822371826E0,3.969595184E0,1.469606870E1
3.670293875E0,-1.352931564E1,-5.039420471E0,3.757785645E0,1.491841457E1
3.680372875E0,-1.356164841E1,-5.329068146E0,4.165687408E0,1.515487467E1
3.690450875E0,-1.353590195E1,-5.587430878E0,5.025050354E0,1.548196229E1
3.700529875E0,-1.353395599E1,-5.657335510E0,6.053711243E0,1.586886353E1
3.710608875E0,-1.357227631E1,-5.696703644E0,7.087611237E0,1.633687086E1
3.720686875E0,-1.390967468E1,-5.557942200E0,7.979456635E0,1.697178539E1
3.730765875E0,-1.425425812E1,-4.943470001E0,7.997119904E0,1.707558775E1
3.740843875E0,-1.549891983E1,-4.754862213E0,7.409591675E0,1.782490615E1
3.750922875E0,-1.642085266E1,-3.971391449E0,6.428980865E0,1.807617623E1
3.761001875E0,-1.664867889E1,-3.044369202E0,5.276976471E0,1.772831558E1
3.771079875E0,-1.664179321E1,-2.489173737E0,3.941004639E0,1.728226793E1
3.781158875E0,-1.673190582E1,-2.166744232E0,2.978955231E0,1.713258963E1
3.791237875E0,-1.685584808E1,-1.798360291E0,2.639012146E0,1.715570166E1
3.801315875E0,-1.733485199E1,-1.469943237E0,2.528841248E0,1.757989945E1
3.811394875E0,-1.787747360E1,-1.172960815E0,2.245031433E0,1.805602574E1
3.821473875E0,-1.787268356E1,-7.089257812E-1,1.696871338E0,1.796704666E1
3.831551875E0,-1.718366638E1,-7.469467163E-2,1.455423431E0,1.724535378E1
3.841630875E0,-1.600980743E1,4.212240601E-1,1.518292694E0,1.608715564E1
3.851709875E0,-1.481768646E1,6.846762085E-1,1.552421722E0,1.491451061E1
3.861787875E0,-1.381507141E1,9.125024414E-1,1.861828308E0,1.396979826E1
3.871866875E0,-1.295061905E1,1.070873108E0,2.336341553E0,1.320317366E1
3.881945875E0,-1.166120041E1,1.216370544E0,2.218087463E0,1.193243748E1
3.892023875E0,-1.044497955E1,1.256337433E0,1.608105927E0,1.064246148E1
3.902102875E0,-9.498647461E0,1.061442719E0,1.079854431E0,9.618578368E0
3.912181875E0,-8.809779968E0,6.860234070E-1,8.469387817E-1,8.876945224E0
3.922259875E0,-8.416547699E0,3.480262756E-1,1.134640503E0,8.499812147E0
3.932338875E0,-8.161029053E0,2.005828857E-1,1.737736359E0,8.346397807E0
3.942417875E0,-8.097411346E0,1.440005493E-1,2.304607544E0,8.420215116E0
3.952495875E0,-8.182284851E0,2.592608643E-1,2.679577789E0,8.613776100E0
3.962574875E0,-8.356971588E0,5.667214966E-1,3.003653870E0,8.898431544E0
3.972652875E0,-8.833131409E0,7.423063660E-1,3.313359833E0,9.463275469E0
3.982731875E0,-9.585017853E0,6.786886597E-1,3.460653534E0,1.021319286E1
3.992810875E0,-1.066906357E1,5.186714172E-1,3.823948059E0,1.134550643E1
4.002888875E0,-1.204619980E1,4.095483398E-1,4.354594574E0,1.281566047E1
4.012967875E0,-1.330657883E1,2.357597351E-1,4.859794006E0,1.416821162E1
4.023046875E0,-1.421788376E1,2.438429260E-1,5.239254913E0,1.515445380E1
4.033124875E0,-1.512365021E1,2.227368164E-1,5.277275848E0,1.601948962E1
4.043203875E0,-1.600426895E1,2.664459229E-2,4.815336456E0,1.671301289E1
4.053282875E0,-1.663430878E1,-1.643582153E-1,4.285887451E0,1.717836061E1
4.063360875E0,-1.705568253E1,-3.870950317E-1,3.957021332E0,1.751297139E1
4.073439875E0,-1.747226624E1,-7.376660156E-1,3.837270355E0,1.790387897E1
4.083518875E0,-1.803195236E1,-1.041234741E0,4.079167328E0,1.851688640E1
4.093596875E0,-1.830917587E1,-1.221010895E0,4.462370453E0,1.888463764E1
4.103675875E0,-1.797177750E1,-1.272054749E0,4.463867340E0,1.856149297E1
4.113753875E0,-1.761252457E1,-1.432670746E0,4.404141541E0,1.821126107E1
4.123832875E0,-1.728246094E1,-1.852547607E0,4.394411774E0,1.792836422E1
4.133911875E0,-1.693353653E1,-2.441123657E0,4.265080719E0,1.763220513E1
4.143989875E0,-1.683953201E1,-3.109633484E0,4.023483124E0,1.759056779E1
4.154068875E0,-1.673295364E1,-3.679947510E0,3.826043701E0,1.755483870E1
4.164147875E0,-1.639345963E1,-4.261039124E0,3.733985138E0,1.734487296E1
4.174225875E0,-1.581670898E1,-4.839735718E0,3.771557007E0,1.696513976E1
4.184304875E0,-1.513352966E1,-5.349425812E0,3.869752808E0,1.651105882E1
4.194383875E0,-1.438119415E1,-5.751789093E0,3.996688843E0,1.599610405E1
4.204461875E0,-1.366702927E1,-5.986650696E0,4.089795227E0,1.547107302E1
4.214540875E0,-1.297816177E1,-6.037245483E0,4.028422852E0,1.486974131E1
4.224619875E0,-1.243314514E1,-5.952521667E0,3.826343079E0,1.430582097E1
4.234697875E0,-1.212942673E1,-5.816155243E0,3.444786530E0,1.388586363E1
4.244776875E0,-1.176268936E1,-5.619763641E0,2.957549744E0,1.336748686E1
4.254855875E0,-1.155941208E1,-5.430706787E0,2.439028015E0,1.300236292E1
4.264933875E0,-1.144909149E1,-5.402415619E0,1.960772552E0,1.281063697E1
4.275012875E0,-1.121093674E1,-5.495821381E0,1.837279358E0,1.262001389E1
4.285090875E0,-1.092667786E1,-5.625451813E0,2.067051544E0,1.246237133E1
4.295169875E0,-1.072414902E1,-5.896538086E0,2.311642914E0,1.245472707E1
4.305249125E0,-1.055470139E1,-6.211183777E0,2.575544128E0,1.251454964E1
4.315327125E0,-1.026011398E1,-6.266119537E0,2.824626160E0,1.234960347E1
4.325406125E0,-9.893675995E0,-6.078409882E0,2.811154175E0,1.194715360E1
4.335485125E0,-9.590406647E0,-5.986501007E0,2.676733704E0,1.161804619E1
4.345563125E0,-9.207053833E0,-5.925428009E0,2.583777008E0,1.124973071E1
4.355642125E0,-8.949140167E0,-6.049669647E0,2.499352570E0,1.108748735E1
4.365721125E0,-8.655151520E0,-6.068380737E0,2.425256653E0,1.084521841E1
4.375799125E0,-8.302634583E0,-5.992937622E0,2.229613495E0,1.047951424E1
4.385878125E0,-7.936346283E0,-6.041885834E0,1.850302277E0,1.014463382E1
4.395957125E0,-7.411387939E0,-5.867348785E0,1.542991333E0,9.577853372E0
4.406035125E0,-6.953190765E0,-5.646857300E0,1.364562378E0,9.060678212E0
4.416114125E0,-6.834637299E0,-5.587281189E0,1.308878174E0,8.924300542E0
4.426193125E0,-6.707551575E0,-5.294040985E0,1.464554443E0,8.669661919E0
4.436271125E0,-6.360872498E0,-4.883444824E0,1.527124329E0,8.163384163E0
4.446350125E0,-6.105054474E0,-4.689448242E0,1.597028961E0,7.862131800E0
4.456428125E0,-6.091732178E0,-4.654570770E0,2.056423645E0,7.937449728E0
4.466507125E0,-5.927373962E0,-4.464466095E0,2.392474823E0,7.796740048E0
4.476586125E0,-5.584586792E0,-4.137845306E0,2.015858002E0,7.236923165E0
4.486664125E0,-5.364843750E0,-3.811673584E0,1.410816193E0,6.730587367E0
4.496743125E0,-5.299579468E0,-3.422033844E0,6.496490479E-1,6.341758593E0
4.506822125E0,-5.370980988E0,-3.233276367E0,-1.547781372E-1,6.271002241E0
4.516900125E0,-5.474864960E0,-2.908451843E0,-6.761439514E-1,6.236217531E0
4.526979125E0,-5.513634338E0,-2.585423584E0,-1.063688049E0,6.181909979E0
4.537058125E0,-5.526806946E0,-2.354603577E0,-1.279389496E0,6.142197530E0
4.547136125E0,-5.391638031E0,-2.222428436E0,-1.368154907E0,5.990058152E0
4.557215125E0,-5.411696320E0,-2.133064270E0,-9.207353210E-1,5.889327106E0
4.567294125E0,-5.272485809E0,-1.956730957E0,-1.974394226E-1,5.627333736E0
4.577372125E0,-4.977000275E0,-1.900747375E0,2.665956116E-1,5.334270854E0
4.587451125E0,-4.814138947E0,-1.882335663E0,3.517684937E-1,5.181009787E0
4.597530125E0,-4.867428131E0,-1.816322937E0,2.103126526E-1,5.199530463E0
4.607608125E0,-5.176385651E0,-1.835333405E0,-2.332150269E-1,5.497072526E0
4.617687125E0,-5.830525360E0,-2.106868744E0,-1.099463654E0,6.296248264E0
4.627765125E0,-6.683152313E0,-2.766696625E0,-2.014510803E0,7.508487786E0
4.637844125E0,-7.463479614E0,-3.515140228E0,-2.580633545E0,8.644038886E0
4.647923125E0,-7.992030487E0,-4.151466980E0,-2.830913086E0,9.440407740E0
4.658001125E0,-8.547375641E0,-4.558171234E0,-2.127675476E0,9.917739575E0
4.668080125E0,-9.457932129E0,-4.618944855E0,-3.879931641E-1,1.053269531E1
4.678159125E0,-1.054527100E1,-4.523293762E0,1.478475494E0,1.156930493E1
4.688237125E0,-1.183468964E1,-4.404889984E0,3.029849396E0,1.298625897E1
4.698316125E0,-1.311153442E1,-4.249363403E0,4.233346710E0,1.441841353E1
4.708395125E0,-1.401535492E1,-4.226011963E0,5.137616272E0,1.551400824E1
4.718473125E0,-1.450813019E1,-4.600533142E0,5.484445038E0,1.617806800E1
4.728552125E0,-1.467293747E1,-5.068909149E0,5.617967377E0,1.650910329E1
4.738631125E0,-1.512918869E1,-5.698948975E0,6.009403381E0,1.724770416E1
4.748709125E0,-1.601235214E1,-6.191873932E0,6.446195068E0,1.833816116E1
4.758788125E0,-1.696871338E1,-6.284381561E0,6.971901855E0,1.939170185E1
4.768866125E0,-1.775053757E1,-5.927523651E0,7.649991760E0,2.021730681E1
4.778945125E0,-1.791399765E1,-5.308111725E0,8.278385010E0,2.043572901E1
4.789024125E0,-1.797507065E1,-4.675826569E0,8.801696777E0,2.055325729E1
4.799102125E0,-1.811907120E1,-4.187242584E0,9.080117798E0,2.069498202E1
4.809181125E0,-1.842144241E1,-4.020189972E0,9.010811920E0,2.089751659E1
4.819260125E0,-1.832609070E1,-3.935615845E0,8.811276855E0,2.071166995E1
4.829338125E0,-1.791369827E1,-3.903283081E0,8.590036926E0,2.024660315E1
4.839417125E0,-1.708322525E1,-3.752845917E0,7.946974182E0,1.921132052E1
4.849496125E0,-1.617700974E1,-3.591182098E0,7.225624237E0,1.807766242E1
4.859574125E0,-1.526914764E1,-3.407963104E0,6.651118927E0,1.699995486E1
4.869653125E0,-1.427446609E1,-3.102448425E0,6.444548492E0,1.596614461E1
4.879732125E0,-1.343366455E1,-3.069217529E0,6.462810516E0,1.522009722E1
4.889810125E0,-1.223405914E1,-3.060385895E0,6.527026978E0,1.420000867E1
4.899889125E0,-1.106738525E1,-2.986739044E0,6.524332581E0,1.318994094E1
4.909968125E0,-1.037821838E1,-3.042722626E0,6.234984283E0,1.248361353E1
4.920046125E0,-1.005728577E1,-2.994223480E0,6.172264709E0,1.217420317E1
4.930125125E0,-9.710307312E0,-2.641407166E0,5.955515442E0,1.169338548E1
4.940203125E0,-9.332492981E0,-2.506986694E0,5.296136627E0,1.101950410E1
4.950282125E0,-8.696465607E0,-2.475402374E0,4.607119446E0,1.014798899E1
4.960361125E0,-7.864944763E0,-2.561174011E0,4.197271729E0,9.275454620E0
4.970439125E0,-7.336094513E0,-2.841091919E0,3.940106506E0,8.798552453E0
4.980518125E0,-6.984326019E0,-3.064577179E0,4.065246277E0,8.642839263E0
4.990597125E0,-6.721921692E0,-3.162473602E0,4.609065399E0,8.742365491E0
5.000675125E0,-6.535708923E0,-3.089275818E0,5.397475891E0,9.021743856E0
5.010754125E0,-6.619384918E0,-2.907853088E0,6.284231873E0,9.579323385E0
5.020833125E0,-6.603517914E0,-2.557431793E0,7.077133026E0,1.001162914E1
5.030911125E0,-6.452332306E0,-2.090402985E0,7.672894135E0,1.024088283E1
5.040990125E0,-6.105653229E0,-1.669627991E0,7.977660370E0,1.018379713E1
5.051069125E0,-5.881419525E0,-1.367556152E0,8.165070648E0,1.015527863E1
5.061147125E0,-5.814808044E0,-1.021176453E0,8.411607971E0,1.027666982E1
5.071226125E0,-5.746100922E0,-6.959028625E-1,8.487500153E0,1.027324756E1
5.081305125E0,-5.729784851E0,-4.758604431E-1,8.459358673E0,1.022827584E1
5.091383125E0,-5.857918396E0,-2.655477905E-1,8.259973297E0,1.012980170E1
5.101462125E0,-5.867648163E0,4.071533203E-2,7.861202545E0,9.809661470E0
5.111540125E0,-6.063590698E0,2.522254944E-1,7.536228333E0,9.676026423E0
5.121619125E0,-6.557862854E0,3.396437073E-1,7.270830231E0,9.797239167E0
5.131698125E0,-7.090155945E0,3.614982605E-1,7.113058319E0,1.004970601E1
5.141776125E0,-7.617209930E0,3.608995056E-1,7.190447388E0,1.048115782E1
5.151855125E0,-8.058192902E0,4.596940613E-1,7.169790344E0,1.079591057E1
5.161934125E0,-8.733887787E0,5.837860107E-1,6.935377808E0,1.116785867E1
5.172012125E0,-9.775272217E0,7.659571838E-1,6.465055847E0,1.174476839E1
5.182091125E0,-1.109373047E1,9.520202637E-1,5.984854431E0,1.264103164E1
5.192170125E0,-1.230531097E1,1.112486572E0,5.689518585E0,1.360253382E1
5.202248125E0,-1.312321014E1,1.214873657E0,5.623206482E0,1.432881759E1
5.212327125E0,-1.402194122E1,1.255139923E0,5.735622711E0,1.520156504E1
5.222405125E0,-1.521540939E1,1.258582764E0,5.775589600E0,1.632330079E1
5.232484125E0,-1.621098907E1,1.241069183E0,5.659880219E0,1.721541936E1
5.242563125E0,-1.695344513E1,1.185085602E0,5.260810089E0,1.779044273E1
5.252641125E0,-1.774544815E1,1.028810577E0,4.656217346E0,1.837497595E1
5.262720125E0,-1.843775848E1,9.922865295E-1,4.167783051E0,1.892897213E1
5.272799125E0,-1.899789368E1,1.000220032E0,3.668271790E0,1.937463863E1
5.282877125E0,-1.971340576E1,1.010997620E0,3.291056213E0,2.001178488E1
5.292956125E0,-2.010259644E1,1.210682373E0,3.099604340E0,2.037615475E1
5.303035125E0,-2.033431458E1,1.286125488E0,2.802472229E0,2.056677706E1
5.313112875E0,-2.059387482E1,1.014590149E0,2.291584625E0,2.074580520E1
5.323191875E0,-2.007610153E1,9.752220154E-1,1.998793488E0,2.019891299E1
5.333270875E0,-1.950533844E1,8.304730225E-1,1.729503479E0,1.959946671E1
5.343348875E0,-1.910507080E1,2.857557678E-1,1.098715210E0,1.913877117E1
5.353427875E0,-1.861753464E1,-3.671864319E-1,7.021897888E-1,1.863439005E1
5.363506875E0,-1.792088333E1,-9.695338440E-1,5.917195129E-1,1.795684235E1
5.373584875E0,-1.715911743E1,-1.641935577E0,6.062393188E-1,1.724815322E1
5.383663875E0,-1.631681900E1,-2.373015289E0,6.364764404E-1,1.650075411E1
5.393741875E0,-1.535327271E1,-3.046464844E0,9.072633362E-1,1.567887297E1
5.403820875E0,-1.412208298E1,-3.549269257E0,1.157243500E0,1.460718153E1
5.413899875E0,-1.298564621E1,-4.061803436E0,1.364562378E0,1.367432942E1
5.423977875E0,-1.209784241E1,-4.507576447E0,1.651964722E0,1.301556852E1
5.434056875E0,-1.127066254E1,-4.782255249E0,1.878144379E0,1.238649368E1
5.444135875E0,-1.053733749E1,-4.924459534E0,1.952988739E0,1.179406411E1
5.454213875E0,-9.854008484E0,-4.919968872E0,1.970801697E0,1.118890684E1
5.464292875E0,-9.045539703E0,-4.815486145E0,1.865271149E0,1.041585003E1
5.474371875E0,-8.248896332E0,-4.752317505E0,1.703457642E0,9.671120943E0
5.484449875E0,-7.538174286E0,-4.762945404E0,1.493594055E0,9.041047710E0
5.494528875E0,-6.889722748E0,-4.781207428E0,1.317560120E0,8.489062886E0
5.504606875E0,-6.464457092E0,-4.800068207E0,1.211131439E0,8.142278529E0
5.514685875E0,-6.217021637E0,-4.748126221E0,1.073567505E0,7.896113464E0
5.524764875E0,-5.982459412E0,-4.580474854E0,9.026229858E-1,7.588497793E0
5.534842875E0,-5.814808044E0,-4.492457886E0,9.958790588E-1,7.415250876E0
5.544921875E0,-5.524860992E0,-4.205953674E0,1.294657745E0,7.063304749E0
5.555000875E0,-5.096601562E0,-3.905528412E0,1.302441559E0,6.551706165E0
5.565078875E0,-4.785847778E0,-3.759881287E0,1.087189178E0,6.182477380E0
5.575157875E0,-4.575385437E0,-3.611839142E0,1.060694275E0,5.924914027E0
5.585236875E0,-4.440066833E0,-3.542533264E0,1.115630035E0,5.788641100E0
5.595314875E0,-4.446353760E0,-3.500919800E0,1.121467896E0,5.769245310E0
5.605393875E0,-4.369563446E0,-3.473975830E0,1.106349335E0,5.690834880E0
5.615472875E0,-4.170776825E0,-3.528312836E0,1.059347076E0,5.564762980E0
5.625550875E0,-3.701203308E0,-3.506607971E0,1.010099487E0,5.197644309E0
5.635629875E0,-3.611839142E0,-3.958069153E0,1.075812836E0,5.465259981E0
5.645708875E0,-3.740721130E0,-4.362228699E0,1.204994202E0,5.871460195E0
5.655786875E0,-3.750600586E0,-4.413272552E0,1.468596039E0,5.975010770E0
5.665865875E0,-3.948040009E0,-4.264032898E0,1.694027252E0,6.052993044E0
5.675943875E0,-4.136797485E0,-4.076772308E0,1.788031769E0,6.077024230E0
5.686022875E0,-4.322112122E0,-3.874692535E0,1.733245697E0,6.057890399E0
5.696101875E0,-4.731061707E0,-3.641028442E0,1.735790405E0,6.217153796E0
5.706179875E0,-5.141957245E0,-3.620072021E0,1.719324646E0,6.519257856E0
5.716258875E0,-5.567073212E0,-3.846101990E0,1.685345306E0,6.973176712E0
5.726337875E0,-6.092181244E0,-4.162244568E0,1.859882355E0,7.609081057E0
5.736415875E0,-6.642436981E0,-4.459526367E0,2.064057770E0,8.262546759E0
5.746494875E0,-7.180717621E0,-4.767735443E0,2.325264587E0,8.927533938E0
5.756573875E0,-7.653733978E0,-5.033283234E0,2.774779816E0,9.571467335E0
5.766651875E0,-8.187224579E0,-5.302124176E0,3.309617615E0,1.030032698E1
5.776730875E0,-8.842412109E0,-5.488935699E0,3.723506927E0,1.105355919E1
5.786809875E0,-9.909692688E0,-5.737269287E0,4.004622345E0,1.213075711E1
5.796887875E0,-1.132260452E1,-6.130501556E0,4.146976318E0,1.352707785E1
5.806966875E0,-1.241158997E1,-6.459068298E0,4.325554962E0,1.464505222E1
5.817044875E0,-1.305150925E1,-6.781348114E0,4.520449677E0,1.538710633E1
5.827123875E0,-1.319341415E1,-6.961573334E0,4.846471710E0,1.568495994E1
5.837202875E0,-1.310225372E1,-6.728957062E0,5.421126709E0,1.569511168E1
5.847280875E0,-1.350865860E1,-6.283782806E0,6.275849304E0,1.616651069E1
5.857359875E0,-1.425156372E1,-5.744753723E0,6.901398468E0,1.684454109E1
5.867438875E0,-1.469688766E1,-5.238057404E0,7.158713379E0,1.716633128E1
5.877516875E0,-1.509401184E1,-4.704866180E0,7.408992920E0,1.746018715E1
5.887595875E0,-1.471754471E1,-4.148922272E0,7.381599884E0,1.697962588E1
5.897674875E0,-1.406550064E1,-3.874093781E0,6.952891388E0,1.616136162E1
5.907752875E0,-1.342603043E1,-3.771407318E0,6.419700165E0,1.535234042E1
5.917831875E0,-1.283805313E1,-3.677253113E0,6.077661438E0,1.467227887E1
5.927910875E0,-1.261666351E1,-3.512595520E0,6.211632843E0,1.449492698E1
5.937988875E0,-1.285811142E1,-3.271297302E0,6.566844177E0,1.480391360E1
5.948067875E0,-1.316362610E1,-2.923121338E0,6.534361725E0,1.498411070E1
5.958145875E0,-1.348949844E1,-2.622696075E0,6.244414673E0,1.509429752E1
5.968224875E0,-1.364143250E1,-2.244432678E0,5.625002747E0,1.492537485E1
5.978303875E0,-1.395278503E1,-1.890269165E0,4.767286377E0,1.486540773E1
5.988381875E0,-1.387060593E1,-1.547182617E0,3.899540863E0,1.449116634E1
5.998460875E0,-1.389814865E1,-1.340312805E0,3.509302368E0,1.439688082E1
6.008539875E0,-1.413001648E1,-1.182091827E0,3.406017151E0,1.458271784E1
6.018617875E0,-1.434377197E1,-8.598120117E-1,3.323388977E0,1.474882997E1
6.028696875E0,-1.427027481E1,-4.498146057E-1,3.200644226E0,1.463171896E1
6.038775875E0,-1.396386200E1,-1.227447510E-2,3.044069824E0,1.429181422E1
6.048853875E0,-1.367930374E1,1.675016785E-1,3.017125854E0,1.400908477E1
6.058932875E0,-1.318637878E1,2.740800476E-1,3.368295593E0,1.361253542E1
6.069011875E0,-1.257490036E1,3.442840576E-1,3.849395142E0,1.315539789E1
6.079089875E0,-1.217687805E1,3.137475586E-1,4.300856323E0,1.291790083E1
6.089168875E0,-1.209948898E1,6.436614990E-2,4.747377777E0,1.299766796E1
6.099246875E0,-1.165730850E1,1.769320679E-1,4.915627899E0,1.265257065E1
6.109325875E0,-1.097832047E1,1.148112488E-1,4.727020111E0,1.195330168E1
6.119404875E0,-1.051772827E1,-7.409591675E-2,4.175866241E0,1.131662304E1
6.129482875E0,-1.060335022E1,-4.138893127E-1,3.860023041E0,1.129168358E1
6.139561875E0,-1.083252365E1,-7.830216980E-1,3.924089813E0,1.154795101E1
6.149640875E0,-1.101394638E1,-1.108145599E0,4.159550171E0,1.182526360E1
6.159718875E0,-1.097622482E1,-1.352736969E0,4.438869324E0,1.191683555E1
6.169797875E0,-1.092084000E1,-1.260379028E0,4.628225555E0,1.192785703E1
6.179876875E0,-1.066891388E1,-9.496252441E-1,4.696932678E0,1.169566963E1
6.189954875E0,-1.040531204E1,-4.861889648E-1,4.718637543E0,1.143557776E1
6.200033875E0,-1.057041870E1,-2.442919922E-1,4.555626526E0,1.151291289E1
6.210111875E0,-1.092877350E1,-2.239343262E-1,4.239034882E0,1.172423360E1
6.220190875E0,-1.146570694E1,-4.502636719E-1,3.764222260E0,1.207619734E1
6.230269875E0,-1.237012619E1,-9.864486694E-1,3.465144196E0,1.288411143E1
6.240347875E0,-1.322993820E1,-1.445543976E0,3.401676178E0,1.373653024E1
6.250426875E0,-1.383258499E1,-1.744023285E0,3.390449524E0,1.434842057E1
6.260505875E0,-1.441023376E1,-1.884281616E0,3.274291077E0,1.489719223E1
6.270583875E0,-1.469374420E1,-1.593885498E0,3.088527374E0,1.509919173E1
6.280662875E0,-1.490450592E1,-1.037492523E0,2.902164917E0,1.521983077E1
6.290741875E0,-1.547422119E1,-6.879693604E-1,2.819536743E0,1.574403413E1
6.300819875E0,-1.628748001E1,-5.956114197E-1,2.913092194E0,1.655665619E1
6.310899500E0,-1.714220261E1,-6.984475708E-1,3.031046906E0,1.742211768E1
6.320978500E0,-1.757869492E1,-9.512718201E-1,3.010090485E0,1.785990139E1
6.331056500E0,-1.784678741E1,-1.433718567E0,2.664608917E0,1.810147813E1
6.341135500E0,-1.764365982E1,-1.836680603E0,2.386487274E0,1.789881139E1
6.351213500E0,-1.683414322E1,-2.001487885E0,2.405048676E0,1.712245867E1
6.361292500E0,-1.596445175E1,-2.167043610E0,2.655328217E0,1.632821379E1
6.371371500E0,-1.521780441E1,-2.434387665E0,2.998414764E0,1.570026451E1
6.381449500E0,-1.453746918E1,-2.772833862E0,3.283122711E0,1.515933747E1
6.391528500E0,-1.400697235E1,-3.191064148E0,3.111878815E0,1.469904604E1
6.401607500E0,-1.338441696E1,-3.537892914E0,2.461780701E0,1.406128258E1
6.411685500E0,-1.258358231E1,-3.724255371E0,1.740131378E0,1.323800132E1
6.421764500E0,-1.193423264E1,-3.938609619E0,1.339564362E0,1.263855162E1
6.431842500E0,-1.143038040E1,-4.125421143E0,1.125210114E0,1.220404824E1
6.441921500E0,-1.105780518E1,-4.271667023E0,8.851094055E-1,1.188720376E1
6.452000500E0,-1.076426559E1,-4.417314148E0,8.325686646E-1,1.166512960E1
6.462078500E0,-1.043569885E1,-4.571343842E0,9.059161377E-1,1.142898417E1
6.472157500E0,-1.011476624E1,-4.750670929E0,1.096469879E0,1.122851800E1
6.482236500E0,-9.861043854E0,-4.876559143E0,1.036893768E0,1.104971328E1
6.492314500E0,-9.725874939E0,-5.057981873E0,8.342152405E-1,1.099416841E1
6.502393500E0,-9.579928436E0,-5.325325928E0,6.953041077E-1,1.098260319E1
6.512472500E0,-9.443711700E0,-5.644462280E0,8.286767578E-1,1.103314780E1
6.522550500E0,-9.273066559E0,-5.911806335E0,9.979747009E-1,1.104242596E1
6.532629500E0,-9.113199005E0,-6.230942688E0,9.665400696E-1,1.108193316E1
6.542708500E0,-8.878636780E0,-6.504573669E0,9.651928711E-1,1.104858665E1
6.552786500E0,-8.418044586E0,-6.622229004E0,1.093925171E0,1.076633939E1
6.562865500E0,-7.942034454E0,-6.654711456E0,1.412163391E0,1.045730851E1
6.572944500E0,-7.530540161E0,-6.692283325E0,1.884880371E0,1.024931535E1
6.583022500E0,-7.158414001E0,-6.683601379E0,2.414778442E0,1.008685151E1
6.593101500E0,-6.894812164E0,-6.649771729E0,2.939437408E0,1.001988977E1
6.603179500E0,-6.762786713E0,-6.619384918E0,3.287613373E0,1.001798096E1
6.613258500E0,-6.625222778E0,-6.593937836E0,3.299438782E0,9.912612638E0
6.623337500E0,-6.516698456E0,-6.603667603E0,2.984793091E0,9.746013255E0
6.633415500E0,-6.246061249E0,-6.567143555E0,2.503094788E0,9.402453888E0
6.643494500E0,-5.789510651E0,-6.536906433E0,1.957778778E0,8.948881329E0
6.653573500E0,-5.317093048E0,-6.579867096E0,1.463207245E0,8.585284208E0
6.663651500E0,-4.913532257E0,-6.721472626E0,1.144370270E0,8.404199951E0
6.673730500E0,-4.571942596E0,-6.731052704E0,1.082249451E0,8.208592661E0
6.683809500E0,-4.204157410E0,-6.508465576E0,1.067130890E0,7.821370214E0
6.693887500E0,-4.003125458E0,-6.154751129E0,9.502239990E-1,7.403303353E0
6.703966500E0,-3.898343353E0,-5.657335510E0,8.589138794E-1,6.923890455E0
6.714045500E0,-3.851640472E0,-5.130431213E0,8.183482361E-1,6.467314172E0
6.724123500E0,-3.837420044E0,-4.664150848E0,7.033872986E-1,6.080694814E0
6.734202500E0,-3.864214325E0,-4.252057800E0,6.932084656E-1,5.787286572E0
6.744280500E0,-4.230203247E0,-3.898792419E0,8.855584717E-1,5.820602688E0
6.754359500E0,-4.893473969E0,-3.521427155E0,1.217418365E0,6.150499505E0
6.764438500E0,-5.216651917E0,-3.308270416E0,1.412163391E0,6.336585501E0
6.774516500E0,-5.294340363E0,-3.401676178E0,1.503024445E0,6.469970879E0
6.784595500E0,-5.359454956E0,-3.771107941E0,1.792073364E0,6.793860425E0
6.794674500E0,-5.595663757E0,-3.965703278E0,2.372266846E0,7.257127900E0
6.804752500E0,-6.130800934E0,-3.933370514E0,2.923121338E0,7.848742705E0
6.814831500E0,-7.313341827E0,-3.829636230E0,3.579955444E0,8.998175555E0
6.824910500E0,-9.200617218E0,-3.485651550E0,4.558919678E0,1.084365587E1
6.834988500E0,-1.125644211E1,-2.784210205E0,5.504653015E0,1.283590746E1
6.845067500E0,-1.282278488E1,-1.916015625E0,5.823639679E0,1.421301189E1
6.855146500E0,-1.412507675E1,-1.149459686E0,5.566773834E0,1.522589970E1
6.865224500E0,-1.511990799E1,-7.337741089E-1,5.015320587E0,1.594689571E1
6.875303500E0,-1.564771042E1,-6.521937561E-1,4.561614075E0,1.631209738E1
6.885381500E0,-1.573183548E1,-5.614823914E-1,4.431684265E0,1.635376823E1
6.895460500E0,-1.552227127E1,-6.704557800E-1,4.926704865E0,1.629916676E1
6.905539500E0,-1.485061798E1,-8.241860962E-1,6.082002411E0,1.606894180E1
6.915617500E0,-1.410876068E1,-9.681866455E-1,7.517816620E0,1.601599451E1
6.925696500E0,-1.358305389E1,-8.366102600E-1,8.813073120E0,1.621325161E1
6.935775500E0,-1.339833801E1,-3.896397400E-1,9.493707733E0,1.642552182E1
6.945853500E0,-1.341285782E1,1.122665405E-1,9.427844696E0,1.639517046E1
6.955932500E0,-1.356015152E1,4.508624268E-1,8.613238678E0,1.607074568E1
6.966011500E0,-1.369202728E1,5.408253479E-1,7.362589417E0,1.555544362E1
6.976089500E0,-1.353575226E1,7.565267944E-1,6.126010895E0,1.487672449E1
6.986168500E0,-1.318293594E1,9.821076965E-1,5.007985840E0,1.413627454E1
6.996246500E0,-1.271860153E1,1.340013428E0,3.879183197E0,1.336437515E1
7.006325500E0,-1.253208939E1,1.614692230E0,3.168760529E0,1.302695431E1
7.016404500E0,-1.252699997E1,1.683249664E0,3.246748352E0,1.304992079E1
7.026482500E0,-1.247371078E1,1.938019867E0,3.613934784E0,1.313049528E1
7.036561500E0,-1.289882675E1,1.901046753E0,3.848946075E0,1.359441416E1
7.046640500E0,-1.271111710E1,1.829345856E0,4.149071960E0,1.349569569E1
7.056718500E0,-1.181747543E1,1.310375061E0,4.508923645E0,1.271613938E1
7.066797500E0,-1.128203888E1,1.312620392E0,4.509372711E0,1.222054892E1
7.076876500E0,-1.031025970E1,1.019978943E0,4.653373260E0,1.135762717E1
7.086954500E0,-9.546697540E0,3.505709839E-1,5.204078064E0,1.087863789E1
7.097033500E0,-8.916508026E0,3.981719971E-2,6.084397430E0,1.079470207E1
7.107112500E0,-8.234975281E0,1.657054138E-1,7.140750732E0,1.090103652E1
7.117190500E0,-7.916437683E0,1.002914429E-1,7.641160126E0,1.100306194E1
7.127269500E0,-8.101153564E0,1.077758789E-2,7.651937714E0,1.114365093E1
7.137347500E0,-8.427474976E0,-6.586303711E-3,7.262148285E0,1.112480002E1
7.147426500E0,-8.767567749E0,1.100212097E-1,6.698869629E0,1.103436465E1
7.157505500E0,-9.433832245E0,2.610571289E-1,5.957611084E0,1.116057666E1
7.167583500E0,-1.026909531E1,5.057981873E-1,5.282664642E0,1.155926883E1
7.177662500E0,-1.065933380E1,6.457571411E-1,4.742288361E0,1.168450676E1
7.187741500E0,-1.083282303E1,6.083349609E-1,4.271816711E0,1.166055506E1
7.197819500E0,-1.098056580E1,3.412902832E-1,3.812272339E0,1.162853063E1
7.207898500E0,-1.095541809E1,2.230361938E-2,3.444187775E0,1.148408083E1
7.217977500E0,-1.066756668E1,-2.142045593E-1,3.196003876E0,1.113810142E1
7.228055500E0,-1.049243088E1,-6.122268677E-2,2.872526550E0,1.087870685E1
7.238134500E0,-1.051937485E1,3.391946411E-1,2.246228943E0,1.076186994E1
7.248212500E0,-1.122665405E1,8.803193665E-1,1.737436981E0,1.139435872E1
7.258291500E0,-1.257714569E1,1.402283936E0,1.771266632E0,1.277843415E1
7.268370500E0,-1.393781616E1,1.804796906E0,2.073937225E0,1.420637979E1
7.278448500E0,-1.475915817E1,1.843117218E0,2.392025757E0,1.506491348E1
7.288527500E0,-1.539982590E1,1.242416382E0,2.468816071E0,1.564587131E1
7.298606500E0,-1.571417221E1,3.424877930E-1,2.401306458E0,1.590027606E1
7.308683917E0,-1.541449539E1,-4.975653076E-1,2.370021515E0,1.560356502E1
7.318762917E0,-1.472083786E1,-1.157692566E0,2.484533386E0,1.497385139E1
7.328841917E0,-1.392629013E1,-1.395098877E0,2.580334167E0,1.423186503E1
7.338919917E0,-1.400682266E1,-1.068927155E0,2.612367554E0,1.428839216E1
7.348998917E0,-1.521091873E1,-4.638853455E-1,2.864742737E0,1.548528299E1
7.359076917E0,-1.613105530E1,-2.362088013E-1,3.028502197E0,1.641458392E1
7.369155917E0,-1.668999298E1,2.363584900E-1,2.670147400E0,1.690388766E1
7.379234917E0,-1.738439896E1,5.974076843E-1,2.103425903E0,1.752137619E1
7.389312917E0,-1.760863266E1,5.195695496E-1,1.813628540E0,1.770940838E1
7.399391917E0,-1.697245560E1,4.575984192E-1,1.617835693E0,1.705552807E1
7.409470917E0,-1.597867218E1,2.643502808E-1,1.054407349E0,1.601560553E1
7.419548917E0,-1.555161026E1,-1.562750244E-1,9.759704590E-1,1.558298822E1
7.429627917E0,-1.489896744E1,-7.464976501E-1,1.220861206E0,1.496753124E1
7.439706917E0,-1.350326981E1,-8.479866028E-1,1.192869415E0,1.358235304E1
7.449784917E0,-1.262429764E1,-7.696994019E-1,6.503974915E-1,1.266445202E1
7.459863917E0,-1.252310806E1,-7.348219299E-1,2.977308655E-1,1.254818084E1
7.469941917E0,-1.269016068E1,-7.168592834E-1,6.854246521E-1,1.272885981E1
7.480020917E0,-1.249421814E1,-8.187973022E-1,1.132844238E0,1.257216179E1
7.490099917E0,-1.245215561E1,-1.010698242E0,1.708247681E0,1.260935369E1
7.500177917E0,-1.162198196E1,-8.764274597E-1,1.682950287E0,1.177586139E1
7.510256917E0,-1.111049561E1,-1.055155792E0,1.263971558E0,1.123183380E1
7.520335917E0,-1.057251434E1,-1.244212646E0,1.649569702E0,1.077252082E1
7.530413917E0,-9.783804474E0,-1.333726501E0,1.810784454E0,1.003895396E1
7.540492917E0,-9.030121765E0,-1.616638184E0,1.847308502E0,9.357839858E0
7.550571917E0,-8.136779480E0,-1.828896790E0,1.946252747E0,8.563874329E0
7.560649917E0,-7.260202332E0,-2.023492126E0,1.899849243E0,7.772675564E0
7.570728917E0,-6.552623749E0,-2.166744232E0,1.766326904E0,7.124013566E0
7.580807917E0,-5.972879333E0,-2.125430145E0,1.627715149E0,6.545395133E0
7.590885917E0,-5.698200531E0,-2.066303101E0,1.479074249E0,6.239131224E0
7.600964917E0,-5.521268463E0,-2.133663025E0,1.380878448E0,6.078136938E0
7.611042917E0,-5.092260590E0,-2.123035126E0,1.341510315E0,5.677855756E0
7.621121917E0,-4.706662445E0,-2.135309601E0,1.265917511E0,5.321162054E0
7.631200917E0,-4.311334534E0,-2.085463257E0,1.433269501E0,4.999102311E0
7.641278917E0,-3.971241760E0,-1.954036560E0,1.789229279E0,4.773925157E0
7.651357917E0,-3.709885254E0,-1.801653442E0,2.186952209E0,4.668186338E0
7.661436917E0,-3.503165131E0,-1.666035461E0,2.530487823E0,4.631544960E0
7.671514917E0,-3.479514313E0,-1.624421997E0,2.726729736E0,4.709651976E0
7.681593917E0,-3.659889221E0,-1.725761261E0,2.853965149E0,4.951581375E0
7.691672917E0,-3.987108765E0,-1.961221619E0,2.873724060E0,5.291664815E0
7.701750917E0,-4.004472656E0,-2.183209991E0,2.657124481E0,5.278495773E0
7.711829917E0,-3.935615845E0,-2.384990387E0,2.257455597E0,5.125754285E0
7.721907917E0,-3.995042267E0,-2.567011871E0,2.002236328E0,5.153529177E0
7.731986917E0,-4.107009430E0,-2.640958099E0,1.926793213E0,5.249258826E0
7.742065917E0,-4.293671265E0,-2.722987518E0,2.038910065E0,5.477903632E0
7.752143917E0,-4.626429291E0,-2.793790283E0,2.382894745E0,5.906547172E0
7.762222917E0,-5.040767670E0,-2.820135498E0,2.908900909E0,6.467163785E0
7.772301917E0,-5.284011841E0,-2.812800751E0,3.260819092E0,6.816565876E0
7.782379917E0,-5.700146484E0,-2.852917328E0,3.470982056E0,7.257997221E0
7.792458917E0,-6.308631134E0,-2.784808960E0,3.692671051E0,7.822391400E0
7.802537917E0,-6.663992157E0,-2.668051758E0,3.614234161E0,8.036789174E0
7.812615917E0,-6.833739166E0,-2.749183044E0,3.199746094E0,8.030963421E0
7.822694917E0,-7.147486725E0,-2.857557678E0,2.866239624E0,8.213862182E0
7.832772917E0,-7.612419891E0,-2.999312897E0,2.915038147E0,8.685750506E0
7.842851917E0,-8.029452667E0,-3.287014618E0,3.010988617E0,9.183824241E0
7.852930917E0,-8.415499878E0,-3.596720581E0,3.063529358E0,9.651023223E0
7.863008917E0,-8.674611053E0,-3.969894562E0,3.083437958E0,1.002579321E1
7.873087917E0,-8.848249969E0,-4.407135315E0,3.241060181E0,1.040282848E1
7.883166917E0,-9.071435852E0,-4.741839294E0,3.731590118E0,1.089498752E1
7.893244917E0,-9.665999451E0,-5.040617981E0,4.257895660E0,1.170337774E1
7.903323917E0,-1.038121216E1,-5.373525696E0,4.625082092E0,1.257122622E1
7.913402917E0,-1.092368408E1,-5.674100647E0,4.603526917E0,1.314209847E1
7.923480917E0,-1.128278732E1,-5.874833221E0,4.316423950E0,1.343303655E1
7.933559917E0,-1.158126663E1,-5.959557037E0,3.641327820E0,1.352410164E1
7.943638917E0,-1.248329086E1,-5.941744080E0,3.109334106E0,1.417056216E1
7.953716917E0,-1.455168961E1,-5.390141144E0,3.535497894E0,1.591555960E1
7.963795917E0,-1.611773300E1,-4.316873016E0,4.116739197E0,1.718616453E1
7.973873917E0,-1.688967773E1,-3.721261597E0,4.450994110E0,1.785834120E1
7.983952917E0,-1.703861801E1,-3.164569244E0,5.594615936E0,1.821067626E1
7.994031917E0,-1.638103546E1,-2.687810669E0,7.084318085E0,1.804855151E1
8.004109917E0,-1.541868668E1,-2.733465729E0,8.299940186E0,1.772277464E1
8.014188917E0,-1.457773544E1,-3.038381653E0,9.238488464E0,1.752403500E1
8.024267917E0,-1.356419312E1,-3.192710724E0,9.850415955E0,1.706491814E1
8.034345917E0,-1.259750336E1,-3.311563568E0,1.006267456E1,1.645967689E1
8.044424917E0,-1.174113419E1,-3.343297577E0,1.012479538E1,1.586011829E1
8.054503917E0,-1.085213287E1,-3.062631226E0,9.792037354E0,1.493427244E1
8.064581917E0,-1.044453049E1,-2.916085968E0,9.147926788E0,1.418718926E1
8.074660917E0,-1.031939072E1,-2.707569580E0,9.000633087E0,1.395822889E1
8.084738917E0,-1.005369324E1,-2.372117157E0,8.861272888E0,1.360977019E1
8.094817917E0,-9.828262024E0,-2.252815247E0,8.796757050E0,1.338106294E1
8.104896917E0,-9.609417114E0,-2.224524078E0,8.987610168E0,1.334415757E1
8.114974917E0,-9.300160217E0,-2.333198090E0,9.444460144E0,1.345862626E1
8.125053917E0,-8.868757324E0,-2.562221832E0,9.839488678E0,1.349204857E1
8.135132917E0,-8.468190308E0,-2.778372345E0,1.004905289E1,1.343179303E1
8.145210917E0,-8.191116486E0,-2.957699432E0,1.031684601E1,1.350109947E1
8.155289917E0,-7.759863281E0,-2.950664062E0,1.052910461E1,1.340835339E1
8.165368917E0,-7.419321442E0,-2.856958923E0,1.079135925E1,1.340380466E1
8.175446917E0,-7.059320068E0,-2.776127014E0,1.105166794E1,1.340448601E1
8.185525917E0,-6.729705505E0,-2.694846039E0,1.133787277E1,1.345728391E1
8.195603917E0,-6.458319855E0,-2.718646545E0,1.158500885E1,1.353932659E1
8.205682917E0,-6.025569763E0,-2.688708801E0,1.190534271E1,1.361153302E1
8.215761917E0,-5.675148468E0,-2.434387665E0,1.217687805E1,1.365320155E1
8.225839917E0,-5.451663208E0,-2.066153412E0,1.238090378E1,1.368489679E1
8.235918917E0,-5.479654999E0,-1.549427948E0,1.237641312E1,1.362361727E1
8.245997917E0,-5.978118439E0,-1.063987427E0,1.200847824E1,1.345635608E1
8.256075917E0,-6.769373016E0,-7.735913086E-1,1.117755615E1,1.309047807E1
8.266154917E0,-7.996670837E0,-5.804928589E-1,1.022553589E1,1.299404866E1
8.276233917E0,-9.347910919E0,-4.251159668E-2,9.593550110E0,1.339482921E1
8.286311917E0,-1.010413834E1,5.674699402E-1,9.061855774E0,1.358428738E1
8.296390917E0,-1.033435959E1,9.578581238E-1,8.619375916E0,1.349111268E1
8.306468917E0,-1.055245605E1,1.316063232E0,8.139174500E0,1.339150898E1
8.316549250E0,-1.102023331E1,1.627565460E0,7.648345184E0,1.351264946E1
8.326628250E0,-1.159698395E1,1.831740875E0,6.992858276E0,1.366548126E1
8.336706250E0,-1.220247482E1,1.863175507E0,6.222560120E0,1.382360551E1
8.346785250E0,-1.283326309E1,1.820214844E0,5.204227753E0,1.396745539E1
8.356864250E0,-1.331615891E1,1.705553284E0,3.973636780E0,1.400067103E1
8.366942250E0,-1.391296783E1,1.455573120E0,2.960244141E0,1.429868569E1
8.377021250E0,-1.457369385E1,1.109043732E0,2.441423035E0,1.481833583E1
8.387100250E0,-1.513951721E1,8.253836060E-1,2.386337585E0,1.534864315E1
8.397178250E0,-1.587583603E1,5.303471375E-1,2.506986694E0,1.608130654E1
8.407257250E0,-1.653850800E1,1.752854919E-1,2.648143158E0,1.675009355E1
8.417335250E0,-1.697185684E1,-4.565505981E-2,2.983445892E0,1.723214898E1
8.427414250E0,-1.735880219E1,-1.193019104E-1,3.361409912E0,1.768166629E1
8.437493250E0,-1.776805115E1,-2.960842896E-1,3.398383026E0,1.809254860E1
8.447571250E0,-1.781340683E1,-5.147795105E-1,3.029250641E0,1.807647146E1
8.457650250E0,-1.790591446E1,-7.945477295E-1,2.647993469E0,1.811808346E1
8.467729250E0,-1.768751862E1,-8.539741516E-1,2.377356262E0,1.786699218E1
8.477807250E0,-1.741418701E1,-1.065933380E0,1.994003448E0,1.756035800E1
8.487886250E0,-1.708921280E1,-1.410666504E0,1.742227020E0,1.723561804E1
8.497965250E0,-1.676139450E1,-1.656006317E0,2.000889130E0,1.696143449E1
8.508043250E0,-1.640214157E1,-1.870360565E0,2.389930115E0,1.668053544E1
8.518122250E0,-1.589080490E1,-2.035467224E0,2.673889618E0,1.624224408E1
8.528200250E0,-1.532887344E1,-2.356250153E0,2.854264526E0,1.576937227E1
8.538279250E0,-1.458821365E1,-2.707270203E0,3.043920135E0,1.514631108E1
8.548358250E0,-1.394350433E1,-2.994373169E0,3.021915894E0,1.457805060E1
8.558436250E0,-1.327215042E1,-3.314407654E0,2.637215881E0,1.393162526E1
8.568515250E0,-1.248613495E1,-3.545527039E0,2.355501709E0,1.319176699E1
8.578594250E0,-1.216610046E1,-3.735482025E0,2.301613770E0,1.293310683E1
8.588672250E0,-1.184412003E1,-3.792214050E0,2.180216217E0,1.262606072E1
8.598751250E0,-1.137813904E1,-3.765120392E0,2.207609253E0,1.218653840E1
8.608830250E0,-1.102831650E1,-3.899391174E0,2.626138916E0,1.198856213E1
8.618908250E0,-1.061846878E1,-4.199517059E0,3.366349640E0,1.190462652E1
8.628987250E0,-1.012240036E1,-4.309538269E0,3.357667694E0,1.150256673E1
8.639065250E0,-9.371262360E0,-4.356390839E0,3.133733368E0,1.079902700E1
8.649144250E0,-8.786129150E0,-4.418062592E0,3.775149536E0,1.053409211E1
8.659223250E0,-7.758516083E0,-4.260590057E0,3.381617889E0,9.475364848E0
8.669301250E0,-6.972799988E0,-4.603227539E0,3.231330414E0,8.958300045E0
8.679380250E0,-6.044131165E0,-4.777016144E0,3.098855896E0,8.303873351E0
8.689459250E0,-5.201533356E0,-4.744683380E0,3.119363251E0,7.700545222E0
8.699537250E0,-4.594395905E0,-4.574786682E0,3.123554535E0,7.196786772E0
8.709616250E0,-4.269421692E0,-4.211192780E0,3.146456909E0,6.772170796E0
8.719695250E0,-4.235891418E0,-3.927083588E0,3.137625275E0,6.573389839E0
8.729773250E0,-4.382736053E0,-3.763623505E0,3.202290802E0,6.605142207E0
8.739852250E0,-4.173022156E0,-3.748504944E0,2.958597565E0,6.341821724E0
8.749930250E0,-3.927832031E0,-3.908821564E0,2.646197205E0,6.140774392E0
8.760009250E0,-3.824995880E0,-4.103117523E0,2.371967468E0,6.090352745E0
8.770088250E0,-3.845054169E0,-4.189188538E0,2.201322327E0,6.097504584E0
8.780166250E0,-3.785777435E0,-4.244124298E0,2.061063995E0,6.049188924E0
8.790245250E0,-3.585044861E0,-4.123924255E0,2.134710846E0,5.866539722E0
8.800324250E0,-3.350183258E0,-3.942651215E0,2.156565399E0,5.605265452E0
8.810402250E0,-3.209326172E0,-3.752396851E0,2.182910614E0,5.398643844E0
8.820481250E0,-3.231629791E0,-3.554957428E0,2.336341553E0,5.342250956E0
8.830560250E0,-3.521576843E0,-3.450325012E0,2.511327667E0,5.532902747E0
8.840638250E0,-3.801195374E0,-3.255280609E0,2.643652496E0,5.659932564E0
8.850717250E0,-4.133055267E0,-2.994223480E0,2.720742188E0,5.783593878E0
8.860795250E0,-4.394561462E0,-2.758463745E0,2.949765930E0,5.968451367E0
8.870874250E0,-4.623435516E0,-2.376458130E0,3.218906250E0,6.114332888E0
8.880953250E0,-4.679568787E0,-2.068847809E0,3.575165405E0,6.241818882E0
8.891031250E0,-4.741390228E0,-1.801653442E0,4.158951416E0,6.559238775E0
8.901110250E0,-4.994962921E0,-1.638492737E0,4.784201202E0,7.107945848E0
8.911189250E0,-5.378166046E0,-1.370100861E0,5.455704803E0,7.782452139E0
8.921267250E0,-5.863307190E0,-1.234482880E0,6.107000427E0,8.555569730E0
8.931346250E0,-6.487808533E0,-1.205892334E0,6.999594269E0,9.619779405E0
8.941425250E0,-6.917864227E0,-1.147813110E0,7.778724060E0,1.047295891E1
8.951503250E0,-6.832092590E0,-1.311572571E0,8.530610504E0,1.100768038E1
8.961582250E0,-6.474785614E0,-1.704954529E0,9.099577332E0,1.129743450E1
8.971660250E0,-5.902375946E0,-2.081122284E0,9.282197571E0,1.119501244E1
8.981739250E0,-5.643713837E0,-2.128124542E0,9.164242859E0,1.097104221E1
8.991818250E0,-5.800587616E0,-1.805994415E0,8.941356354E0,1.081000860E1
9.001896250E0,-6.235283661E0,-1.362167358E0,9.004075928E0,1.103665011E1
9.011975250E0,-6.896608429E0,-9.936337280E-1,9.623637543E0,1.188128425E1
9.022054250E0,-7.669900360E0,-7.223977661E-1,1.040231827E1,1.294439861E1
9.032132250E0,-7.737110596E0,-5.896238708E-1,1.066113007E1,1.318598616E1
9.042211250E0,-7.467221832E0,-7.047344971E-1,1.057805283E1,1.296731484E1
9.052290250E0,-7.159012756E0,-9.208850098E-1,1.045635590E1,1.270570232E1
9.062368250E0,-6.826105042E0,-1.101858673E0,1.019499939E1,1.231859631E1
9.072447250E0,-6.544540558E0,-7.976911926E-1,9.825867004E0,1.183279277E1
9.082525250E0,-6.797065430E0,-2.414479065E-1,9.817933502E0,1.194362649E1
9.092604250E0,-7.503296814E0,4.284091187E-1,1.036474640E1,1.280277178E1
9.102683250E0,-8.525221710E0,1.222807159E0,1.148591492E1,1.435621482E1
9.112761250E0,-8.839268646E0,2.071691895E0,1.254481293E1,1.548537726E1
9.122840250E0,-9.208999786E0,2.490371246E0,1.270378235E1,1.588690379E1
9.132919250E0,-9.488768005E0,2.656226349E0,1.264196091E1,1.602845695E1
9.142997250E0,-9.598938904E0,2.863844604E0,1.274180328E1,1.620786182E1
9.153076250E0,-9.668993225E0,2.859952698E0,1.332618805E1,1.671095591E1
9.163155250E0,-9.641899567E0,2.845283203E0,1.421863220E1,1.741353972E1
9.173233250E0,-9.973310394E0,3.064577179E0,1.507769577E1,1.833563370E1
9.183312250E0,-1.057416092E1,3.516337738E0,1.592867615E1,1.943965622E1
9.193390250E0,-1.090377548E1,3.958667908E0,1.622191635E1,1.994276665E1
9.203469250E0,-1.087293961E1,4.086053009E0,1.590083405E1,1.969144911E1
9.213548250E0,-1.023556503E1,4.318220215E0,1.566971466E1,1.920816948E1
9.223626250E0,-9.637259216E0,3.589984589E0,1.585398148E1,1.889744647E1
9.233705250E0,-1.072055649E1,4.464316406E0,1.587987762E1,1.967310260E1
9.243784250E0,-8.977581024E0,5.553750916E0,1.554547302E1,1.879103089E1
9.253862250E0,-7.642806702E0,3.159180450E0,1.375280090E1,1.604781755E1
9.263941250E0,-6.132148132E0,1.996548157E0,1.181642761E1,1.346170148E1
9.274020250E0,-5.343887329E0,1.971999207E0,1.072489746E1,1.214369541E1
9.284098250E0,-5.219196625E0,2.407743073E0,1.048883835E1,1.196047533E1
9.294177250E0,-6.461163940E0,1.727707214E0,1.122560623E1,1.306697543E1
9.304255250E0,-6.427483978E0,1.999242554E0,1.247026794E1,1.417099516E1
9.314332875E0,-5.972579956E0,2.449057159E0,1.342124039E1,1.489292738E1
9.324411875E0,-5.650000763E0,2.518213348E0,1.356344467E1,1.490741220E1
9.334489875E0,-4.914131012E0,2.756817169E0,1.223750198E1,1.347238581E1
9.344568875E0,-4.495751038E0,3.032244415E0,1.184307220E1,1.302553810E1
9.354647875E0,-4.168980560E0,3.502266998E0,1.186657333E1,1.305610339E1
9.364725875E0,-4.085603943E0,3.627257080E0,1.281709671E1,1.393295093E1
9.374804875E0,-4.467759247E0,3.261118469E0,1.401430710E1,1.506640534E1
9.384883875E0,-5.045707397E0,2.702180786E0,1.452594315E1,1.561294234E1
9.394961875E0,-4.871918793E0,2.396217041E0,1.503084320E1,1.598135464E1
9.405040875E0,-4.501888275E0,2.188299408E0,1.466051331E1,1.549149130E1
9.415118875E0,-4.423002319E0,1.863474884E0,1.326376785E1,1.410542540E1
9.425197875E0,-4.400549011E0,1.874701538E0,1.153516251E1,1.248756628E1
9.435276875E0,-3.637735291E0,1.838327179E0,1.043869263E1,1.120619778E1
9.445354875E0,-2.865640869E0,2.058219910E0,9.928104401E0,1.053638571E1
9.455433875E0,-2.550396423E0,2.394271088E0,9.458979950E0,1.008510573E1
9.465512875E0,-2.431543579E0,2.862796783E0,8.837023315E0,9.602134694E0
9.475590875E0,-2.897225189E0,3.408561859E0,8.416547699E0,9.531551968E0
9.485669875E0,-3.640878754E0,3.678151245E0,8.026309204E0,9.550205973E0
9.495748875E0,-3.996090088E0,3.901636505E0,7.598498840E0,9.430200848E0
9.505826875E0,-3.795806580E0,4.198768616E0,7.024143219E0,9.020886511E0
9.515905875E0,-3.676504669E0,3.919898529E0,6.214177551E0,8.215734520E0
9.525983875E0,-3.695814514E0,3.687581635E0,5.554199982E0,7.622758075E0
9.536062875E0,-4.016597443E0,3.820205841E0,5.065615997E0,7.509160613E0
9.546141875E0,-4.229005737E0,4.112248535E0,4.679568787E0,7.529504736E0
9.556219875E0,-4.007167053E0,4.281247101E0,4.521796875E0,7.404938319E0
9.566298875E0,-3.749552765E0,4.346212006E0,4.311184845E0,7.178789557E0
9.576377875E0,-3.165018311E0,4.284390564E0,4.175566864E0,6.768212618E0
9.586455875E0,-2.535876617E0,4.202660522E0,4.217779083E0,6.471683404E0
9.596534875E0,-1.971849518E0,4.057612152E0,4.218228149E0,6.176233125E0
9.606612875E0,-1.398691406E0,3.999981995E0,3.872896271E0,5.740689778E0
9.616691875E0,-9.873468018E-1,4.052223358E0,3.346890106E0,5.347620147E0
9.626770875E0,-1.153052216E0,4.387975159E0,2.963237915E0,5.418914499E0
9.636848875E0,-1.758094025E0,4.870272217E0,2.725981293E0,5.851616877E0
9.646927875E0,-2.406844940E0,5.380710754E0,2.580633545E0,6.434642203E0
9.657006875E0,-2.758763123E0,5.749693451E0,2.316283264E0,6.784903603E0
9.667084875E0,-2.749632111E0,5.903723145E0,1.975591736E0,6.805687799E0
9.677163875E0,-2.546953583E0,5.966293030E0,1.577120361E0,6.676146621E0
9.687242875E0,-2.152673492E0,5.920039215E0,1.319805450E0,6.436051111E0
9.697320875E0,-2.042053528E0,6.001918945E0,1.684447174E0,6.559754258E0
9.707399875E0,-2.229014740E0,6.210285645E0,2.770438843E0,7.156220083E0
9.717477875E0,-2.478545837E0,6.340514832E0,3.782933350E0,7.788189939E0
9.727556875E0,-2.836301880E0,6.350244598E0,4.533472595E0,8.301962936E0
9.737635875E0,-3.167263641E0,6.393354950E0,4.803810425E0,8.601345307E0
9.747713875E0,-3.311413879E0,6.404282227E0,4.929548950E0,8.733884907E0
9.757792875E0,-3.392545166E0,6.342011719E0,4.735103302E0,8.611136895E0
9.767871875E0,-3.582200775E0,6.312523041E0,4.614454193E0,8.600773049E0
9.777949875E0,-3.870501251E0,6.580465851E0,4.603077850E0,8.914686559E0
9.788028875E0,-3.623664551E0,7.245532837E0,4.261937256E0,9.153840726E0
9.798107875E0,-3.350033569E0,7.564369812E0,4.573289795E0,9.452904057E0
9.808185875E0,-2.305805054E0,7.427554321E0,4.649032288E0,9.060838888E0
9.818264875E0,-1.511556702E0,7.440876617E0,4.424349518E0,8.787850542E0
9.828342875E0,-1.962419128E0,7.083120575E0,4.054618378E0,8.394141773E0
9.838421875E0,-1.275946655E0,7.373067627E0,3.520678711E0,8.269543197E0
9.848500875E0,-8.590635681E-1,7.576195221E0,3.195405121E0,8.267244893E0
9.858578875E0,-1.233285370E0,7.408693542E0,2.730771332E0,7.991673472E0
9.868657875E0,-8.825646973E-1,7.879165192E0,2.776875458E0,8.400666752E0
9.878736875E0,-9.322613525E-1,7.945177917E0,3.337459717E0,8.667964048E0
9.888814875E0,-1.141077118E0,7.885452118E0,4.309089203E0,9.058182039E0
9.898893875E0,-1.225351868E0,7.889344025E0,5.348527679E0,9.609889941E0
9.908971875E0,-1.365759888E0,7.892786865E0,5.798042908E0,9.888310580E0
9.919050875E0,-1.629361725E0,7.975415039E0,5.541476440E0,9.847335976E0
9.929129875E0,-1.738035736E0,8.038733368E0,4.996908875E0,9.623466147E0
9.939207875E0,-1.642684021E0,8.114026794E0,4.609514465E0,9.475413723E0
9.949286875E0,-1.474134521E0,8.042176208E0,4.416715393E0,9.292849166E0
9.959365875E0,-1.352587280E0,7.941735077E0,4.140390015E0,9.057785483E0
9.969443875E0,-1.086291046E0,7.926766205E0,3.894002380E0,8.898140550E0
9.979522875E0,-8.333171082E-1,8.095615082E0,3.833079071E0,8.995882176E0
9.989601875E0,-7.089257812E-1,8.272547150E0,4.024530945E0,9.226833771E0
9.999679875E0,-3.454815674E-1,8.342601471E0,4.402345276E0,9.439226703E0
1.000975888E1,4.370910645E-2,8.471633148E0,4.642296295E0,9.660299870E0