"Time (s)","Acceleration x (m/s^2)","Acceleration y (m/s^2)","Acceleration z (m/s^2)","Absolute acceleration (m/s^2)"
1.316666720E-3,-1.325942688E0,9.746681671E0,6.770420837E-1,9.859731923E0
1.139566675E-2,-1.486259308E0,9.327702942E0,4.224215698E-1,9.454810886E0
2.147466666E-2,-2.136058044E0,8.646619263E0,2.844085693E-1,8.911097400E0
3.155366669E-2,-2.008373566E0,8.348589020E0,3.450325012E-1,8.593692479E0
4.163266672E-2,-2.005828857E0,9.315129089E0,3.106040955E-1,9.533700974E0
5.171166675E-2,-1.629661102E0,9.766141205E0,-6.676116943E-2,9.901402244E0
6.179066666E-2,-2.177072754E0,8.433761902E0,-4.296066284E-2,8.710328996E0
7.186966669E-2,-2.121238861E0,9.048383789E0,-1.465452576E-1,9.294857665E0
8.194866672E-2,-2.122885437E0,9.729617157E0,-2.613565063E-1,9.961947592E0
9.202766675E-2,-1.151106262E0,1.004950195E1,-4.947212219E-1,1.012730390E1
1.021066667E-1,8.816665649E-2,1.082234482E1,5.391787720E-1,1.083612636E1
1.121856667E-1,-2.993774414E-3,1.092503128E1,7.008425903E-1,1.094748819E1
1.222646667E-1,-6.765930176E-2,1.035666321E1,5.929170227E-1,1.037384216E1
1.323436667E-1,5.083428955E-1,9.443711700E0,6.512956238E-1,9.479783182E0
1.424226667E-1,-5.655239868E-1,9.537566528E0,7.197033691E-1,9.581386413E0
1.525016667E-1,-1.470841370E0,9.576784973E0,2.808160400E-1,9.693144093E0
1.625806667E-1,-2.084714813E0,9.103618927E0,-3.436853027E-1,9.345588960E0
1.726596667E-1,-2.521356812E0,8.571176147E0,-8.750802612E-1,8.977085618E0
1.827386667E-1,-2.775378571E0,8.571026459E0,-1.001866608E0,9.064709453E0
1.928176667E-1,-2.753823395E0,8.693920898E0,-9.012757874E-1,9.164065797E0
2.028966667E-1,-2.780018921E0,8.471034393E0,-8.433462524E-1,8.955342640E0
2.129756667E-1,-2.366428986E0,8.686885529E0,-1.194965057E0,9.082395489E0
2.230537917E-1,-1.969454498E0,9.215286713E0,-9.029223633E-1,9.466547893E0
2.331337917E-1,-1.696122894E0,9.436376953E0,-3.953279114E-1,9.595745257E0
2.432127917E-1,-7.653584290E-1,9.482780457E0,1.571731567E-2,9.513629473E0
2.532917917E-1,1.428030396E-1,9.047934723E0,1.154100037E-1,9.049797508E0
2.633707917E-1,-2.453398132E-1,8.486452332E0,5.433700562E-2,8.490171807E0
2.734497917E-1,-5.932164001E-1,8.127648468E0,-8.502319336E-2,8.149711913E0
2.835287917E-1,-5.725593567E-1,8.178842010E0,-2.008822632E-1,8.201319073E0
2.936077917E-1,-4.858895874E-1,8.381819916E0,-4.453239441E-1,8.407693334E0
3.036867917E-1,-3.303630066E-1,8.694519653E0,-8.605604553E-1,8.743247452E0
3.137657917E-1,-9.056167603E-2,9.184450836E0,-1.142424316E0,9.255672417E0
3.238447917E-1,-1.422042847E-1,9.336384888E0,-1.377585297E0,9.438540463E0
3.339237917E-1,-4.158352661E-1,9.285939789E0,-1.543739777E0,9.422564896E0
3.440027917E-1,-7.797285461E-1,9.317524109E0,-1.309476929E0,9.441343228E0
3.540817917E-1,-8.623567200E-1,9.356592865E0,-9.803114319E-1,9.447248258E0
3.641607917E-1,-1.035097504E0,9.384884033E0,-7.670050049E-1,9.472896697E0
3.742397917E-1,-9.964778137E-1,9.491462402E0,-5.706134033E-1,9.560670804E0
3.843187917E-1,-6.923103333E-1,9.449100494E0,-3.365002441E-1,9.480402215E0
3.943977917E-1,-3.784130859E-1,9.473799133E0,-2.841091919E-1,9.485609338E0
4.044767917E-1,-6.182144165E-2,9.522897034E0,-1.193019104E-1,9.523844956E0
4.145557916E-1,-1.140628052E-1,9.268875275E0,2.297721863E-1,9.272424410E0
4.246347917E-1,-2.574645996E-1,8.882528687E0,7.481442261E-1,8.917697218E0
4.347137917E-1,-5.068460083E-1,8.940757599E0,1.240620117E0,9.040640331E0
4.447927917E-1,-6.667135620E-1,9.064699860E0,1.428030396E0,9.200682656E0
4.548717916E-1,-7.304809570E-1,9.030570831E0,1.428030396E0,9.171918162E0
4.649507917E-1,-7.355703735E-1,8.970695343E0,1.517244873E0,9.127785641E0
4.750297917E-1,-7.747888184E-1,9.044192505E0,1.703906708E0,9.235854798E0
4.851087917E-1,-6.831793213E-1,9.186546478E0,1.898052979E0,9.405422654E0
4.951877916E-1,-5.766009521E-1,9.247918854E0,2.070195007E0,9.494323523E0
5.052667917E-1,-5.198689270E-1,8.645870819E0,2.337389374E0,8.971328497E0
5.153457917E-1,-3.285667419E-1,7.989785156E0,2.503094788E0,8.379147120E0
5.254247917E-1,-2.065704346E-2,7.679929504E0,2.666854248E0,8.129812758E0
5.355037916E-1,5.680686951E-1,7.365134125E0,3.100951538E0,8.011479461E0
5.455827917E-1,9.663903809E-1,6.941964111E0,3.291205902E0,7.743178442E0
5.556617917E-1,8.053253174E-1,6.446943512E0,2.978955231E0,7.147433370E0
5.657407917E-1,9.871971130E-1,5.823340302E0,2.634521484E0,6.467345194E0
5.758197916E-1,1.134341125E0,5.106481018E0,2.347268829E0,5.733458741E0
5.858987917E-1,1.075812836E0,4.528981934E0,2.185904388E0,5.142686905E0
5.959777917E-1,1.234482880E0,4.101620636E0,2.097737732E0,4.769459447E0
6.060567917E-1,1.123264160E0,4.032314758E0,1.954186249E0,4.619537702E0
6.161367917E-1,8.942404175E-1,4.362079010E0,1.938319244E0,4.856385560E0
6.262157917E-1,6.209088135E-1,5.077142029E0,2.153272247E0,5.549727949E0
6.362947917E-1,3.300636292E-1,5.907914429E0,2.516267395E0,6.429929743E0
6.463737917E-1,1.011895752E-1,6.838828583E0,2.894231415E0,7.426734895E0
6.564527916E-1,-2.796185303E-1,7.822283478E0,3.146007843E0,8.435856250E0
6.665317917E-1,-3.858975220E-1,9.037905579E0,3.389551392E0,9.660316391E0
6.766107917E-1,-5.345384216E-1,1.020592667E1,3.746109924E0,1.088485232E1
6.866897917E-1,-8.595126343E-1,1.103086121E1,3.818708954E0,1.170475113E1
6.967687916E-1,-1.102307739E0,1.158590698E1,3.679049377E0,1.220588904E1
7.068477917E-1,-1.118174744E0,1.199261124E1,3.481460266E0,1.253768737E1
7.169267917E-1,-7.937992859E-1,1.229153961E1,3.683989105E0,1.285627625E1
7.270057917E-1,-2.240840149E-1,1.285661453E1,4.378395081E0,1.358355971E1
7.370847916E-1,3.841012573E-1,1.377405670E1,5.259612579E0,1.474909137E1
7.471637917E-1,6.780899048E-1,1.459899124E1,6.575675812E0,1.602591225E1
7.572427917E-1,7.879614258E-1,1.536165527E1,7.957751770E0,1.731840493E1
7.673217917E-1,2.740800476E-1,1.608120895E1,8.648565216E0,1.826138225E1
7.774007916E-1,-9.250762939E-1,1.635004990E1,9.253157959E0,1.880959409E1
7.874797917E-1,-2.072590027E0,1.683593948E1,9.713600464E0,1.954734053E1
7.975587917E-1,-2.985092468E0,1.782583099E1,1.032283356E1,2.081422399E1
8.076377917E-1,-3.291505280E0,1.864492767E1,1.062056442E1,2.170860944E1
8.177167916E-1,-2.646047516E0,1.931238968E1,9.703870697E0,2.177464280E1
8.277957917E-1,-1.520238647E0,1.997057098E1,8.349636841E0,2.169910750E1
8.378747917E-1,-8.623567200E-1,2.145129181E1,7.624844055E0,2.278244557E1
8.479537917E-1,-2.511776733E-1,2.288860291E1,7.233108673E0,2.400560548E1
8.580327916E-1,8.523275757E-1,2.421544373E1,6.882088623E0,2.518883326E1
8.681117917E-1,1.954036560E0,2.530891983E1,5.619763641E0,2.599887354E1
8.781907917E-1,2.750081177E0,2.559826813E1,3.980372772E0,2.605144228E1
8.882697917E-1,3.266058197E0,2.425196777E1,3.657643890E0,2.474274512E1
8.983487916E-1,3.105891266E0,2.175396240E1,4.279450836E0,2.238738797E1
9.084277917E-1,2.008822632E0,1.993045441E1,4.729415131E0,2.058217065E1
9.185067917E-1,1.759441223E0,1.799078796E1,4.796625366E0,1.870218436E1
9.285857917E-1,1.853445740E0,1.555190964E1,3.746109924E0,1.610374162E1
9.386647916E-1,1.882335663E0,1.335313202E1,2.078128510E0,1.364433730E1
9.487437917E-1,1.418899384E0,1.145343246E1,8.925938416E-1,1.157545310E1
9.588227917E-1,-8.412506104E-2,8.980125732E0,8.416996765E-1,9.019877690E0
9.689017917E-1,-1.709445190E-1,5.775888977E0,1.391805725E0,5.943672155E0
9.789807916E-1,2.125579834E-1,3.712130585E0,1.236578522E0,3.918446225E0
9.890597917E-1,-1.206491089E-1,2.618654480E0,8.635542297E-1,2.760006051E0
9.991397917E-1,-3.540138245E-1,2.035616913E0,4.574487305E-1,2.116204467E0
1.009218792E0,-4.474195862E-1,1.486109619E0,2.104623413E-1,1.566205760E0
1.019297792E0,-4.348457336E-1,8.502319336E-1,-3.412902832E-2,9.555887942E-1
1.029376792E0,-2.412982178E-1,3.619473267E-1,-1.055305481E-1,4.476241657E-1
1.039455792E0,5.448669434E-2,-4.819976807E-2,-2.595602417E-1,2.695617491E-1
1.049534792E0,5.086422729E-1,-4.047583008E-1,-6.511459351E-1,9.200746017E-1
1.059613792E0,8.848100281E-1,-7.361691284E-1,-1.034947815E0,1.547885897E0
1.069692792E0,1.097966766E0,-1.041085052E0,-1.223106537E0,1.945604972E0
1.079771792E0,1.157243500E0,-1.288969574E0,-1.124611359E0,2.065285885E0
1.089850792E0,1.159189453E0,-1.463806000E0,-9.166937256E-1,2.080090282E0
1.099929792E0,1.130000153E0,-1.641336823E0,-7.658074951E-1,2.134794611E0
1.110008792E0,1.083746338E0,-1.729353790E0,-6.063890076E-1,2.129055726E0
1.120087792E0,8.220904541E-1,-1.596579895E0,-4.614903259E-1,1.854150317E0
1.130166792E0,4.673281860E-1,-1.389560394E0,-5.188211060E-1,1.555136349E0
1.140245792E0,2.243833923E-1,-1.130149841E0,-8.155041504E-1,1.411606741E0
1.150324792E0,2.065704346E-1,-8.312214661E-1,-1.137334900E0,1.423773558E0
1.160403792E0,1.672023010E-1,-7.711962891E-1,-1.188678131E0,1.426764180E0
1.170482792E0,-3.966751099E-2,-8.916957092E-1,-1.064586182E0,1.389258251E0
1.180561792E0,-3.619473267E-1,-1.122964783E0,-7.346722412E-1,1.389891748E0
1.190640792E0,-5.484594727E-1,-1.270557861E0,-4.599934387E-1,1.458327479E0
1.200719792E0,-6.072871399E-1,-1.360221405E0,-1.416055298E-1,1.496346239E0
1.210798792E0,-5.951623535E-1,-1.379680939E0,2.089654541E-1,1.517037996E0
1.220877917E0,-5.123844910E-1,-1.353485413E0,4.843927002E-1,1.526137909E0
1.230956917E0,-5.447172546E-1,-1.118474121E0,7.695497131E-1,1.462842441E0
1.241035917E0,-6.030958557E-1,-6.264472961E-1,9.322613525E-1,1.274861583E0
1.251114917E0,-5.227130127E-1,2.791694641E-1,9.654922485E-1,1.132845870E0
1.261193917E0,-6.539900208E-1,1.947450256E0,8.894503784E-1,2.238612835E0
1.271272917E0,-1.042581940E0,4.577331390E0,1.068478088E0,4.814622019E0
1.281351917E0,-1.787433014E0,8.680598602E0,2.207459564E0,9.133487100E0
1.291430917E0,-2.610571289E0,1.655108185E1,4.703369293E0,1.740330645E1
1.301509917E0,-2.779569855E0,2.516791306E1,7.361092529E0,2.636921575E1
1.311588917E0,-1.012494507E0,2.943359253E1,7.591463470E0,3.041367837E1
1.321667917E0,1.220711517E0,3.104484192E1,4.028422852E0,3.132890897E1
1.331746917E0,2.064506836E0,3.050491470E1,9.116043091E-2,3.057483148E1
1.341825917E0,2.184407501E0,2.906311295E1,-2.680475922E0,2.926809050E1
1.351904917E0,2.416125641E0,2.629776352E1,-2.270478516E0,2.650594465E1
1.361983917E0,3.370540924E0,2.322764786E1,2.405497742E-1,2.347215447E1
1.372062917E0,2.595003662E0,2.153586594E1,1.400038605E0,2.173678159E1
1.382141917E0,1.103355560E0,2.048609894E1,1.140777740E0,2.054748201E1
1.392220917E0,3.974235535E-1,1.898606827E1,3.754193115E-1,1.899393781E1
1.402299917E0,1.064586182E0,1.727662308E1,-1.713935852E-1,1.731024045E1
1.412378917E0,1.915566559E0,1.563603470E1,-2.245330811E-2,1.575295148E1
1.422458917E0,2.664010162E0,1.425306061E1,1.646575928E-1,1.450082063E1
1.432537917E0,3.004102936E0,1.290256897E1,-1.049317932E-1,1.324809160E1
1.442616917E0,2.566263428E0,1.168515060E1,-2.507286072E-1,1.196625745E1
1.452695917E0,2.021695862E0,1.051129166E1,1.847158813E-1,1.070554185E1
1.462774917E0,1.806144104E0,9.536369019E0,7.119195557E-1,9.731974108E0
1.472853917E0,1.585502930E0,8.622519379E0,1.085093536E0,8.833973509E0
1.482932917E0,1.217268677E0,7.612419891E0,1.366208954E0,7.829253256E0
1.493011917E0,1.043779449E0,6.824757843E0,1.528920593E0,7.071378461E0
1.503090917E0,1.286574554E0,6.575825500E0,1.455872498E0,6.856844743E0
1.513169917E0,1.051114197E0,6.559359741E0,1.530866547E0,6.817154366E0
1.523248917E0,2.948867798E-1,6.217919769E0,2.045496368E0,6.552369027E0
1.533327917E0,-6.665638733E-1,5.790408783E0,2.086660767E0,6.190904169E0
1.543406917E0,-1.725012817E0,4.896168365E0,1.420396271E0,5.381975423E0
1.553485917E0,-1.971400452E0,3.981719971E0,5.894741821E-1,4.481963128E0
1.563564917E0,-1.445543976E0,2.855462036E0,-4.805007935E-1,3.236377889E0
1.573643917E0,-3.597019958E-1,1.777852936E0,-1.419049072E0,2.303008219E0
1.583722917E0,2.204914856E-1,8.048762512E-1,-2.027982788E0,2.192978902E0
1.593801917E0,9.747729492E-1,1.489402771E-1,-2.154918823E0,2.369818694E0
1.603880917E0,1.550326080E0,-3.484753418E-1,-1.700763245E0,2.327561306E0
1.613959917E0,1.985022125E0,-6.340814209E-1,-1.019529877E0,2.319873543E0
1.624038917E0,2.151475983E0,-3.710783386E-1,-5.348377991E-1,2.247798814E0
1.634117917E0,1.831890564E0,2.839595032E-1,-7.125183105E-2,1.855136885E0
1.644196917E0,1.450184326E0,9.075627136E-1,2.546205139E-1,1.729605812E0
1.654275917E0,1.066232758E0,1.514849854E0,4.420307922E-1,1.904471999E0
1.664354917E0,6.203100586E-1,2.229314117E0,6.053411865E-1,2.391874569E0
1.674433917E0,3.658392334E-1,2.918031921E0,9.427395630E-1,3.088285369E0
1.684512917E0,1.073268127E-1,3.373385010E0,1.554966431E0,3.716068631E0
1.694591917E0,-1.499880981E-1,3.819756775E0,2.215991821E0,4.418558362E0
1.704670917E0,-1.131646729E-1,4.266727295E0,2.774181061E0,5.090564665E0
1.714749917E0,-8.322692871E-2,5.101541290E0,3.038980408E0,5.938691116E0
1.724828917E0,-2.716850281E-1,6.520889740E0,3.277284851E0,7.303178195E0
1.734907917E0,-5.128335571E-1,9.256451111E0,3.634591827E0,9.957667557E0
1.744986917E0,-1.133442993E0,1.426773010E1,4.632865906E0,1.504381141E1
1.755065917E0,-1.384470978E0,2.112961075E1,7.249574432E0,2.238154462E1
1.765144917E0,-1.167572021E-2,2.674488373E1,9.976004791E0,2.854487018E1
1.775223917E0,1.514550476E0,2.826961304E1,9.571096802E0,2.988428983E1
1.785302917E0,1.380579071E0,2.687077194E1,6.547833710E0,2.769148804E1
1.795381917E0,7.448510742E-1,2.489368332E1,4.954397278E0,2.539284003E1
1.805460917E0,6.313870239E-1,2.512165924E1,5.413342896E0,2.570604392E1
1.815539917E0,1.056053925E0,2.665147797E1,6.279591522E0,2.740163859E1
1.825618917E0,9.107061768E-1,2.798340820E1,6.556365967E0,2.875563345E1
1.835697917E0,1.069525909E0,2.881058807E1,6.040239258E0,2.945638065E1
1.845776917E0,1.770967255E0,2.907059738E1,5.144501953E0,2.957535896E1
1.855855917E0,1.735790405E0,2.903586960E1,4.614304504E0,2.945142607E1
1.865934917E0,1.760788422E0,2.834819962E1,4.790488129E0,2.880398538E1
1.876013917E0,1.687291260E0,2.734902740E1,5.156926117E0,2.788207558E1
1.886093917E0,2.418071594E0,2.524350586E1,4.791985016E0,2.580784336E1
1.896172917E0,3.048560486E0,2.184961349E1,3.042872314E0,2.227012355E1
1.906251917E0,3.414100342E0,1.926912964E1,9.015751648E-1,1.959000449E1
1.916330917E0,3.832929382E0,1.623898087E1,-4.436773682E-1,1.669109633E1
1.926409917E0,2.673440552E0,1.395967072E1,-8.666976929E-1,1.423976319E1
1.936488917E0,7.488926697E-1,1.124895767E1,3.156935120E-1,1.127827785E1
1.946567917E0,4.677772522E-1,6.947951660E0,1.710193634E0,7.170607373E0
1.956646917E0,-2.874023438E-2,3.830833740E0,2.226320343E0,4.430870729E0
1.966725917E0,-5.658233643E-2,2.433788910E0,1.650467834E0,2.941185831E0
1.976804917E0,-2.269281006E-1,1.341959381E0,9.547146606E-1,1.662477497E0
1.986883917E0,-4.397854614E-1,1.176553345E-1,2.101629639E-1,5.014204834E-1
1.996962917E0,-4.577481079E-1,-8.882528687E-1,-5.414241028E-1,1.136515089E0
2.007041917E0,-5.388793945E-1,-1.578467560E0,-1.077459412E0,1.985666040E0
2.017120917E0,-6.471043396E-1,-1.986369324E0,-1.434616699E0,2.534271530E0
2.027199917E0,-7.593708801E-1,-2.402204590E0,-1.873653717E0,3.139714840E0
2.037278917E0,-7.162605286E-1,-2.802621918E0,-2.327509918E0,3.712818495E0
2.047357917E0,-5.674699402E-1,-3.119812317E0,-2.613115997E0,4.108969000E0
2.057436917E0,-2.329156494E-1,-3.405119019E0,-2.359393616E0,4.149195520E0
2.067515917E0,1.368154907E-1,-3.445834351E0,-1.528172150E0,3.771976003E0
2.077594917E0,6.523434448E-1,-3.216810608E0,-4.963677979E-1,3.319608930E0
2.087673917E0,7.132667542E-1,-1.716330872E0,1.945953369E-1,1.868798670E0
2.097752917E0,4.656816101E-1,-2.996768188E-1,7.259902954E-2,5.585124679E-1
2.107831917E0,4.810995483E-1,-7.379653931E-2,-2.103126526E-1,5.302208186E-1
2.117910917E0,6.538403320E-1,-9.939331055E-2,-3.968247986E-1,7.712691688E-1
2.127989917E0,6.994953918E-1,-3.092568970E-1,-6.616241455E-1,1.011276491E0
2.138068917E0,4.218228149E-1,-5.249583435E-1,-8.547225952E-1,1.088148181E0
2.148147917E0,-1.377136230E-1,-9.114546204E-1,-6.408174133E-1,1.122658240E0
2.158226917E0,-7.274871826E-1,-1.276545410E0,-8.681945801E-2,1.471850333E0
2.168305917E0,-1.178648987E0,-1.567390594E0,5.935157776E-1,2.048947947E0
2.178384917E0,-1.860032043E0,-1.843117218E0,1.146765289E0,2.858648441E0
2.188463917E0,-2.157463531E0,-1.789378967E0,1.426234131E0,3.144943525E0
2.198542917E0,-2.091450806E0,-1.485061798E0,1.456171875E0,2.949578198E0
2.208621917E0,-1.778302002E0,-9.120533752E-1,1.353635101E0,2.413820076E0
2.218701583E0,-1.393452301E0,-1.544787598E-1,1.333726501E0,1.935045060E0
2.228780583E0,-1.020727386E0,5.315446472E-1,1.449884949E0,1.851105203E0
2.238859583E0,-9.319619751E-1,1.243613892E0,1.497186584E0,2.157937975E0
2.248938583E0,-9.264234924E-1,1.718725891E0,1.424288177E0,2.416790431E0
2.259017583E0,-1.047072601E0,2.146236877E0,1.558708649E0,2.851712892E0
2.269096583E0,-1.280886383E0,3.632945251E0,1.998194733E0,4.339555659E0
2.279175583E0,-1.593137054E0,9.977351990E0,3.018772430E0,1.054507588E1
2.289254583E0,-3.046165466E0,2.558584396E1,6.091881866E0,2.647688728E1
2.299333583E0,-4.492607574E0,3.077360596E1,1.119402191E1,3.305305543E1
2.309412583E0,3.149600372E0,3.224579453E1,1.076216995E1,3.413994067E1
2.319491583E0,6.633755035E0,3.333103775E1,6.237229614E0,3.455239234E1
2.329570583E0,2.807411957E0,3.159180450E1,1.085392914E0,3.173486650E1
2.339649583E0,5.032534790E-1,2.936353821E1,-2.529889069E0,2.947661749E1
2.349728583E0,9.360035706E-1,2.611185013E1,-5.462141418E0,2.669344130E1
2.359807583E0,2.589914246E0,2.175905182E1,-5.830225983E0,2.267499784E1
2.369886583E0,2.731669464E0,1.853700211E1,-4.539160767E0,1.927917129E1
2.379965583E0,2.694396973E0,1.706631042E1,-2.681523743E0,1.748454449E1
2.390044583E0,2.461331635E0,1.688428894E1,-3.962260437E-1,1.706734782E1
2.400124583E0,1.946103058E0,1.698981949E1,1.886526947E0,1.720465830E1
2.410203583E0,1.694925385E0,1.694401474E1,3.881578217E0,1.746536736E1
2.420282583E0,1.910477142E0,1.640064468E1,5.151986389E0,1.729664802E1
2.430361583E0,2.074985046E0,1.526330978E1,5.381010132E0,1.631653942E1
2.440440583E0,1.832339630E0,1.395338379E1,4.665647736E0,1.482641752E1
2.450519583E0,1.762734375E0,1.287083496E1,3.225791931E0,1.338549060E1
2.460598583E0,1.915716248E0,1.211820007E1,1.867666168E0,1.241003298E1
2.470677583E0,1.765578461E0,1.110600494E1,1.150058441E0,1.130412524E1
2.480756583E0,1.700763245E0,1.028271698E1,1.110241241E0,1.048138825E1
2.490835583E0,1.709295502E0,9.512418823E0,1.129551086E0,9.730554385E0
2.500914583E0,1.526675262E0,8.583151245E0,9.795629883E-1,8.772728555E0
2.510993583E0,8.548722839E-1,7.956554260E0,7.719447327E-1,8.039493827E0
2.521072583E0,-4.490661621E-2,7.659871216E0,1.138233032E0,7.744108605E0
2.531151583E0,-1.452878723E0,7.116501160E0,1.407073975E0,7.398331062E0
2.541230583E0,-3.331921234E0,5.445226593E0,1.593735809E0,6.579679748E0
2.551309583E0,-3.636837158E0,3.927832031E0,1.137334900E0,5.472474729E0
2.561388583E0,-1.422342224E0,2.925216980E0,-1.332229614E-2,3.252711064E0
2.571467583E0,-4.339476013E-1,1.713337097E0,-1.174008636E0,2.121822520E0
2.581546583E0,-5.688171387E-3,1.005908203E-1,-2.175575867E0,2.177907533E0
2.591625583E0,6.444099426E-1,-1.278191986E0,-2.817590790E0,3.160357066E0
2.601704583E0,1.215771790E0,-2.339934082E0,-2.972967682E0,3.973906062E0
2.611783583E0,1.567839661E0,-3.039878540E0,-2.671494598E0,4.340030660E0
2.621862583E0,1.723366241E0,-3.319048004E0,-2.164349213E0,4.320934895E0
2.631941583E0,1.918710022E0,-3.318898315E0,-1.377884674E0,4.073708427E0
2.642020583E0,1.827848969E0,-2.869682465E0,-6.123765564E-1,3.457038378E0
2.652099583E0,1.382824402E0,-2.007924500E0,-3.939807129E-1,2.469652794E0
2.662178583E0,1.024768982E0,-1.436862030E0,-3.544628906E-1,1.800102192E0
2.672257583E0,7.999365234E-1,-8.065228271E-1,6.900650024E-2,1.138041919E0
2.682336583E0,5.078938293E-1,1.017883301E-1,7.387138367E-1,9.022278750E-1
2.692415583E0,2.773731995E-1,9.452842712E-1,1.236129456E0,1.580668933E0
2.702494583E0,-5.029541016E-2,1.807790680E0,1.721569977E0,2.496886052E0
2.712573583E0,-5.312452698E-1,2.912493439E0,2.281405792E0,3.737599759E0
2.722652583E0,-9.021739197E-1,4.597389679E0,2.831511841E0,5.474245971E0
2.732731583E0,-1.520238647E0,6.941664734E0,3.454965363E0,7.901558105E0
2.742810583E0,-2.436782684E0,9.774673462E0,3.748504944E0,1.074864831E1
2.752889583E0,-2.879112854E0,1.395577881E1,3.783981171E0,1.474352626E1
2.762968583E0,-1.766626282E0,2.011052994E1,5.234015808E0,2.085543824E1
2.773047583E0,-1.078058167E0,2.389196640E1,7.394473114E0,2.503330782E1
2.783126583E0,-1.619033203E0,2.303829163E1,7.921227722E0,2.441577355E1
2.793205583E0,-2.754272461E-2,2.190200455E1,7.646249542E0,2.319835541E1
2.803284583E0,2.145488434E0,2.276211594E1,7.666307831E0,2.411408962E1
2.813363583E0,2.534379730E0,2.426543976E1,7.658374329E0,2.557118192E1
2.823442583E0,2.888543243E0,2.581127518E1,7.716902618E0,2.709457869E1
2.833521583E0,3.702849884E0,2.844025818E1,7.544311523E0,2.965596093E1
2.843600583E0,3.731290741E0,3.211122437E1,7.096293182E0,3.309698835E1
2.853679583E0,2.994223480E0,3.356724655E1,6.287824402E0,3.428209665E1
2.863758583E0,2.006427612E0,3.274141388E1,5.489833832E0,3.325904704E1
2.873837583E0,8.662486267E-1,3.177188004E1,5.363047485E0,3.223298041E1
2.883916583E0,2.752775574E-1,3.030478088E1,5.910758514E0,3.087705602E1
2.893995583E0,4.043092346E-1,2.743434998E1,6.511309662E0,2.819936485E1
2.904074583E0,1.356179810E-1,2.392744263E1,6.823410645E0,2.488171690E1
2.914153583E0,-5.511538696E-1,2.038341248E1,6.415359192E0,2.137625103E1
2.924232583E0,-5.643264771E-1,1.733230728E1,5.672753448E0,1.824575216E1
2.934311583E0,4.619393921E-1,1.319176758E1,4.688849487E0,1.400790596E1
2.944390583E0,-1.341210938E-1,1.061233154E1,3.134481812E0,1.106637002E1
2.954469583E0,-8.708889771E-1,8.948691101E0,2.180216217E0,9.251532997E0
2.964548583E0,-4.275109863E-1,6.033353577E0,1.788181458E0,6.307274685E0
2.974627583E0,-6.240522766E-1,4.117337952E0,1.327589264E0,4.370858761E0
2.984706583E0,-1.037941589E0,2.434687042E0,9.562115479E-1,2.814136504E0
2.994785583E0,-9.391470337E-1,7.129673767E-1,8.291258240E-1,1.441446934E0
3.004864583E0,-7.119195557E-1,-2.433938599E-1,3.490740967E-1,8.294110861E-1
3.014943583E0,-5.769003296E-1,-8.750802612E-1,-2.402503967E-1,1.075313771E0
3.025022583E0,-4.387376404E-1,-1.420545959E0,-8.108638000E-1,1.693499821E0
3.035101583E0,-2.109114075E-1,-1.832189941E0,-1.482517090E0,2.366275665E0
3.045180583E0,-2.222877502E-1,-2.145338745E0,-2.156864777E0,3.050238653E0
3.055260583E0,-2.591111755E-1,-2.420915680E0,-2.488574982E0,3.481519319E0
3.065339583E0,-1.685494995E-1,-2.557581482E0,-2.282453613E0,3.432087771E0
3.075418583E0,-5.763015747E-2,-2.626587982E0,-1.775008850E0,3.170637488E0
3.085497583E0,1.143621826E-1,-2.621199188E0,-1.203647003E0,2.886612201E0
3.095576583E0,3.594026184E-1,-2.525548096E0,-8.162525940E-1,2.678400964E0
3.105655583E0,6.914122009E-1,-2.368824005E0,-5.397775269E-1,2.526012228E0
3.115734583E0,1.007255402E0,-1.971999207E0,-4.809498596E-1,2.265978173E0
3.125813583E0,1.106948090E0,-1.194515991E0,-6.486012268E-1,1.752964939E0
3.135892583E0,1.141077118E0,-6.697073364E-1,-8.864566040E-1,1.592598573E0
3.145971583E0,1.171463928E0,-5.216651917E-1,-1.096619568E0,1.687316445E0
3.156050583E0,1.146016846E0,-4.191284180E-1,-1.196761322E0,1.709169653E0
3.166129583E0,1.029109955E0,-3.818559265E-1,-1.111738129E0,1.562319722E0
3.176208583E0,6.997947693E-1,-3.249742126E-1,-8.102650452E-1,1.118861207E0
3.186287583E0,4.291575623E-1,-2.396516418E-1,-4.041595459E-1,6.363600091E-1
3.196366583E0,1.269360352E-1,-9.011260986E-2,8.637039185E-2,1.780249535E-1
3.206445583E0,-1.881587219E-1,6.466552734E-2,6.605763245E-1,6.898886979E-1
3.216527458E0,-5.346881104E-1,1.963916016E-1,1.207538910E0,1.335144657E0
3.226606458E0,-9.113049316E-1,4.703219604E-1,1.684746552E0,1.972321061E0
3.236685458E0,-1.073268127E0,9.129515076E-1,1.970502319E0,2.422450065E0
3.246764458E0,-1.072220306E0,1.248104553E0,2.139500885E0,2.699052685E0
3.256843458E0,-1.180295563E0,1.504072266E0,2.268382874E0,2.966629713E0
3.266922458E0,-1.555116119E0,2.596201172E0,2.420167236E0,3.875029822E0
3.277001458E0,-2.675386505E0,8.953331451E0,3.988605652E0,1.016015807E1
3.287080458E0,-6.320456543E0,3.110426834E1,1.180744629E1,3.386501835E1
3.297159458E0,-8.581654358E0,4.267475739E1,2.170082291E1,4.863851791E1
3.307238458E0,3.963308258E0,4.185146942E1,1.221444992E1,4.377723258E1
3.317317458E0,3.887116699E0,3.790133377E1,2.423909454E0,3.817716745E1
3.327396458E0,1.631607056E-2,3.406436279E1,-3.420836334E0,3.423570066E1
3.337475458E0,1.137783966E0,2.780378174E1,-7.323071594E0,2.877450623E1
3.347554458E0,2.058070221E0,2.101150635E1,-4.924309845E0,2.167874257E1
3.357633458E0,2.321821747E0,1.766192184E1,-5.049000549E-1,1.782103430E1
3.367712458E0,2.617157593E0,1.702290070E1,2.157313843E0,1.735749593E1
3.377791458E0,2.500400391E0,1.666170181E1,4.153263245E0,1.735263395E1
3.387870458E0,2.124831390E0,1.549248322E1,5.638923798E0,1.662315873E1
3.397949458E0,1.646575928E0,1.353859634E1,6.111940155E0,1.494525395E1
3.408028458E0,1.114282837E0,1.126093277E1,5.378764801E0,1.252921960E1
3.418107458E0,5.418731689E-2,9.040001221E0,4.183799744E0,9.961362288E0
3.428186458E0,-7.905061340E-1,7.197482758E0,3.202590179E0,7.917401206E0
3.438265458E0,-1.071022797E0,5.396128693E0,2.301314392E0,5.963333181E0
3.448344458E0,-1.247206421E0,4.128265228E0,1.552421722E0,4.583460576E0
3.458423458E0,-1.461710358E0,3.294049988E0,6.903643799E-1,3.669327659E0
3.468502458E0,-1.560654602E0,2.720442810E0,1.945953369E-2,3.136372195E0
3.478581458E0,-1.538051605E0,1.881736908E0,-2.555186462E-1,2.443732045E0
3.488660458E0,-1.394949188E0,9.993218994E-1,-3.647914124E-1,1.754309058E0
3.498739458E0,-1.268312531E0,2.724334717E-1,-8.436456299E-1,1.547441314E0
3.508818458E0,-1.745071106E0,-2.249821472E-1,-1.262774048E0,2.165753547E0
3.518897458E0,-2.443967743E0,-5.857319641E-1,-1.072968750E0,2.732640152E0
3.528976458E0,-2.793790283E0,-5.457650757E-1,-4.290078735E-1,2.878744765E0
3.539055458E0,-2.281555481E0,3.911366272E-1,4.803511047E-1,2.364153222E0
3.549134458E0,-1.928140411E0,1.435215454E0,1.248254242E0,2.708451125E0
3.559213458E0,-2.214944000E0,1.944456482E0,1.668879547E0,3.387041021E0
3.569292458E0,-2.611619110E0,2.424657898E0,1.857487335E0,4.018678825E0
3.579371458E0,-2.989134064E0,3.084635468E0,1.903441772E0,4.698189971E0
3.589450458E0,-3.471580811E0,4.004173279E0,2.053280182E0,5.683417676E0
3.599529458E0,-4.190984802E0,5.346432037E0,2.354753265E0,7.189822813E0
3.609608458E0,-5.170248413E0,7.554490356E0,2.843337250E0,9.585737317E0
3.619687458E0,-6.525530090E0,1.098355957E1,3.725452881E0,1.330789702E1
3.629766458E0,-8.523575134E0,1.566687057E1,5.746400299E0,1.873828389E1
3.639845458E0,-1.015862503E1,2.102722366E1,9.217082977E0,2.510570485E1
3.649924458E0,-8.921148376E0,2.620211243E1,1.215831665E1,3.023180854E1
3.660003458E0,-6.210585022E0,3.075549362E1,1.236264175E1,3.372397760E1
3.670082458E0,-4.027973785E0,3.346081787E1,9.700427856E0,3.507063167E1
3.680161458E0,-2.703827362E0,3.410058746E1,5.232369232E0,3.460546829E1
3.690240458E0,-3.789220276E0,3.413741089E1,8.367599487E-2,3.434716894E1
3.700319458E0,-2.739752655E0,3.366559204E1,1.719474335E0,3.382062868E1
3.710398458E0,-1.077010345E0,3.255505142E1,7.845185852E0,3.350430219E1
3.720477458E0,4.827461243E-1,3.058754288E1,1.008872040E1,3.221200246E1
3.730556458E0,3.764072571E0,2.664129913E1,9.586814117E0,2.856280915E1
3.740635458E0,5.286556549E0,2.113963989E1,7.645501099E0,2.309298036E1
3.750714458E0,6.291416931E0,1.638627457E1,5.645809479E0,1.843819638E1
3.760793458E0,6.105653229E0,1.196237411E1,4.490362244E0,1.416124108E1
3.770872458E0,5.490731964E0,7.982899475E0,3.676804047E0,1.036309363E1
3.780951458E0,4.883145447E0,4.884043579E0,3.259621582E0,7.637023242E0
3.791030458E0,3.985911255E0,2.399061127E0,2.846480713E0,5.453937593E0
3.801109458E0,3.152444458E0,5.754034424E-1,2.777623901E0,4.240777018E0
3.811188458E0,2.272723846E0,-7.056326294E-1,2.939437408E0,3.781994628E0
3.821267458E0,1.646426239E0,-1.421593781E0,3.069217529E0,3.761880445E0
3.831346458E0,1.671424255E0,-1.675016785E0,3.353626099E0,4.104405959E0
3.841425458E0,1.731299744E0,-2.042203217E0,3.812571716E0,4.658722558E0
3.851504458E0,1.745969238E0,-2.510878601E0,4.098776550E0,5.113989552E0
3.861583458E0,1.808389435E0,-2.744692383E0,4.405339050E0,5.496418904E0
3.871662458E0,1.795366516E0,-2.913391571E0,4.646038513E0,5.770343598E0
3.881741458E0,1.795665894E0,-2.975961456E0,4.617897034E0,5.779769511E0
3.891820458E0,1.772613831E0,-3.067421265E0,4.392316132E0,5.643019937E0
3.901899458E0,1.611548767E0,-3.176095276E0,4.033512268E0,5.380882070E0
3.911978458E0,1.246757355E0,-3.255280609E0,3.524271240E0,4.956989361E0
3.922057458E0,5.292993164E-1,-3.472628632E0,3.159180450E0,4.724375990E0
3.932136458E0,-3.770658875E-1,-3.240012360E0,3.152294769E0,4.536168106E0
3.942216458E0,-9.822573853E-1,-2.195484467E0,3.225642242E0,4.023648778E0
3.952295458E0,-9.580078125E-1,-2.578537903E0,3.414699097E0,4.384838265E0
3.962374458E0,-4.284091187E-1,-2.636018372E0,3.438649292E0,4.353898963E0
3.972453458E0,6.077362061E-2,-2.417772217E0,2.778971100E0,3.684019042E0
3.982532458E0,3.936813354E-1,-1.573078766E0,1.830693054E0,2.445608075E0
3.992611458E0,7.532336426E-1,-7.268884277E-1,1.148411865E0,1.553891090E0
4.002690458E0,6.887178040E-1,-4.222718811E-1,8.244854736E-1,1.154305874E0
4.012769458E0,5.397775269E-1,-2.896476746E-1,9.092092896E-1,1.096319792E0
4.022848458E0,3.793112183E-1,8.532257080E-2,1.023122406E0,1.094502809E0
4.032927458E0,-2.993774414E-2,2.540217590E-1,1.026864624E0,1.058241125E0
4.043006458E0,-5.343887329E-1,4.116439819E-1,1.223705292E0,1.397310533E0
4.053085458E0,-1.079255676E0,6.312373352E-1,1.594484253E0,2.026236270E0
4.063164458E0,-1.356928253E0,1.046473846E0,2.037562866E0,2.662334357E0
4.073243458E0,-1.299896851E0,1.806443481E0,2.451601868E0,3.311090695E0
4.083322458E0,-1.206341400E0,2.240091705E0,2.800526276E0,3.783677820E0
4.093401458E0,-1.423839111E0,3.114722900E0,3.137475586E0,4.644628038E0
4.103480458E0,-1.729802856E0,5.796995087E0,4.223018188E0,7.377753898E0
4.113559458E0,-7.587721252E-1,1.583347412E1,6.993906097E0,1.732597358E1
4.123638458E0,-2.472558289E0,3.044608704E1,1.392554169E1,3.357079790E1
4.133717458E0,-3.925437012E0,3.366933426E1,1.954575439E1,3.912888498E1
4.143796458E0,3.259172516E0,3.677926712E1,1.468880447E1,3.973786195E1
4.153875458E0,9.176068268E0,3.691204102E1,7.295379181E0,3.872882077E1
4.163954458E0,1.104987167E1,3.229848495E1,2.495760040E0,3.422748329E1
4.174033458E0,1.024304947E1,2.607981674E1,1.272354126E-1,2.801951271E1
4.184112458E0,9.551038513E0,2.182102295E1,-1.294508057E0,2.385487645E1
4.194191458E0,9.516909485E0,1.990485764E1,-3.004252625E0,2.226657714E1
4.204270458E0,1.043914169E1,2.003433838E1,-5.416186981E0,2.323113159E1
4.214349458E0,1.147902924E1,2.010274612E1,-7.519612885E0,2.433994848E1
4.224425667E0,1.147633484E1,1.839045685E1,-8.656049652E0,2.334185854E1
4.234504667E0,1.002495300E1,1.540012527E1,-7.598947906E0,1.988485732E1
4.244583667E0,7.704628143E0,1.318398376E1,-5.330714722E0,1.617390621E1
4.254662667E0,5.480852509E0,1.195967972E1,-3.697910156E0,1.366558534E1
4.264741667E0,4.517755280E0,1.121901993E1,-2.625390472E0,1.237615433E1
4.274820667E0,3.884122925E0,1.066906357E1,-1.971101074E0,1.152391287E1
4.284899667E0,3.936364288E0,1.040067169E1,-1.766626282E0,1.126010230E1
4.294978667E0,4.141138458E0,1.006177643E1,-1.903741150E0,1.104593151E1
4.305057667E0,4.112697601E0,9.214987335E0,-2.313289490E0,1.035285378E1
4.315136667E0,3.903432770E0,8.142767029E0,-2.624342651E0,9.403649112E0
4.325215667E0,3.291954346E0,7.187603302E0,-2.698887634E0,8.353597974E0
4.335294667E0,2.774630127E0,6.236481171E0,-2.412233734E0,7.239553945E0
4.345373667E0,2.431094513E0,5.292244720E0,-1.690434723E0,6.064292561E0
4.355452667E0,2.227218475E0,4.412374420E0,-8.711883545E-1,5.018816525E0
4.365531667E0,2.207758942E0,3.770958252E0,-2.427951050E-1,4.376445492E0
4.375610667E0,2.255659332E0,3.467090149E0,2.326162720E-1,4.142803816E0
4.385689667E0,2.334096222E0,3.438499603E0,6.360273743E-1,4.204261590E0
4.395768667E0,2.233505402E0,3.619922333E0,8.485853577E-1,4.337335724E0
4.405847667E0,1.897454224E0,3.965553589E0,7.234455872E-1,4.455257716E0
4.415926667E0,1.476828918E0,4.339476013E0,3.718267822E-1,4.598948889E0
4.426005667E0,1.215173035E0,4.550686798E0,-1.856140137E-1,4.713793419E0
4.436084667E0,9.262738037E-1,4.669839020E0,-7.506889343E-1,4.819638317E0
4.446163667E0,6.222560120E-1,4.907395020E0,-1.139580231E0,5.076255660E0
4.456242667E0,3.671864319E-1,4.928950195E0,-1.267713776E0,5.102594842E0
4.466321667E0,1.947450256E-1,4.730612640E0,-1.164428558E0,4.875706661E0
4.476400667E0,9.190887451E-2,4.368964691E0,-9.613009644E-1,4.474416080E0
4.486479667E0,7.087760925E-1,3.875740356E0,-7.891589355E-1,4.018270609E0
4.496558667E0,1.051563263E0,3.443139954E0,-6.682104492E-1,3.661625765E0
4.506637667E0,1.128952332E0,3.029100952E0,-5.468128967E-1,3.278565279E0
4.516716667E0,1.175954590E0,2.817590790E0,-4.492158508E-1,3.086013924E0
4.526795667E0,1.121916962E0,2.837798767E0,-1.963916016E-1,3.057837336E0
4.536874667E0,1.110989685E0,3.073109436E0,2.877017212E-1,3.280407287E0
4.546953667E0,1.008602600E0,3.866309967E0,7.182064819E-1,4.059735523E0
4.557032667E0,1.065484314E0,5.238207092E0,1.096619568E0,5.456798039E0
4.567111667E0,1.628014526E0,7.156767426E0,1.507814484E0,7.492880341E0
4.577190667E0,2.700833588E0,1.019514908E1,2.014660492E0,1.073752410E1
4.587269667E0,3.583098907E0,1.360086685E1,3.019520874E0,1.438539826E1
4.597348667E0,4.049978027E0,1.634525986E1,4.187691650E0,1.735242355E1
4.607427667E0,4.105811920E0,1.843730942E1,4.693489838E0,1.946332235E1
4.617506667E0,3.995491333E0,2.027952850E1,5.301076355E0,2.133833728E1
4.627585667E0,4.237987061E0,2.285567139E1,6.345903625E0,2.409590716E1
4.637664667E0,4.570445709E0,2.625854507E1,7.558831329E0,2.770444178E1
4.647743667E0,4.573589172E0,2.960229172E1,8.145311737E0,3.104125474E1
4.657822667E0,4.265679474E0,3.257346313E1,7.691605225E0,3.373999575E1
4.667901667E0,3.147654419E0,3.375405807E1,6.643784180E0,3.454539091E1
4.677980667E0,1.532812500E-1,3.167473206E1,5.854325867E0,3.221157055E1
4.688059667E0,-3.409909058E0,2.836586288E1,5.307363281E0,2.905886718E1
4.698138667E0,-5.649252319E0,2.682556595E1,3.942052460E0,2.769593504E1
4.708217667E0,-6.819818115E0,2.562670898E1,2.959346008E0,2.668325058E1
4.718296667E0,-5.964347076E0,2.259221924E1,2.541714478E0,2.350408728E1
4.728375667E0,-3.554957428E0,1.753348892E1,2.392175446E0,1.804947255E1
4.738454667E0,-2.937491455E0,1.253403534E1,1.640438690E0,1.297774776E1
4.748533667E0,-2.283651123E0,8.850195923E0,3.942800903E-1,9.148578420E0
4.758612667E0,-1.055904236E0,6.358776855E0,-7.634124756E-2,6.446301640E0
4.768691667E0,-2.029779053E-1,4.488715668E0,-4.685256958E-1,4.517663633E0
4.778770667E0,4.264631653E-1,2.770588531E0,-1.238374786E0,3.064572361E0
4.788849667E0,7.762857056E-1,1.237776031E0,-2.077829132E0,2.540095058E0
4.798928667E0,9.695338440E-1,-1.017883301E-1,-2.969973907E0,3.125876157E0
4.809007667E0,9.139993286E-1,-1.179247742E0,-3.775448914E0,4.059560876E0
4.819086667E0,6.318360901E-1,-1.980381775E0,-3.680845642E0,4.227263117E0
4.829165667E0,4.623884583E-1,-2.464325409E0,-3.075803833E0,3.968283259E0
4.839244667E0,4.005670166E-1,-2.718047791E0,-2.357148285E0,3.619998034E0
4.849323667E0,3.519181824E-1,-2.998265076E0,-1.777852936E0,3.503455570E0
4.859402667E0,3.595523071E-1,-3.269650726E0,-1.440005493E0,3.590753341E0
4.869481667E0,4.248165894E-1,-3.461401978E0,-1.141526184E0,3.669448843E0
4.879560667E0,5.917195129E-1,-3.434458008E0,-6.683601379E-1,3.548568594E0
4.889639667E0,7.355703735E-1,-3.382366333E0,-3.770658875E-1,3.481902421E0
4.899718667E0,8.264314270E-1,-3.216511230E0,-2.245330811E-1,3.328565532E0
4.909797667E0,7.981402588E-1,-3.001109161E0,-7.828720093E-2,3.106414808E0
4.919876667E0,7.622149658E-1,-2.652484131E0,1.297801208E-1,2.762876508E0
4.929955667E0,6.833290100E-1,-2.292333069E0,2.311193848E-1,2.403153263E0
4.940034667E0,6.589297485E-1,-1.967059479E0,2.091151428E-1,2.085003729E0
4.950113667E0,6.360273743E-1,-1.789378967E0,1.053808594E-1,1.901976087E0
4.960192667E0,3.224295044E-1,-1.520837402E0,1.062789917E-2,1.554676861E0
4.970271667E0,-2.050735474E-1,-5.933660889E-1,1.526824951E-1,6.461040315E-1
4.980350667E0,-4.053570557E-1,1.540296936E-1,6.768923950E-1,8.038798440E-1
4.990429667E0,-6.563850403E-1,6.686595154E-1,1.383273468E0,1.670746048E0
5.000508667E0,-8.610095215E-1,8.628057861E-1,2.041454773E0,2.377668776E0
5.010587667E0,-8.496331787E-1,1.031804352E0,2.665806427E0,2.982116809E0
5.020666667E0,-8.506809998E-1,1.247206421E0,3.198698273E0,3.537068371E0
5.030745667E0,-9.113049316E-1,1.584006042E0,3.601510620E0,4.038617408E0
5.040824667E0,-8.837622070E-1,2.922821960E0,4.087998962E0,5.102515004E0
5.050903667E0,3.204835510E-1,1.521825348E1,5.973328400E0,1.635171553E1
5.060982667E0,-3.602109375E0,3.455130020E1,1.301857773E1,3.709785578E1
5.071061667E0,-6.123466187E0,3.678450623E1,2.201891144E1,4.330622585E1
5.081140667E0,4.231999512E0,3.932517288E1,1.622386230E1,4.275035380E1
5.091219667E0,4.846322021E0,3.602618317E1,4.202660522E0,3.659282807E1
5.101298667E0,1.504371643E0,3.397889053E1,-1.462458801E0,3.404360324E1
5.111377667E0,2.218386841E0,3.250760010E1,-4.634213104E0,3.291111112E1
5.121456667E0,5.109025726E0,2.735157211E1,-4.754712524E0,2.822796366E1
5.131535667E0,7.148384857E0,2.244327896E1,-2.766696625E0,2.371612925E1
5.141614667E0,7.736661530E0,2.046499283E1,-1.106948090E0,2.190655603E1
5.151693667E0,5.958808594E0,1.980112335E1,4.370910645E-2,2.067834124E1
5.161772667E0,3.037034454E0,1.913426010E1,9.684860229E-1,1.939797549E1
5.171851667E0,1.526675262E0,1.746852402E1,1.846709747E0,1.763208455E1
5.181930667E0,4.584965515E-1,1.526390854E1,2.666105804E0,1.550178193E1
5.192009667E0,-1.836680603E-1,1.309237427E1,3.703897705E0,1.360745590E1
5.202088667E0,-2.356100464E-1,1.104268661E1,4.608316956E0,1.196800004E1
5.212167667E0,1.725910950E-1,9.160051575E0,4.756658478E0,1.032289361E1
5.222246542E0,4.831951904E-1,7.491172028E0,4.075724487E0,8.541818661E0
5.232325542E0,9.392967224E-1,6.246809692E0,2.814597015E0,6.915697074E0
5.242404542E0,1.097368011E0,5.562283173E0,1.191671906E0,5.793383517E0
5.252483542E0,4.888833618E-1,5.057981873E0,-2.082170105E-1,5.085817721E0
5.262562542E0,5.426216125E-1,4.480033722E0,-9.804611206E-1,4.618056341E0
5.272641542E0,8.008346558E-1,3.595523071E0,-1.185834045E0,3.869796466E0
5.282720542E0,1.498384094E-1,2.688110046E0,-8.325686646E-1,2.818076960E0
5.292799542E0,-1.004111938E0,1.730401611E0,-5.924679565E-1,2.086515948E0
5.302878542E0,-1.675316162E0,8.575666809E-1,-6.253994751E-1,1.983237091E0
5.312957542E0,-1.872605896E0,1.751358032E-1,-8.050259399E-1,2.045823100E0
5.323036542E0,-2.094743958E0,-7.999365234E-1,-1.001567230E0,2.455806915E0
5.333115542E0,-1.579964447E0,-1.884880371E0,-8.728349304E-1,2.609770581E0
5.343194542E0,-8.098159790E-1,-2.654579773E0,-3.897894287E-1,2.802593708E0
5.353273542E0,-3.345542908E-1,-3.365152130E0,-7.753875732E-2,3.382630292E0
5.363352542E0,-4.370910645E-2,-3.769910431E0,-1.513352966E-1,3.773199904E0
5.373431542E0,2.492317200E-1,-3.731440430E0,-2.344125366E-1,3.747093990E0
5.383510542E0,2.637515259E-1,-2.411185913E0,-9.714797974E-2,2.427513152E0
5.393589542E0,4.728666687E-1,-1.213227081E0,1.652563477E-1,1.312567140E0
5.403668542E0,6.924600220E-1,-7.002438354E-1,2.427951050E-1,1.014293732E0
5.413747542E0,6.239025879E-1,-2.299218750E-1,2.417472839E-1,7.075028318E-1
5.423826542E0,5.939648438E-1,1.179547119E-1,1.845661926E-1,6.330657384E-1
5.433905542E0,4.544549561E-1,5.983058167E-1,2.311193848E-1,7.860759043E-1
5.443984542E0,3.095562744E-1,1.287622375E0,4.869374084E-1,1.410994156E0
5.454063542E0,-2.559677124E-2,2.108665009E0,9.696835327E-1,2.321079375E0
5.464142542E0,-3.891906738E-1,3.366050262E0,1.592388611E0,3.743990550E0
5.474221542E0,-7.827223206E-1,4.862488403E0,2.352058868E0,5.457895989E0
5.484300542E0,-1.341061249E0,7.358248444E0,3.441792755E0,8.233359144E0
5.494379542E0,-2.352957001E0,1.244556931E1,5.396727448E0,1.376783458E1
5.504458542E0,-3.327280884E0,2.038251434E1,6.852300568E0,2.175940514E1
5.514537542E0,-2.647993469E0,2.672093353E1,8.944948883E0,2.830251347E1
5.524616542E0,1.484013977E0,2.999148239E1,9.197174377E0,3.140508446E1
5.534695542E0,3.951782227E0,3.158506851E1,6.556066589E0,3.249946376E1
5.544774542E0,3.026705933E0,3.263094360E1,3.542084198E0,3.296188389E1
5.554853542E0,2.701282654E0,3.389371765E1,2.206262054E0,3.407269606E1
5.564932542E0,3.807631989E0,3.447585709E1,1.858385468E0,3.473523254E1
5.575011542E0,4.339625702E0,3.288825851E1,1.484163666E0,3.320651504E1
5.585090542E0,2.648442535E0,3.080279526E1,5.882766724E-1,3.092203928E1
5.595169542E0,6.093827820E-1,2.897479660E1,1.058448944E0,2.900052585E1
5.605248542E0,-2.794688416E-1,2.667183563E1,2.665806427E0,2.680618292E1
5.615327542E0,1.913021851E-1,2.492077698E1,3.959116974E0,2.523403117E1
5.625406542E0,9.624984741E-2,2.264086807E1,4.790039062E0,2.314222646E1
5.635485542E0,-2.974314880E-1,1.968915619E1,5.126688995E0,2.034783224E1
5.645564542E0,1.172062683E-1,1.701811066E1,4.525988159E0,1.761006520E1
5.655643542E0,1.603166199E-1,1.564277069E1,2.931354218E0,1.591586673E1
5.665722542E0,-1.085243225E0,1.384366196E1,1.267115021E0,1.394382694E1
5.675801542E0,-1.272354126E0,1.012120285E1,5.872288513E-1,1.021775268E1
5.685880542E0,-9.216334534E-1,7.137158203E0,7.008425903E-1,7.230464423E0
5.695959542E0,-8.448431396E-1,5.325475616E0,3.195854187E-1,5.401535459E0
5.706038542E0,-6.994953918E-1,4.061504059E0,-3.619473267E-1,4.137162662E0
5.716117542E0,-2.481838989E-1,2.768941956E0,-9.163943481E-1,2.927185235E0
5.726196542E0,2.656974792E-1,1.444945221E0,-1.128353577E0,1.852469605E0
5.736275542E0,4.555027771E-1,3.234773254E-1,-1.172212372E0,1.298538488E0
5.746354542E0,5.463638306E-1,-6.771917725E-1,-1.240171051E0,1.514967448E0
5.756433542E0,5.177732849E-1,-1.310973816E0,-1.317260742E0,1.929227147E0
5.766512542E0,6.015989685E-1,-1.636247406E0,-1.481768646E0,2.287982783E0
5.776591542E0,6.985972595E-1,-1.740879822E0,-1.699865112E0,2.531450589E0
5.786670542E0,7.292834473E-1,-1.830543365E0,-1.889670410E0,2.730127766E0
5.796749542E0,7.267387390E-1,-1.893113251E0,-1.946851501E0,2.811095470E0
5.806828542E0,7.553292847E-1,-2.007774811E0,-1.750310211E0,2.768622014E0
5.816907542E0,6.342311096E-1,-2.077978821E0,-1.219064941E0,2.491257596E0
5.826986542E0,4.929249573E-1,-2.076032867E0,-5.810916138E-1,2.211459912E0
5.837065542E0,3.770658875E-1,-2.045346680E0,-1.646575928E-2,2.079878084E0
5.847144542E0,1.881587219E-1,-2.019300842E0,3.969744873E-1,2.066535347E0
5.857223542E0,4.296066284E-2,-2.004631348E0,4.993615723E-1,2.066338413E0
5.867302542E0,-9.250762939E-2,-1.944456482E0,3.270698547E-1,1.973941073E0
5.877381542E0,-1.347198486E-1,-1.911075897E0,1.405577087E-1,1.920967723E0
5.887460542E0,-1.101708984E-1,-1.926194458E0,2.085163879E-1,1.940577698E0
5.897539542E0,-6.631210327E-2,-1.947150879E0,5.656736755E-1,2.028738659E0
5.907618542E0,1.212478638E-2,-1.775757294E0,1.041384430E0,2.058626364E0
5.917697542E0,9.729766846E-2,-1.142274628E0,1.433568878E0,1.835586525E0
5.927776542E0,3.646417236E-1,-6.325845337E-1,1.656904449E0,1.810651577E0
5.937855542E0,4.333488464E-1,-3.477268982E-1,1.693877563E0,1.782673952E0
5.947934542E0,2.710862732E-1,5.628295898E-2,1.609453125E0,1.633093659E0
5.958013542E0,1.360670471E-1,5.731581116E-1,1.573228455E0,1.679902447E0
5.968092542E0,1.422042847E-2,9.795629883E-1,1.598376160E0,1.874713903E0
5.978171542E0,1.481918335E-2,1.068927155E0,1.822759552E0,2.113120265E0
5.988250542E0,-6.137237549E-3,1.323397980E0,2.191143494E0,2.559790946E0
5.998329542E0,-8.756790161E-2,1.961820374E0,2.394420776E0,3.096717322E0
6.008408542E0,2.010319519E-1,5.312602386E0,3.159030762E0,6.184143701E0
6.018487542E0,3.031346283E0,2.975766861E1,6.799460449E0,3.067475450E1
6.028566542E0,-2.651436310E0,4.181419693E1,1.740790009E1,4.537060904E1
6.038645542E0,2.992576904E0,4.323713791E1,1.751986725E1,4.674774176E1
6.048724542E0,7.226522369E0,4.365536819E1,6.730004883E0,4.475831502E1
6.058803542E0,2.556383972E0,3.959206787E1,-6.780899048E-2,3.967457039E1
6.068882542E0,4.637356567E-1,3.442616043E1,-3.813469849E0,3.463983437E1
6.078961542E0,3.698808289E-1,2.795107544E1,-5.473068695E0,2.848427480E1
6.089040542E0,2.643502808E-1,2.291973816E1,-4.707261200E0,2.339962791E1
6.099119542E0,1.384920044E0,2.141626465E1,-1.967807922E0,2.155102464E1
6.109198542E0,2.255659332E0,2.083592148E1,3.632945251E-1,2.096081119E1
6.119277542E0,1.876946869E0,1.896256714E1,1.643731842E0,1.912599635E1
6.129356542E0,1.229243774E0,1.633642822E1,2.134261780E0,1.652104720E1
6.139435542E0,1.353934479E0,1.389201141E1,2.248773651E0,1.413782524E1
6.149514542E0,2.351160736E0,1.195997910E1,2.208208008E0,1.238730154E1
6.159593542E0,2.941832428E0,1.021969803E1,2.249821472E0,1.087006451E1
6.169672542E0,2.759960632E0,8.882528687E0,2.416125641E0,9.610117672E0
6.179751542E0,1.902543640E0,7.422614594E0,2.820285187E0,8.165101851E0
6.189830542E0,1.269510040E0,5.985602875E0,3.166515198E0,6.889551220E0
6.199909542E0,7.590715027E-1,4.764292603E0,3.277584229E0,5.832429333E0
6.209988542E0,8.831634521E-3,3.449726257E0,2.677182770E0,4.366691749E0
6.220067583E0,-5.086422729E-1,2.097737732E0,1.284628601E0,2.511870060E0
6.230146583E0,-6.132746887E-1,1.141675873E0,2.842588806E-1,1.326775321E0
6.240225583E0,-3.427871704E-2,4.004173279E-1,-2.733316040E-1,4.860239013E-1
6.250304583E0,4.902305603E-1,-5.059478760E-1,-1.280287628E0,1.461316416E0
6.260383583E0,8.105644226E-1,-1.519639893E0,-2.619402924E0,3.134899004E0
6.270462583E0,1.082099762E0,-2.474504242E0,-3.939358063E0,4.776259319E0
6.280541583E0,1.102756805E0,-3.232827301E0,-4.415517883E0,5.582476431E0
6.290620583E0,9.463320923E-1,-3.557202759E0,-3.608396301E0,5.154586284E0
6.300699583E0,7.990383911E-1,-3.501967621E0,-1.978735199E0,4.100930694E0
6.310778583E0,6.542893982E-1,-3.313210144E0,-5.451663208E-1,3.420915432E0
6.320857583E0,4.198768616E-1,-3.006797333E0,3.830534363E-1,3.060041946E0
6.330936583E0,1.356179810E-1,-2.584675140E0,6.288423157E-1,2.663527825E0
6.341015583E0,-1.919009399E-1,-1.531914368E0,2.764750671E-1,1.568447023E0
6.351094583E0,-3.080593872E-1,-5.620811462E-1,-1.496887207E-4,6.409647599E-1
6.361173583E0,-4.167333984E-1,-2.100132751E-1,6.855743408E-2,4.716698240E-1
6.371252583E0,-7.427554321E-1,2.034269714E-1,3.038681030E-1,8.278912904E-1
6.381331583E0,-8.813671875E-1,5.962101746E-1,6.292913818E-1,1.236237168E0
6.391410583E0,-7.544311523E-1,8.687933350E-1,1.058299255E0,1.563318757E0
6.401489583E0,-7.131170654E-1,1.636247406E0,1.684447174E0,2.454221629E0
6.411568583E0,-7.460485840E-1,3.818559265E0,2.350412292E0,4.545593613E0
6.421647583E0,-8.523275757E-1,8.964707794E0,3.357667694E0,9.610742972E0
6.431726583E0,-1.838027802E0,1.639795029E1,5.192402344E0,1.729832830E1
6.441805583E0,-3.407514038E0,2.209435455E1,9.018146667E0,2.410598731E1
6.451884583E0,-8.655001831E-1,2.542897018E1,1.331960175E1,2.871921667E1
6.461963583E0,2.455194397E0,2.672243042E1,1.225501556E1,2.950087581E1
6.472042583E0,2.432441711E0,2.763433411E1,8.181536407E0,2.892249526E1
6.482121583E0,2.391576691E0,2.945978806E1,5.850583649E0,3.013018553E1
6.492200583E0,2.209405518E0,3.215762787E1,2.972219238E0,3.237018057E1
6.502279583E0,2.586920471E0,3.463587433E1,1.019529877E0,3.474730765E1
6.512358583E0,4.066892853E0,3.484977951E1,5.864804077E-1,3.509117708E1
6.522437583E0,4.221820679E0,3.312416794E1,9.592053223E-1,3.340590287E1
6.532516583E0,2.908152466E0,3.051209976E1,1.837129669E0,3.070538435E1
6.542595583E0,2.398612061E0,2.902539139E1,3.144510956E0,2.929359374E1
6.552674583E0,2.133812714E0,2.791125824E1,4.543801117E0,2.835908359E1
6.562753583E0,2.521207123E0,2.579630630E1,5.318290558E0,2.645921614E1
6.572832583E0,2.889890442E0,2.359872620E1,4.806654510E0,2.425603579E1
6.582911583E0,2.550845490E0,2.188553879E1,3.941453705E0,2.238344652E1
6.592990583E0,2.583777008E0,1.810410233E1,3.366499329E0,1.859483107E1
6.603069583E0,2.721790009E0,1.450827988E1,3.033591614E0,1.506987073E1
6.613148583E0,2.484982452E0,1.241667938E1,2.239043884E0,1.285933055E1
6.623227583E0,1.215322723E0,1.076261902E1,1.345252533E0,1.091424216E1
6.633306583E0,-4.514611816E-1,8.907975769E0,9.678872681E-1,8.971769907E0
6.643385583E0,-1.031355286E0,5.971981201E0,1.462458801E0,6.234343505E0
6.653464583E0,-1.026864624E0,3.804338837E0,1.935924225E0,4.390358476E0
6.663543583E0,-7.062313843E-1,2.464325409E0,1.884580994E0,3.181714634E0
6.673622583E0,-5.507048035E-1,1.228495331E0,1.384021912E0,1.930801184E0
6.683701583E0,-7.159611511E-1,1.115180969E-1,7.973918152E-1,1.077436941E0
6.693780583E0,-8.741821289E-1,-7.192543030E-1,1.654060364E-1,1.144063068E0
6.703859583E0,-9.274713135E-1,-1.319356384E0,-4.965174866E-1,1.687434123E0
6.713938583E0,-9.240284729E-1,-1.647773438E0,-1.345851288E0,2.319547716E0
6.724017583E0,-9.283694458E-1,-1.906585236E0,-2.352807312E0,3.167434188E0
6.734096583E0,-8.367599487E-1,-2.211351471E0,-2.883304138E0,3.728764580E0
6.744175583E0,-5.400769043E-1,-2.439477081E0,-2.728975067E0,3.700004920E0
6.754254583E0,-1.004411316E-1,-2.667453003E0,-2.091899872E0,3.391377156E0
6.764333583E0,3.558100891E-1,-2.820584564E0,-1.344204712E0,3.144707365E0
6.774412583E0,6.988966370E-1,-2.874771881E0,-9.047186279E-1,3.093749452E0
6.784491583E0,9.761201477E-1,-2.825823669E0,-6.882687378E-1,3.067866328E0
6.794570583E0,1.066981201E0,-2.578687592E0,-6.264472961E-1,2.860159924E0
6.804649583E0,9.990225220E-1,-1.930385742E0,-7.490423584E-1,2.299021437E0
6.814728583E0,7.183561707E-1,-9.006770325E-1,-9.943821716E-1,1.521857618E0
6.824807583E0,5.478607178E-1,-3.757186890E-1,-9.560618591E-1,1.164203667E0
6.834886583E0,3.882925415E-1,-1.703457642E-1,-4.987628174E-1,6.546396911E-1
6.844965583E0,1.106199646E-1,-4.939727783E-2,1.450483704E-1,1.889865005E-1
6.855044583E0,-3.390449524E-1,-5.089416504E-2,7.328759766E-1,8.091037590E-1
6.865123583E0,-8.310717773E-1,-1.640588379E-1,1.156195679E0,1.433312265E0
6.875202583E0,-1.287023621E0,-3.472778320E-1,1.436712341E0,1.959891335E0
6.885281583E0,-1.537901917E0,-4.870870972E-1,1.569785614E0,2.250916040E0
6.895360583E0,-1.545685730E0,-5.409750366E-1,1.575922852E0,2.272736500E0
6.905439583E0,-1.447190552E0,-4.790039062E-1,1.471290436E0,2.118608218E0
6.915518583E0,-1.153950348E0,-2.050735474E-1,1.358275452E0,1.794037003E0
6.925597583E0,-7.704478455E-1,2.110610962E-1,1.291065216E0,1.518218055E0
6.935676583E0,-6.251000977E-1,6.556365967E-1,1.297352142E0,1.582318571E0
6.945755583E0,-5.804928589E-1,7.725434875E-1,1.223555603E0,1.559129152E0
6.955834583E0,-5.239105225E-1,8.598120117E-1,1.301543427E0,1.645531593E0
6.965913583E0,-5.634283447E-1,1.038839722E0,1.556463318E0,1.954281844E0
6.975992583E0,-7.152127075E-1,1.402283936E0,1.886077881E0,2.456668318E0
6.986071583E0,-1.153800659E0,3.847000122E0,2.375110931E0,4.666028058E0
6.996150583E0,-1.267264709E0,2.269191193E1,4.212090912E0,2.311429291E1
7.006229583E0,-6.676116943E0,3.624083679E1,1.002061203E1,3.818876084E1
7.016308583E0,-6.735992432E-1,3.819532242E1,1.194635742E1,4.002563986E1
7.026387583E0,8.057893524E0,4.111410278E1,7.345674591E0,4.253537388E1
7.036466583E0,3.508104858E0,3.568219849E1,2.339634705E-1,3.585499724E1
7.046544583E0,-1.127006378E0,3.137625275E1,-4.551584930E0,3.172469551E1
7.056623583E0,-2.060914307E0,2.892794403E1,-6.282734985E0,2.967399657E1
7.066702583E0,-2.249821472E-1,2.661405579E1,-3.559597778E0,2.685198910E1
7.076781583E0,1.057850189E0,2.459789841E1,-2.242337036E-1,2.462165579E1
7.086860583E0,9.267228699E-1,2.220108261E1,2.283052368E0,2.233739494E1
7.096939583E0,1.584006042E0,2.033311707E1,3.879183197E0,2.076036577E1
7.107018583E0,2.465672607E0,1.870300690E1,4.417763214E0,1.937520684E1
7.117097583E0,2.856060791E0,1.732736755E1,4.498744812E0,1.812825018E1
7.127176583E0,3.036585388E0,1.565863770E1,4.309538269E0,1.652228511E1
7.137255583E0,3.162623291E0,1.388467667E1,3.773353271E0,1.473175574E1
7.147334583E0,2.829715576E0,1.256082962E1,2.958447876E0,1.321113715E1
7.157413583E0,1.812730408E0,1.144070892E1,1.611099701E0,1.169493285E1
7.167492583E0,1.492845612E0,9.981842651E0,5.975573730E-1,1.011053142E1
7.177571583E0,1.769620056E0,8.269553375E0,3.064128113E-1,8.462325743E0
7.187650583E0,1.550026703E0,6.795119476E0,6.691085815E-2,6.969986265E0
7.197729583E0,1.153650970E0,5.419180756E0,-1.091230774E-1,5.541690940E0
7.207808583E0,1.156045990E0,4.193679199E0,-2.501298523E-1,4.357287287E0
7.217887583E0,1.241069183E0,3.197351074E0,-5.785469055E-1,3.478221260E0
7.227966167E0,1.371747437E0,2.419119415E0,-1.056802368E0,2.975006054E0
7.238045167E0,1.436263275E0,1.677411804E0,-1.458117828E0,2.646255875E0
7.248124167E0,1.382525024E0,8.849597168E-1,-1.794917450E0,2.432335872E0
7.258203167E0,1.258582764E0,5.748046875E-2,-2.019300842E0,2.380107239E0
7.268282167E0,9.195378113E-1,-6.951544189E-1,-1.961371307E0,2.275031177E0
7.278361167E0,5.565426636E-1,-1.267264709E0,-1.560355225E0,2.085763171E0
7.288440167E0,4.052073669E-1,-1.563798065E0,-7.726931763E-1,1.790729500E0
7.298519167E0,3.589535522E-1,-1.610800323E0,1.326242065E-1,1.655631153E0
7.308598167E0,1.880090332E-1,-1.348994751E0,8.006849670E-1,1.579946408E0
7.318677167E0,-1.944456482E-1,-5.763015747E-1,1.043180695E0,1.207542371E0
7.328756167E0,-3.059637451E-1,2.200424194E-1,8.943901062E-1,9.705494020E-1
7.338835167E0,-1.787283325E-1,9.759704590E-1,7.403604126E-1,1.237980490E0
7.348914167E0,1.197509766E-2,1.799707489E0,6.939569092E-1,1.928902963E0
7.358993167E0,2.239343262E-1,2.739153900E0,7.813751221E-1,2.857211534E0
7.369072167E0,4.104464722E-1,3.759881287E0,8.876541138E-1,3.884984353E0
7.379151167E0,7.551795959E-1,5.028942261E0,1.196761322E0,5.224250582E0
7.389230167E0,1.179696808E0,6.307882690E0,1.684447174E0,6.634638715E0
7.399309167E0,1.726360016E0,7.043303375E0,2.124082947E0,7.556465424E0
7.409388167E0,2.208357697E0,7.913294220E0,2.357297974E0,8.547158760E0
7.419467167E0,2.617606659E0,9.491612091E0,2.395618286E0,1.013319060E1
7.429546167E0,3.239263916E0,1.164024399E1,2.601889343E0,1.235952827E1
7.439625167E0,4.084107056E0,1.382899246E1,3.122656403E0,1.475370957E1
7.449704167E0,5.119204559E0,1.555415497E1,3.884122925E0,1.682927221E1
7.459783167E0,5.940247192E0,1.596115860E1,4.395758972E0,1.758885492E1
7.469862167E0,6.391259308E0,1.588332047E1,4.083957367E0,1.760132871E1
7.479941167E0,6.797963562E0,1.615919678E1,2.993025970E0,1.778454817E1
7.490020167E0,7.261699219E0,1.717034409E1,1.875449982E0,1.873687018E1
7.500099167E0,8.006699982E0,1.926823151E1,8.517288208E-1,2.088294596E1
7.510178167E0,9.577832794E0,2.221635086E1,1.190025330E-1,2.419329015E1
7.520257167E0,1.122231308E1,2.519680298E1,3.586541748E-1,2.758528274E1
7.530336167E0,1.252220993E1,2.826691864E1,1.214723969E0,3.094026479E1
7.540415167E0,1.300854858E1,3.055311447E1,2.530487823E0,3.330343089E1
7.550494167E0,1.310779221E1,3.124422729E1,3.875440979E0,3.410329894E1
7.560573167E0,1.327649139E1,3.034414902E1,5.479056244E0,3.357160498E1
7.570652167E0,1.344758560E1,2.929348389E1,6.751709747E0,3.293222345E1
7.580731167E0,1.409618683E1,2.758972687E1,7.212900696E0,3.181071279E1
7.590810167E0,1.338726105E1,2.477512985E1,8.075257416E0,2.929565838E1
7.600889167E0,1.101110229E1,2.186413330E1,8.540489960E0,2.592729580E1
7.610968167E0,7.762557678E0,1.952255264E1,8.906778259E0,2.281924763E1
7.621047167E0,5.591921539E0,1.659868286E1,9.638756104E0,1.999228547E1
7.631126167E0,3.544329529E0,1.253882538E1,1.000414627E1,1.642764001E1
7.641205167E0,1.791324921E0,8.710386658E0,9.418863373E0,1.295355812E1
7.651284167E0,8.388555908E-1,5.861510925E0,8.268505554E0,1.017001343E1
7.661363167E0,4.144880676E-1,3.927532654E0,7.563920746E0,8.532889906E0
7.671442167E0,-1.933978271E-1,1.995799713E0,6.938970337E0,7.222875366E0
7.681521167E0,-4.849914551E-1,2.359094238E-1,6.281986542E0,6.305095152E0
7.691600167E0,-2.948867798E-1,-1.065334625E0,6.126609650E0,6.225531453E0
7.701679167E0,1.347198486E-1,-1.794468384E0,5.754483490E0,6.029290709E0
7.711758167E0,3.082090759E-1,-2.254461823E0,5.388045502E0,5.848814006E0
7.721837167E0,3.595523071E-1,-2.566712494E0,4.935985565E0,5.575055550E0
7.731916167E0,5.255570984E-1,-2.715802460E0,4.233197021E0,5.056851816E0
7.741995167E0,7.273374939E-1,-2.855462036E0,3.564687195E0,4.624897628E0
7.752074167E0,8.300239563E-1,-3.063828735E0,3.204536133E0,4.510547430E0
7.762153167E0,7.119195557E-1,-3.293002167E0,2.966680756E0,4.489085367E0
7.772232167E0,3.475772095E-1,-3.491489410E0,3.188220062E0,4.740891834E0
7.782311167E0,-6.436614990E-2,-3.655248871E0,3.807781677E0,5.278654053E0
7.792390167E0,-9.348060608E-1,-3.666026459E0,4.309837646E0,5.734833294E0
7.802469167E0,-2.070195007E0,-3.498824158E0,4.203558655E0,5.847852873E0
7.812548167E0,-2.887196045E0,-3.153043213E0,3.817511444E0,5.731577107E0
7.822627167E0,-3.086581421E0,-2.755769348E0,2.905607758E0,5.056066258E0
7.832706167E0,-2.445764008E0,-2.602188721E0,2.322270813E0,4.259822701E0
7.842785167E0,-1.409019928E0,-2.220183105E0,2.460583191E0,3.601252535E0
7.852864167E0,-8.399034119E-1,-2.098635864E0,2.699935455E0,3.521272738E0
7.862943167E0,-8.400531006E-1,-2.284698944E0,2.695145416E0,3.631714098E0
7.873022167E0,-1.254541168E0,-2.322719879E0,2.800975342E0,3.848943237E0
7.883101167E0,-1.714833984E0,-2.320175171E0,2.993924103E0,4.157817931E0
7.893180167E0,-1.977537689E0,-2.318079529E0,3.112028503E0,4.355326557E0
7.903259167E0,-1.945204926E0,-2.034120026E0,3.268153839E0,4.313037908E0
7.913338167E0,-1.553469543E0,-1.470392303E0,3.480262756E0,4.085039780E0
7.923417167E0,-1.126108246E0,-6.924600220E-1,3.718417511E0,3.946422361E0
7.933496167E0,-6.665638733E-1,3.222798157E-1,3.944746857E0,4.013626719E0
7.943575167E0,-2.192939758E-1,1.322200470E0,4.214635620E0,4.422607527E0
7.953654167E0,-2.844085693E-3,1.983525238E0,4.537663879E0,4.952249382E0
7.963733167E0,-2.365081787E-2,2.406545563E0,4.856500854E0,5.420112679E0
7.973812167E0,-2.128573608E-1,3.083138580E0,5.242398376E0,6.085539623E0
7.983891167E0,-4.007167053E-1,4.211791534E0,5.506898346E0,6.944471989E0
7.993970167E0,-4.640350342E-3,7.525600433E0,6.498735809E0,9.943251507E0
8.004048167E0,7.196884003E0,3.249936722E1,1.015338593E1,3.480079388E1
8.014127167E0,1.545685730E0,4.713862473E1,1.985665787E1,5.117348871E1
8.024206167E0,1.514550476E0,4.630710388E1,1.573662552E1,4.893141236E1
8.034285167E0,3.052153015E0,4.478985901E1,6.020630035E0,4.529564101E1
8.044364167E0,-7.505392456E-1,3.694631973E1,1.564546509E0,3.698704715E1
8.054443167E0,-4.508025513E0,2.806873077E1,3.165916443E-1,2.843019823E1
8.064522167E0,-7.410040741E0,2.341101654E1,4.776567078E-1,2.456038589E1
8.074601167E0,-8.741072845E0,2.071138046E1,1.278641052E0,2.251671730E1
8.084680167E0,-4.724026337E0,2.011157776E1,2.846630402E0,2.085414322E1
8.094759167E0,-4.589456177E-1,2.196547256E1,4.510121155E0,2.242841521E1
8.104838167E0,3.817062378E-1,2.223401413E1,4.726271667E0,2.273399938E1
8.114917167E0,-7.527845764E-1,1.975337265E1,3.280578003E0,2.003807894E1
8.124996167E0,-1.437311096E0,1.670585999E1,2.329306183E0,1.692859381E1
8.135075167E0,-1.252894592E0,1.443897400E1,2.354154510E0,1.468317944E1
8.145154167E0,-7.147636414E-1,1.256771530E1,2.656376038E0,1.286525121E1
8.155233167E0,7.783813477E-2,1.054557037E1,2.826572113E0,1.091808697E1
8.165312167E0,6.301895142E-1,8.355923767E0,2.525697784E0,8.752014061E0
8.175391167E0,8.181985474E-1,6.580765228E0,1.830842743E0,6.879527964E0
8.185470167E0,8.156538391E-1,5.293591919E0,1.058748322E0,5.459702794E0
8.195549167E0,7.366181946E-1,4.188739471E0,4.064048767E-1,4.272389220E0
8.205628167E0,6.483018494E-1,3.252586212E0,-1.222956848E-1,3.318820361E0
8.215707167E0,5.382806396E-1,2.520009613E0,-6.472540283E-1,2.656902760E0
8.225785542E0,5.251080322E-1,1.904938660E0,-1.065334625E0,2.244875855E0
8.235864542E0,2.347119141E-1,1.456171875E0,-1.070723419E0,1.822628556E0
8.245943542E0,-8.397537231E-2,1.254092102E0,-7.647596741E-1,1.471277072E0
8.256022542E0,-3.532653809E-1,1.123413849E0,-3.960763550E-1,1.242469953E0
8.266101542E0,-5.188211060E-1,1.039139099E0,-1.273851013E-1,1.168423028E0
8.276180542E0,-9.680369568E-1,8.988807678E-1,-3.727249146E-2,1.321541306E0
8.286259542E0,-1.480870514E0,7.640112305E-1,-1.950444031E-1,1.677716591E0
8.296338542E0,-1.878443756E0,8.270301819E-1,-7.723937988E-2,2.053897706E0
8.306417542E0,-1.776805115E0,1.577419739E0,2.245330811E-1,2.386567525E0
8.316496542E0,-1.079105988E0,2.823728027E0,5.891748047E-1,3.079778670E0
8.326575542E0,-6.511459351E-1,4.082759857E0,8.321195984E-1,4.217267137E0
8.336654542E0,-4.896318054E-1,5.149890747E0,8.982820129E-1,5.250526125E0
8.346733542E0,-4.700225830E-1,5.933511200E0,8.973838806E-1,6.019366596E0
8.356812542E0,-3.059637451E-1,6.807244263E0,1.015188904E0,6.889324842E0
8.366891542E0,1.043330383E-1,7.750283203E0,1.084794159E0,7.826528827E0
8.376970542E0,6.882687378E-1,8.520731049E0,1.086141357E0,8.617208046E0
8.387049542E0,1.272653503E0,9.727371826E0,9.428892517E-1,9.855478158E0
8.397128542E0,1.849104767E0,1.218600906E1,2.080673218E-2,1.232551980E1
8.407207542E0,5.128335571E-1,1.133353180E1,2.661465454E-1,1.134824988E1
8.417286542E0,-6.349795532E-1,1.075229050E1,1.632804565E0,1.089408099E1
8.427365542E0,1.029409332E0,1.116528168E1,2.163151703E0,1.141938807E1
8.437444542E0,2.609972534E0,1.259211456E1,2.117646332E0,1.303294793E1
8.447523542E0,3.853436737E0,1.701092560E1,2.434088287E0,1.761094405E1
8.457602542E0,4.884193268E0,2.216800140E1,2.720742188E0,2.286215362E1
8.467681542E0,5.936055908E0,2.505519745E1,4.542154541E0,2.614633525E1
8.477760542E0,7.532037048E0,2.702674759E1,6.139931946E0,2.872064469E1
8.487839542E0,6.261628876E0,2.502496033E1,5.288203125E0,2.633290200E1
8.497918542E0,3.310515747E0,2.151116730E1,2.299667816E0,2.188557299E1
8.507997542E0,2.719245300E0,1.889805130E1,4.894821167E-2,1.909274820E1
8.518076542E0,2.970572662E0,1.727243179E1,-8.213420105E-1,1.754525020E1
8.528155542E0,3.095562744E0,1.594873444E1,3.817062378E-2,1.624641794E1
8.538234542E0,3.044518890E0,1.470003113E1,1.254092102E0,1.506428749E1
8.548313542E0,2.304757233E0,1.364397720E1,1.526076508E0,1.392116839E1
8.558392542E0,1.196312256E0,1.263462616E1,1.121617584E0,1.274060309E1
8.568471542E0,3.534150696E-1,1.136781052E1,4.800517273E-1,1.138342953E1
8.578550542E0,1.451980591E-2,9.901609497E0,1.160087585E-1,9.902299707E0
8.588629542E0,-2.499801636E-2,8.260122986E0,1.278341675E-1,8.261149933E0
8.598708542E0,-1.601669312E-2,6.783294067E0,3.803590393E-1,6.793968497E0
8.608787542E0,-2.353106689E-1,5.381459198E0,9.325607300E-1,5.466730625E0
8.618866542E0,-6.894662476E-1,4.039799194E0,1.278940430E0,4.293137531E0
8.628945542E0,-1.161883850E0,3.203039246E0,7.586224365E-1,3.490693698E0
8.639024542E0,-1.459165649E0,2.606230316E0,-2.073188782E-1,2.994091176E0
8.649102542E0,-1.511706390E0,2.009122009E0,-1.095871124E0,2.742765207E0
8.659181542E0,-9.265731812E-1,1.879940643E0,-1.245260468E0,2.437906543E0
8.669260542E0,-1.639091492E-1,1.921254730E0,-1.084943848E0,2.212507424E0
8.679339542E0,2.074685669E-1,1.616638184E0,-8.038284302E-1,1.817333863E0
8.689418542E0,5.150788879E-1,1.162482605E0,-2.251318359E-1,1.291261558E0
8.699497542E0,8.948391724E-1,1.034349060E0,6.583309937E-1,1.517898159E0
8.709576542E0,1.400487671E0,1.682351532E0,1.232985992E0,2.512354842E0
8.719655542E0,1.535057831E0,3.089874573E0,1.604663086E0,3.805084892E0
8.729734542E0,1.661245422E0,4.903203735E0,2.014660492E0,5.555177776E0
8.739813542E0,1.992656250E0,7.955057373E0,2.463277588E0,8.562788869E0
8.749892542E0,2.239642639E0,1.142798538E1,3.196303253E0,1.207605911E1
8.759971542E0,2.949466553E0,1.450139420E1,3.967200165E0,1.532085062E1
8.770050542E0,3.586541748E0,1.679552353E1,3.792962494E0,1.758804869E1
8.780129542E0,3.471131744E0,1.741957581E1,1.890418854E0,1.786236435E1
8.790208542E0,2.677931213E0,1.620410339E1,-3.281176758E-1,1.642717089E1
8.800287542E0,1.588496704E0,1.356838440E1,-1.605112152E0,1.375502679E1
8.810366542E0,6.417155457E-1,1.162362854E1,-1.327738953E0,1.171680118E1
8.820445542E0,3.445834351E-1,1.091036179E1,-3.978726196E-1,1.092305061E1
8.830524542E0,3.921844482E-2,1.044303360E1,-2.335144043E-2,1.044313335E1
8.840603542E0,-2.161505127E-1,1.002540207E1,-5.225633240E-1,1.004133856E1
8.850682542E0,-8.023315430E-2,9.600435791E0,-1.266067200E0,9.683890277E0
8.860761542E0,1.910028076E-1,8.930429077E0,-1.227746887E0,9.016452073E0
8.870840542E0,4.915777588E-1,8.364456024E0,-5.245092773E-1,8.395289349E0
8.880919542E0,6.373745728E-1,8.328381042E0,3.879931641E-1,8.361741196E0
8.890998542E0,4.114942932E-1,8.626111908E0,1.142124939E0,8.711118388E0
8.901077542E0,-1.296304321E-1,9.034612427E0,1.435514832E0,9.148864879E0
8.911156542E0,-8.553213501E-1,9.284442902E0,1.270108795E0,9.409868807E0
8.921235542E0,-1.138981476E0,9.573342133E0,6.614744568E-1,9.663524556E0
8.931314542E0,-1.064286804E0,9.891280975E0,1.440005493E-1,9.949416158E0
8.941393542E0,-6.780899048E-1,9.486971741E0,-1.742376709E-1,9.512770232E0
8.951472542E0,-2.318678284E-1,9.273815002E0,-7.993377686E-2,9.277057551E0
8.961551542E0,1.423539734E-1,9.036708069E0,9.475296021E-2,9.038325923E0
8.971630542E0,-3.775149536E-1,8.843010864E0,-5.938151550E-1,8.870962469E0
8.981709542E0,-2.378553772E-1,8.747060394E0,-1.037642212E0,8.811602697E0
8.991788542E0,8.532257080E-3,9.265731812E0,-8.969348145E-1,9.309046722E0
9.001867542E0,1.094224548E-1,9.720935211E0,1.109193420E-1,9.722183796E0
9.011946542E0,4.670288086E-2,1.010129425E1,7.584727478E-1,1.012983749E1
9.022025542E0,-2.345622253E-1,1.007285339E1,5.257067871E-1,1.008928950E1
9.032104542E0,-9.436376953E-1,1.025322830E1,-7.589218140E-2,1.029683943E1
9.042183542E0,-1.617686005E0,1.035786072E1,-4.625381470E-1,1.049362322E1
9.052262542E0,-1.110241241E0,1.018272491E1,-5.589376831E-1,1.025831047E1
9.062341542E0,-5.369334412E-1,1.037387741E1,-8.167016602E-1,1.041981918E1
9.072420542E0,-5.897735596E-2,1.126542343E1,-1.226699066E0,1.133216811E1
9.082499542E0,7.608677673E-1,1.225052490E1,-1.490600281E0,1.236431031E1
9.092578542E0,1.561253357E-1,1.137679184E1,-1.388362885E0,1.146225629E1
9.102657542E0,-6.144721985E-1,1.060424835E1,-1.217268677E0,1.069155752E1
9.112736542E0,-7.418572998E-1,1.014006363E1,-8.184979248E-1,1.020005792E1
9.122815542E0,-1.626218262E0,8.962013397E0,-1.220262451E0,9.189739410E0
9.132894542E0,-4.230802002E0,5.790109406E0,-1.408570862E0,7.308154649E0
9.142973542E0,-2.554138641E0,7.053631897E0,-3.724255371E-1,7.511061704E0
9.153052542E0,-7.155120850E-1,9.727072449E0,2.814147949E-1,9.757412067E0
9.163131542E0,-1.086889801E0,1.045755341E1,8.083190918E-2,1.051419452E1
9.173210542E0,-8.289761353E-1,1.040306671E1,-6.646179199E-2,1.043625486E1
9.183289542E0,-5.102888489E-1,1.029139893E1,-2.173480225E-1,1.030633430E1
9.193368542E0,-2.794688416E-1,9.952653351E0,-5.104385376E-1,9.969651902E0
9.203446542E0,2.950364685E-1,9.310039673E0,-9.496252441E-1,9.362994891E0
9.213525542E0,2.263293457E-1,9.726473694E0,-8.068222046E-1,9.762503652E0
9.223605417E0,-4.131408691E-2,1.026011398E1,-7.282356262E-1,1.028600860E1
9.233684417E0,-8.083190918E-2,1.009485764E1,-9.404942322E-1,1.013889609E1
9.243763417E0,-1.468446350E-1,1.046982788E1,-1.131796417E0,1.053184800E1
9.253842417E0,-1.411564636E-1,1.028226791E1,-9.180409241E-1,1.032413472E1
9.263921417E0,-4.290078735E-1,1.016146912E1,-8.337661743E-1,1.020463955E1
9.274000417E0,-4.899311829E-1,1.089479416E1,-9.295669556E-1,1.094534911E1
9.284079417E0,-5.535488892E-1,1.051233948E1,-3.876937866E-1,1.053404026E1
9.294158417E0,-1.895059204E-1,1.005159760E1,-1.143621826E-1,1.005403429E1
9.304237417E0,8.517288208E-2,9.750423889E0,-1.701960754E-1,9.752281125E0
9.314316417E0,1.463955688E-1,9.479786682E0,-2.170486450E-1,9.483401147E0
9.324395417E0,7.634124756E-2,9.283245392E0,-8.771759033E-2,9.283973684E0
9.334474417E0,2.454895020E-2,9.233997803E0,1.924996948E-1,9.236036715E0
9.344553417E0,1.673519897E-1,9.281898193E0,-3.876937866E-2,9.283487697E0
9.354632417E0,2.058219910E-1,9.296417999E0,-6.198609924E-1,9.319333558E0
9.364711417E0,2.658471680E-1,9.364077301E0,-8.629554749E-1,9.407513517E0
9.374790417E0,3.634442139E-1,9.461075592E0,-8.770262146E-1,9.508586542E0
9.384869417E0,4.099974060E-1,9.484726410E0,-6.926097107E-1,9.518815113E0
9.394948417E0,3.673361206E-1,9.609716492E0,-4.797523499E-1,9.628694054E0
9.405027417E0,2.019300842E-1,9.736951904E0,-3.923341370E-1,9.746944866E0
9.415106417E0,3.626957703E-1,1.003602997E1,-7.171586609E-1,1.006815585E1
9.425185417E0,-3.023712158E-2,1.013317795E1,-4.824467468E-1,1.014470130E1
9.435264417E0,1.380130005E-1,9.978549500E0,-7.415579224E-1,1.000701783E1
9.445343417E0,-2.505789185E-1,1.007509872E1,-7.370672607E-1,1.010513099E1
9.455422417E0,-4.116439819E-1,1.009306137E1,-6.984475708E-1,1.012556999E1
9.465501417E0,-4.893324280E-1,1.010862900E1,-3.188369751E-1,1.012548683E1
9.475580417E0,-4.736151123E-1,1.044767395E1,-2.044747925E-1,1.046040210E1
9.485659417E0,-3.005749512E-1,1.075258987E1,-3.787124634E-2,1.075685681E1
9.495738417E0,-3.481759644E-1,1.076920532E1,4.248165894E-1,1.078320356E1
9.505817417E0,-3.311114502E-1,1.119656662E1,6.589297485E-1,1.122082561E1
9.515896417E0,-3.170407104E-1,1.189336761E1,8.014334106E-1,1.192455465E1
9.525975417E0,-6.107299805E-1,1.160850998E1,8.062234497E-1,1.165248863E1
9.536054417E0,-2.300715637E-1,1.164293839E1,-5.292993164E-1,1.165723402E1
9.546133417E0,-3.930825806E-1,1.139430542E1,-7.568261719E-1,1.142617590E1
9.556212417E0,-5.084925842E-1,1.030651749E1,-2.728825378E-1,1.032266111E1
9.566291417E0,-1.639091492E-1,9.696386261E0,-1.365161133E-1,9.698732359E0
9.576370417E0,-2.977308655E-1,9.353000336E0,3.692820740E-1,9.365021527E0
9.586449417E0,-8.931925964E-1,9.030570831E0,1.449884949E0,9.189731711E0
9.596528417E0,-1.841021576E0,8.832981720E0,2.412832489E0,9.339844063E0
9.606607417E0,-2.921175385E0,7.620503082E0,1.062939606E0,8.230138119E0
9.616686417E0,-2.191293182E0,7.326664124E0,-2.217189331E0,7.962267360E0
9.626765417E0,4.062551880E-1,9.142687683E0,-3.238964539E0,9.707969542E0
9.636844417E0,1.365310822E0,1.028136978E1,-2.044298859E0,1.057117761E1
9.646923417E0,9.942324829E-1,9.725725250E0,-2.664459229E-1,9.780042091E0
9.657002417E0,8.475375366E-1,1.018122803E1,1.227447510E-1,1.021718113E1
9.667081417E0,4.831951904E-1,1.051368668E1,4.281097412E-2,1.052487140E1
9.677160417E0,5.833369446E-1,1.043330383E1,-4.610412598E-1,1.045976433E1
9.687239417E0,1.066681824E0,1.041938278E1,-1.569037170E0,1.059071411E1
9.697318417E0,8.006849670E-1,9.811047821E0,-2.073188782E0,1.005961567E1
9.707396417E0,4.773573303E-1,9.490414581E0,-1.509161682E0,9.621507570E0
9.717475417E0,-2.140548706E-2,9.335636444E0,-6.273454285E-1,9.356715679E0
9.727554417E0,-3.062631226E-1,9.262588348E0,-8.253836060E-1,9.304332223E0
9.737633417E0,-3.022215271E-1,8.143365784E0,-9.461824036E-1,8.203718991E0
9.747712417E0,-4.394860840E-1,7.630382538E0,-3.682342529E-1,7.651894024E0
9.757791417E0,-6.659651184E-1,7.543413391E0,-9.325607300E-2,7.573327659E0
9.767870417E0,-8.063731384E-1,7.783663788E0,2.710862732E-1,7.830015796E0
9.777949417E0,-5.752537537E-1,8.168064423E0,2.553689575E-1,8.192277253E0
9.788028417E0,-4.400848389E-2,8.697214050E0,-2.142045593E-1,8.699962792E0
9.798107417E0,4.445755005E-2,9.365424500E0,2.619552612E-2,9.365566653E0
9.808186417E0,4.052073669E-1,1.006012985E1,-2.739303589E-2,1.006832439E1
9.818265417E0,4.837939453E-1,1.042087967E1,-2.176473999E-1,1.043437397E1
9.828344417E0,-4.376898193E-1,9.970017242E0,2.613565063E-1,9.983041792E0
9.838423417E0,-2.447410583E-1,8.644972687E0,-8.421487427E-1,8.689342061E0
9.848502417E0,1.527723083E0,9.110654297E0,-1.210382996E0,9.316812037E0
9.858581417E0,-3.356021118E-1,1.064391586E1,9.119036865E-1,1.068817767E1
9.868660417E0,-9.720785522E-1,9.470505981E0,2.945874023E-1,9.524820313E0
9.878739417E0,-1.087787933E0,8.548273773E0,5.707630920E-1,8.636089254E0
9.888818417E0,-1.008752289E0,8.362659760E0,9.262738037E-1,8.474057033E0
9.898897417E0,-5.258564758E-1,8.917106781E0,8.762777710E-1,8.975476651E0
9.908976417E0,9.834548950E-2,9.397607574E0,3.528163147E-1,9.404742384E0
9.919055417E0,5.292993164E-1,9.664801941E0,8.502319336E-2,9.679658221E0
9.929134417E0,8.286767578E-1,9.836195526E0,2.850073242E-1,9.875154519E0
9.939213417E0,9.765692139E-1,9.935289459E0,7.557783508E-1,1.001173636E1
9.949292417E0,6.141728210E-1,9.557026062E0,1.151854706E0,9.645762006E0
9.959371417E0,2.525248718E-1,8.683292999E0,9.131011963E-1,8.734821115E0
9.969450417E0,2.519261169E-1,8.358917542E0,4.739144897E-1,8.376130621E0
9.979529417E0,3.448828125E-1,8.494086456E0,5.131329346E-1,8.516557655E0
9.989608417E0,5.701643372E-1,8.983119507E0,6.099815369E-1,9.021840218E0