"Time (s)","Acceleration x (m/s^2)","Acceleration y (m/s^2)","Acceleration z (m/s^2)","Absolute acceleration (m/s^2)"
1.509374939E-3,-1.222058716E0,9.286388855E0,1.061592407E0,9.426421586E0
1.158837497E-2,-1.044976959E0,9.112600250E0,1.200503540E0,9.250549655E0
2.166737500E-2,-1.030457153E0,9.057215424E0,1.179547119E0,9.191644281E0
3.174637503E-2,-1.098415833E0,9.170679474E0,1.100511475E0,9.301559270E0
4.182537494E-2,-1.156345367E0,9.445358276E0,9.877958679E-1,9.567009368E0
5.190437497E-2,-1.237476654E0,9.608818359E0,9.610015869E-1,9.735720969E0
6.198337500E-2,-1.453627167E0,9.514215088E0,9.857002258E-1,9.674963856E0
7.206237502E-2,-1.112486572E0,9.581275635E0,9.755213928E-1,9.694849723E0
8.214137494E-2,-1.051413574E0,9.646390228E0,9.360035706E-1,9.748559772E0
9.222037497E-2,-9.611512756E-1,9.484127655E0,7.711962891E-1,9.563850316E0
1.022993750E-1,-8.753796387E-1,9.413474579E0,6.863227844E-1,9.478967883E0
1.123783750E-1,-9.321116638E-1,9.368268585E0,6.135740662E-1,9.434498480E0
1.224573749E-1,-9.451345825E-1,9.377249908E0,6.012995911E-1,9.443921665E0
1.325363750E-1,-1.144370270E0,9.702972565E0,6.158193970E-1,9.789611506E0
1.426153750E-1,-1.478924561E0,1.000175125E1,7.209008789E-1,1.013617009E1
1.526943750E-1,-1.743424530E0,1.032343231E1,7.289840698E-1,1.049496077E1
1.627733749E-1,-1.904190216E0,1.074540482E1,5.602848816E-1,1.092719471E1
1.728523750E-1,-1.862576752E0,1.115525253E1,5.415737915E-1,1.132263898E1
1.829313750E-1,-1.679806824E0,1.106873245E1,5.285508728E-1,1.120794161E1
1.930103750E-1,-1.409468994E0,1.068537964E1,5.833369446E-1,1.079371219E1
2.030893749E-1,-1.334175568E0,1.030187714E1,6.134243774E-1,1.040600723E1
2.131683750E-1,-1.402283936E0,9.875863037E0,4.749623108E-1,9.986223518E0
2.232483750E-1,-1.744322662E0,9.503138123E0,2.448907471E-1,9.665002183E0
2.333273750E-1,-2.153122559E0,9.111702118E0,2.203417969E-1,9.365233726E0
2.434063749E-1,-2.411934357E0,8.845705261E0,4.713697815E-1,9.180747158E0
2.534853750E-1,-2.249372406E0,9.031918030E0,7.652087402E-1,9.339205744E0
2.635643750E-1,-1.983674927E0,9.322613525E0,9.758207703E-1,9.581143738E0
2.736433750E-1,-1.949096832E0,9.695937195E0,1.158590698E0,9.957535285E0
2.837223749E-1,-1.909579010E0,9.871522064E0,1.168021088E0,1.012213975E1
2.938013750E-1,-1.865420837E0,9.770033112E0,1.005459137E0,9.997214111E0
3.038803750E-1,-1.956880646E0,9.675579529E0,7.994874573E-1,9.903807413E0
3.139593750E-1,-1.933529205E0,9.684411163E0,5.185217285E-1,9.889146553E0
3.240383749E-1,-2.010020142E0,9.714947662E0,4.390370178E-1,9.930415024E0
3.341173750E-1,-1.787732391E0,9.636660461E0,4.495152283E-1,9.811385014E0
3.441963750E-1,-1.738035736E0,9.596543884E0,6.033952332E-1,9.771310483E0
3.542753750E-1,-1.869612122E0,9.563462677E0,8.008346558E-1,9.777351584E0
3.643543749E-1,-1.783092041E0,9.508826294E0,8.898994446E-1,9.715406103E0
3.744333750E-1,-1.689686279E0,9.667496338E0,8.711883545E-1,9.852638952E0
3.845123750E-1,-1.837429047E0,9.706714783E0,5.957611084E-1,9.897039389E0
3.945913750E-1,-2.077978821E0,9.704020386E0,4.041595459E-1,9.932238044E0
4.046703749E-1,-2.066153412E0,9.698032837E0,3.442840576E-1,9.921661269E0
4.147493750E-1,-1.937570801E0,9.730215912E0,4.816983032E-1,9.932940932E0
4.248283750E-1,-1.637594604E0,9.590256958E0,8.620573425E-1,9.767184214E0
4.349073750E-1,-1.446442108E0,9.336833954E0,1.097667389E0,9.511757816E0
4.449863749E-1,-1.311871948E0,9.185947723E0,1.022074585E0,9.335270754E0
4.550653750E-1,-1.447639618E0,9.084309082E0,8.785231018E-1,9.240786482E0
4.651443750E-1,-1.587897949E0,9.187594299E0,8.005352783E-1,9.358106947E0
4.752233750E-1,-1.757195892E0,9.585466919E0,6.569837952E-1,9.767320061E0
4.853023749E-1,-1.919757843E0,9.920320587E0,4.498146057E-1,1.011437412E1
4.953813750E-1,-2.205513611E0,1.006267456E1,1.354682922E-1,1.030242987E1
5.054603750E-1,-1.910327454E0,9.549541626E0,4.415817261E-1,9.748748159E0
5.155393750E-1,-1.740580444E0,9.600286102E0,1.045276337E0,9.812630440E0
5.256183749E-1,-1.721719666E0,9.618398438E0,1.209484863E0,9.845849925E0
5.356973750E-1,-1.764680328E0,9.493558044E0,1.057850189E0,9.713948117E0
5.457763750E-1,-1.802252197E0,9.427844696E0,8.246351624E-1,9.633918816E0
5.558553750E-1,-1.782792664E0,9.430239716E0,5.845344543E-1,9.615063770E0
5.659343749E-1,-1.812431030E0,9.613758087E0,4.593946838E-1,9.793890661E0
5.760133750E-1,-1.820813599E0,9.678573303E0,4.676275635E-1,9.859453275E0
5.860923750E-1,-1.775457916E0,9.573940887E0,4.251159668E-1,9.746451586E0
5.961713750E-1,-1.714384918E0,9.418414307E0,5.502557373E-1,9.588974141E0
6.062503749E-1,-1.749711456E0,9.457483063E0,6.487509155E-1,9.639831628E0
6.163293750E-1,-1.785187683E0,9.328900452E0,5.343887329E-1,9.513193471E0
6.264083750E-1,-1.643282776E0,9.563911743E0,5.483097839E-1,9.719538555E0
6.364873750E-1,-1.616039429E0,9.845326538E0,7.000941467E-1,1.000160837E1
6.465663749E-1,-1.611848145E0,9.903854828E0,5.480104065E-1,1.004911490E1
6.566453750E-1,-1.702110443E0,9.910291443E0,3.962260437E-1,1.006320285E1
6.667243750E-1,-1.793719940E0,9.837243347E0,4.239184570E-1,1.000842119E1
6.768033750E-1,-1.766626282E0,9.714648285E0,6.107299805E-1,9.892843415E0
6.868820000E-1,-1.828747101E0,9.447154541E0,5.511538696E-1,9.638299408E0
6.969610000E-1,-2.002835083E0,9.315727844E0,3.778143311E-1,9.536082912E0
7.070400000E-1,-1.891167297E0,9.305998077E0,4.978646851E-1,9.509257763E0
7.171190000E-1,-1.925895081E0,9.425449677E0,3.947291565E-1,9.628290844E0
7.271979999E-1,-1.783990173E0,9.493108978E0,5.068460083E-1,9.672571111E0
7.372770000E-1,-1.673519897E0,9.547595673E0,6.221063232E-1,9.713097768E0
7.473560000E-1,-1.682800598E0,9.740843811E0,6.894662476E-1,9.909148284E0
7.574350000E-1,-1.773212585E0,9.815987549E0,6.500981140E-1,9.996025310E0
7.675139999E-1,-1.858834534E0,9.771829376E0,6.210585022E-1,9.966425078E0
7.775930000E-1,-1.931433563E0,9.736502838E0,7.295828247E-1,9.953000262E0
7.876730000E-1,-2.005679169E0,9.570797424E0,7.119195557E-1,9.804577590E0
7.977519999E-1,-1.974394226E0,9.629774780E0,5.658233643E-1,9.846367399E0
8.078310000E-1,-1.934277649E0,9.648785248E0,5.526507568E-1,9.856262458E0
8.179100000E-1,-1.843865662E0,9.597591705E0,7.420069885E-1,9.801233672E0
8.279890000E-1,-1.764081573E0,9.552086334E0,8.427474976E-1,9.750105665E0
8.380679999E-1,-1.720971222E0,9.486223297E0,7.788304138E-1,9.672473893E0
8.481470000E-1,-1.793719940E0,9.359287262E0,7.063810730E-1,9.555765982E0
8.582260000E-1,-1.838626556E0,9.219477997E0,5.939648438E-1,9.419772629E0
8.683050000E-1,-1.613644409E0,9.445807343E0,6.735992432E-1,9.606292759E0
8.783840000E-1,-1.552122345E0,9.705367584E0,9.530680847E-1,9.874795314E0
8.884630000E-1,-1.636097717E0,9.789043579E0,9.662406921E-1,9.971750649E0
8.985420000E-1,-1.724713440E0,9.825867004E0,8.009843445E-1,1.000819038E1
9.086210000E-1,-1.787882080E0,9.665101318E0,7.427554321E-1,9.857098531E0
9.187000000E-1,-1.571581879E0,9.597292328E0,6.041436768E-1,9.743863670E0
9.287790000E-1,-1.311422882E0,9.845176849E0,5.132826233E-1,9.945390702E0
9.388580000E-1,-1.229094086E0,9.933493195E0,3.460803223E-1,1.001522496E1
9.489370000E-1,-1.183289337E0,1.006417145E1,3.504212952E-1,1.013955204E1
9.590160000E-1,-1.279688873E0,9.972112885E0,4.751119995E-1,1.006510658E1
9.690949999E-1,-1.416354675E0,9.874366150E0,5.740562439E-1,9.991932145E0
9.791740000E-1,-1.629810791E0,9.842781830E0,7.099736023E-1,1.000203479E1
9.892530000E-1,-1.722019043E0,9.708361359E0,6.453080750E-1,9.880994503E0
9.993320000E-1,-1.795516205E0,9.614656219E0,5.920188904E-1,9.798774364E0
1.009411000E0,-1.792672119E0,9.557475128E0,5.040019226E-1,9.737197856E0
1.019490000E0,-1.832339630E0,9.523795166E0,3.939807129E-1,9.706459895E0
1.029569000E0,-1.858235779E0,9.468260651E0,4.297563171E-1,9.658451763E0
1.039648000E0,-1.745969238E0,9.392218781E0,5.614823914E-1,9.569610477E0
1.049727000E0,-1.444645844E0,9.222920837E0,7.141648865E-1,9.362654638E0
1.059806000E0,-9.397457886E-1,9.194929047E0,8.259823608E-1,9.279659971E0
1.069885000E0,-7.878117371E-1,1.031519943E1,6.605763245E-1,1.036630830E1
1.079964000E0,-1.644629974E0,1.017928207E1,3.592529297E-1,1.031754108E1
1.090043000E0,-1.801204376E0,9.582772522E0,4.971162415E-1,9.763246948E0
1.100122000E0,-1.883832550E0,9.476792908E0,5.758525085E-1,9.679361291E0
1.110201000E0,-1.830094299E0,9.535171509E0,4.481680298E-1,9.719547079E0
1.120280000E0,-1.814077606E0,9.733359375E0,4.352947998E-1,9.910531966E0
1.130359000E0,-1.721569977E0,9.757010193E0,5.037025452E-1,9.920522534E0
1.140438000E0,-1.609602814E0,9.618697815E0,6.301895142E-1,9.772784030E0
1.150517000E0,-1.543290710E0,9.560169525E0,7.183561707E-1,9.710541857E0
1.160596000E0,-1.526974640E0,9.572743378E0,6.399192810E-1,9.714863046E0
1.170675000E0,-1.750908966E0,9.505533142E0,5.492079163E-1,9.681036714E0
1.180754000E0,-1.774260406E0,9.438173218E0,6.372248840E-1,9.624612680E0
1.190833000E0,-1.705403595E0,9.573491821E0,5.852828979E-1,9.741801843E0
1.200912000E0,-1.606159973E0,9.721384277E0,5.445675659E-1,9.868212399E0
1.210991000E0,-1.606459351E0,9.739197235E0,4.456233215E-1,9.880852927E0
1.221070000E0,-1.537003784E0,9.852810974E0,3.622467041E-1,9.978551368E0
1.231149000E0,-1.292262726E0,9.965376892E0,3.631448364E-1,1.005537437E1
1.241228000E0,-1.202150116E0,9.899513855E0,2.847079468E-1,9.976301824E0
1.251307000E0,-1.341959381E0,9.826615448E0,2.784210205E-1,9.921730918E0
1.261386000E0,-1.102307739E0,9.945318604E0,4.721182251E-1,1.001735195E1
1.271465000E0,-1.746118927E0,9.585466919E0,9.295669556E-1,9.787451256E0
1.281544000E0,-2.638563080E0,9.042246552E0,1.401685181E0,9.523075090E0
1.291623000E0,-2.462229767E0,9.081315308E0,1.094823303E0,9.472671281E0
1.301702000E0,-2.327060852E0,9.385033722E0,8.493338013E-1,9.706463727E0
1.311781000E0,-2.263143768E0,9.701775055E0,8.887019348E-1,1.000180234E1
1.321860000E0,-1.835932159E0,9.922865295E0,1.111289062E0,1.015228378E1
1.331939000E0,-1.666634216E0,9.950258331E0,1.293909302E0,1.017150489E1
1.342018000E0,-1.544787598E0,9.900561676E0,1.282233582E0,1.010205985E1
1.352097000E0,-1.247655487E0,9.614656219E0,9.484277344E-1,9.741548830E0
1.362177000E0,-1.471440125E0,9.021739197E0,1.166973267E0,9.215136504E0
1.372255000E0,-1.257834320E0,9.048832855E0,-5.095404053E-1,9.150035773E0
1.382335000E0,-7.918533325E-1,9.638007660E0,-1.102307739E0,9.733103601E0
1.392414000E0,-8.181985474E-1,9.965526581E0,-3.607498169E-1,1.000556392E1
1.402493000E0,-1.307231598E0,9.472152557E0,8.650511169E-1,9.600981302E0
1.412572000E0,-1.620829468E0,9.640702057E0,5.785469055E-1,9.793106802E0
1.422651000E0,-1.643133087E0,9.633367310E0,8.644523621E-1,9.810653900E0
1.432730000E0,-1.902992706E0,9.497449951E0,1.024020538E0,9.740203020E0
1.442809000E0,-1.809137878E0,9.658365326E0,9.584568787E-1,9.872975247E0
1.452888000E0,-1.616488495E0,9.711804199E0,5.676196289E-1,9.861762921E0
1.462967000E0,-1.549128571E0,9.379944305E0,5.264552307E-1,9.521570753E0
1.473046000E0,-1.450334015E0,9.250463562E0,3.176394653E-1,9.368854770E0
1.483125000E0,-1.258133698E0,9.755662994E0,1.628613281E-1,9.837803854E0
1.493204000E0,-1.648821259E0,9.969268799E0,4.122427368E-1,1.011310417E1
1.503283000E0,-1.763333130E0,9.853110352E0,5.391787720E-1,1.002416286E1
1.513362000E0,-2.140099640E0,8.627459106E0,6.396199036E-1,8.911912854E0
1.523441000E0,-2.345173187E0,8.092172241E0,5.408253479E-1,8.442486655E0
1.533520000E0,-1.850451965E0,8.831484833E0,7.858657837E-1,9.057421369E0
1.543599000E0,-1.518292694E0,9.571845245E0,6.182144165E-1,9.711211210E0
1.553678000E0,-1.592837677E0,9.317224731E0,-1.701960754E-1,9.453929091E0
1.563757000E0,-1.380579071E0,1.036384827E1,-2.046244812E-1,1.045740028E1
1.573836000E0,-1.273401947E0,9.552535400E0,-3.423381042E-1,9.643115704E0
1.583915000E0,-7.722441101E-1,1.119941071E1,-1.347198486E-3,1.122600387E1
1.593994000E0,-1.294058990E0,1.177167068E1,6.676116943E-2,1.184277317E1
1.604073000E0,-1.668131104E0,1.099134338E1,3.409909058E-1,1.112243523E1
1.614152000E0,-7.647596741E-1,7.974516907E0,7.448510742E-1,8.045655994E0
1.624231000E0,-6.273454285E-1,6.773115234E0,6.301895142E-1,6.831236425E0
1.634310000E0,-7.444020081E-1,8.538244629E0,5.183720398E-1,8.586295200E0
1.644389000E0,-1.162781982E0,9.599537659E0,4.213737488E-1,9.678881187E0
1.654468000E0,-1.422042847E0,1.012883698E1,4.900808716E-1,1.023990838E1
1.664547000E0,-1.556463318E0,9.839788055E0,2.553689575E-1,9.965401163E0
1.674626000E0,-1.845661926E0,9.235195312E0,-8.442443848E-2,9.418196637E0
1.684705750E0,-2.320773926E0,8.609197083E0,3.472778320E-2,8.916584102E0
1.694784750E0,-2.676284637E0,8.017327881E0,2.935395813E-1,8.457317027E0
1.704863750E0,-2.414928131E0,7.421716461E0,4.399351501E-1,7.817115583E0
1.714942750E0,-2.356998596E0,7.239395599E0,9.680369568E-1,7.674723876E0
1.725021750E0,-2.351011047E0,7.755821686E0,1.219514008E0,8.195562054E0
1.735100750E0,-1.766177216E0,8.360264740E0,7.544311523E-1,8.578028611E0
1.745179750E0,-1.518741760E0,9.119485931E0,7.126679993E-1,9.272512921E0
1.755258750E0,-1.163081360E0,1.009366013E1,3.719764709E-1,1.016725624E1
1.765337750E0,-8.201445007E-1,1.083536774E1,6.017486572E-2,1.086652898E1
1.775416750E0,-4.125421143E-1,1.153665939E1,8.068222046E-2,1.154431508E1
1.785495750E0,1.221459961E-1,1.148516647E1,2.971321106E-1,1.148965866E1
1.795574750E0,2.999761963E-1,1.098101486E1,3.567082214E-1,1.099090141E1
1.805653750E0,-4.828958130E-1,1.042821442E1,1.895059204E-1,1.044110898E1
1.815732750E0,-7.030879211E-1,1.013991394E1,-1.826202393E-1,1.016590072E1
1.825811750E0,-7.015910339E-1,1.027613068E1,-8.741821289E-1,1.033708305E1
1.835890750E0,-8.184979248E-1,1.033540741E1,-1.188079376E0,1.043561775E1
1.845969750E0,-8.400531006E-1,1.039513321E1,-9.618997192E-1,1.047328672E1
1.856048750E0,-6.107299805E-1,1.045545776E1,-7.289840698E-1,1.049861924E1
1.866127750E0,-5.056484985E-1,1.045560745E1,-5.893244934E-1,1.048440322E1
1.876206750E0,-2.387535095E-1,1.017404297E1,-6.988966370E-1,1.020081419E1
1.886285750E0,-3.126997375E-1,1.005069946E1,-9.075627136E-1,1.009643555E1
1.896364750E0,-7.616162109E-1,1.001582199E1,-8.009843445E-1,1.007662271E1
1.906443750E0,-1.109792175E0,9.770332489E0,-6.730004883E-1,9.856163821E0
1.916522750E0,-1.438957672E0,9.568552094E0,-4.755610657E-1,9.687824662E0
1.926601750E0,-1.754950562E0,9.310339050E0,-1.600172424E-1,9.475646164E0
1.936680750E0,-1.855092316E0,9.465865631E0,1.040336609E-1,9.646491727E0
1.946759750E0,-2.037113800E0,9.632319489E0,2.903961182E-1,9.849656911E0
1.956839750E0,-2.153421936E0,9.713450775E0,3.977229309E-1,9.957235335E0
1.966918750E0,-2.207160187E0,9.757758636E0,2.014810181E-1,1.000629823E1
1.976997750E0,-2.163600769E0,9.560468903E0,-7.933502197E-2,9.802552115E0
1.987076750E0,-2.120640106E0,9.361831970E0,-2.556683350E-1,9.602415248E0
1.997155750E0,-2.041754150E0,9.236692200E0,-2.556683350E-1,9.463118360E0
2.007234750E0,-1.702709198E0,9.358089752E0,1.886077881E-2,9.511751582E0
2.017313750E0,-1.609153748E0,9.430539093E0,5.960604858E-1,9.585391566E0
2.027392750E0,-1.635648651E0,9.617051239E0,1.149160309E0,9.822606093E0
2.037471750E0,-1.918560333E0,9.830357666E0,1.331930237E0,1.010400137E1
2.047550750E0,-2.197580109E0,9.863588562E0,1.115630035E0,1.016682684E1
2.057629750E0,-2.292632446E0,9.626032562E0,6.728507996E-1,9.918134634E0
2.067708750E0,-2.146386566E0,9.326655121E0,2.104623413E-1,9.572761641E0
2.077787750E0,-1.890718231E0,9.001381531E0,-1.496887207E-4,9.197808702E0
2.087866750E0,-1.531764679E0,8.731343079E0,1.493893433E-1,8.865944516E0
2.097945750E0,-1.229842529E0,8.576864319E0,3.460803223E-1,8.671498474E0
2.108024750E0,-9.632469177E-1,8.426576843E0,4.589456177E-1,8.493860901E0
2.118103750E0,-8.086184692E-1,8.335266724E0,5.288502502E-1,8.391079655E0
2.128182750E0,-5.632786560E-1,8.321046295E0,5.691165161E-1,8.359484906E0
2.138261750E0,-3.347039795E-1,8.386310577E0,5.635780334E-1,8.411887544E0
2.148340750E0,-1.389111328E-1,8.466394043E0,5.608836365E-1,8.486089491E0
2.158419750E0,-9.415420532E-2,8.596024475E0,7.643106079E-1,8.630450307E0
2.168498750E0,-2.628533936E-1,8.827892303E0,8.988807678E-1,8.877429868E0
2.178577750E0,-6.646179199E-2,9.057065735E0,9.903405762E-1,9.111291421E0
2.188656750E0,1.929487610E-1,9.424401855E0,1.022224274E0,9.481641315E0
2.198735750E0,3.382965088E-1,9.973160706E0,9.086105347E-1,1.002017725E1
2.208814750E0,4.016148376E-1,1.063942520E1,8.059240723E-1,1.067746115E1
2.218893750E0,4.147874451E-1,1.141316620E1,6.707551575E-1,1.144038128E1
2.228972750E0,4.231700134E-1,1.226489502E1,4.314028931E-1,1.227977325E1
2.239051750E0,3.370989990E-1,1.310674438E1,1.655557251E-1,1.311212389E1
2.249130750E0,3.373983765E-1,1.392075165E1,-4.939727783E-2,1.392492744E1
2.259209750E0,5.599855042E-1,1.425081528E1,-2.291734314E-1,1.426365452E1
2.269288750E0,1.078656921E0,1.362122452E1,-2.926414490E-1,1.366700030E1
2.279367750E0,1.313817902E0,1.240709930E1,-5.716612244E-1,1.248955672E1
2.289446750E0,1.114282837E0,1.117471207E1,-9.449848938E-1,1.126981865E1
2.299525750E0,7.288343811E-1,1.008153534E1,-1.144370270E0,1.017242044E1
2.309604750E0,4.445755005E-1,9.198371887E0,-1.145717468E0,9.280105671E0
2.319683750E0,3.655398560E-1,8.519982605E0,-1.113085327E0,8.600155924E0
2.329762750E0,6.274951172E-1,8.317004700E0,-1.172212372E0,8.422612370E0
2.339841750E0,9.285191345E-1,8.017776947E0,-1.206640778E0,8.161058566E0
2.349920750E0,1.100212097E0,7.899073792E0,-1.086141357E0,8.048946296E0
2.359999750E0,1.168320465E0,8.201744385E0,-7.981402588E-1,8.322896824E0
2.370078750E0,1.203347626E0,8.524173889E0,-2.972817993E-1,8.613823917E0
2.380157750E0,1.184636536E0,8.719218292E0,2.601589966E-1,8.803170682E0
2.390236750E0,1.041534119E0,9.105415192E0,5.935157776E-1,9.183988246E0
2.400315750E0,8.217910767E-1,9.402397614E0,7.592211914E-1,9.468729496E0
2.410394750E0,6.605763245E-1,9.632469177E0,1.109642487E0,9.718648568E0
2.420473750E0,5.908213806E-1,9.972711639E0,1.214574280E0,1.006375864E1
2.430552750E0,5.962101746E-1,1.029364426E1,1.199605408E0,1.038044468E1
2.440631750E0,5.933660889E-1,1.062310913E1,1.240919495E0,1.071178846E1
2.450710750E0,5.692662048E-1,1.087443649E1,1.420995026E0,1.098165106E1
2.460789750E0,4.975653076E-1,1.109792175E1,1.581910400E0,1.122113537E1
2.470868750E0,6.451583862E-2,1.118653748E1,1.482517090E0,1.128453100E1
2.480947750E0,-3.860472107E-1,1.131766479E1,1.238674164E0,1.139179014E1
2.491026750E0,-7.789801025E-1,1.143981079E1,1.000968475E0,1.150990959E1
2.501105750E0,-1.104104004E0,1.158485916E1,8.689430237E-1,1.166975019E1
2.511184750E0,-1.311422882E0,1.165087189E1,8.128097534E-1,1.175258718E1
2.521263750E0,-1.285676422E0,1.168170776E1,7.466473389E-1,1.177593913E1
2.531342750E0,-9.990225220E-1,1.163680115E1,7.119195557E-1,1.170128268E1
2.541421750E0,-6.599775696E-1,1.160027710E1,6.162684631E-1,1.163536789E1
2.551500750E0,-4.019142151E-1,1.160342056E1,4.692741394E-1,1.161985895E1
2.561579750E0,-2.960842896E-1,1.151001480E1,4.493655396E-1,1.152258808E1
2.571658750E0,-1.651066589E-1,1.136197266E1,5.057981873E-1,1.137442371E1
2.581737750E0,-3.008743286E-2,1.131227600E1,4.998106384E-1,1.132335216E1
2.591817750E0,1.216969299E-1,1.140193954E1,4.529580688E-1,1.141158212E1
2.601896750E0,2.845582581E-1,1.132963989E1,3.833528137E-1,1.133969457E1
2.611975750E0,2.838098145E-1,1.101664078E1,3.823049927E-1,1.102692519E1
2.622054750E0,-2.709365845E-2,1.052506302E1,5.321434021E-1,1.053854175E1
2.632133750E0,-3.299139404E-1,1.002659958E1,7.041357422E-1,1.005670669E1
2.642212750E0,-6.077362061E-1,9.528435516E0,9.080117798E-1,9.590876502E0
2.652291750E0,-8.446934509E-1,9.026978302E0,1.005010071E0,9.121945491E0
2.662370750E0,-1.097068634E0,8.768914948E0,1.094823303E0,8.904833913E0
2.672449750E0,-1.223555603E0,8.605903931E0,1.180445251E0,8.772235848E0
2.682528750E0,-1.723665619E0,8.434061279E0,1.273252258E0,8.702044825E0
2.692607250E0,-2.100282440E0,8.299491119E0,1.453776855E0,8.683674701E0
2.702686250E0,-2.346969452E0,8.081694031E0,1.629511414E0,8.571893108E0
2.712765250E0,-2.600093079E0,7.977360992E0,1.718576202E0,8.564594362E0
2.722844250E0,-2.820135498E0,8.125552826E0,1.775308228E0,8.782339794E0
2.732923250E0,-3.166365509E0,8.497529297E0,1.885778503E0,9.262291037E0
2.743002250E0,-3.422782288E0,8.993298340E0,1.742526398E0,9.779123267E0
2.753081250E0,-3.066373444E0,9.346863098E0,1.392703857E0,9.935095365E0
2.763160250E0,-2.377505951E0,9.700427856E0,1.128802643E0,1.005112086E1
2.773239250E0,-1.970652008E0,1.022134460E1,8.735833740E-1,1.044617168E1
2.783318250E0,-1.551523590E0,1.045919998E1,6.879693604E-1,1.059600828E1
2.793397250E0,-1.175804901E0,1.052206924E1,5.525010681E-1,1.060196754E1
2.803476250E0,-8.897497559E-1,1.035082535E1,3.595523071E-1,1.039521611E1
2.813555250E0,-7.487429810E-1,1.002151016E1,1.990859985E-1,1.005141369E1
2.823634250E0,-6.490502930E-1,9.679920502E0,1.348695374E-1,9.702593313E0
2.833713250E0,-5.703140259E-1,9.321266327E0,1.686991882E-1,9.340220738E0
2.843792250E0,-6.674620056E-1,9.234895935E0,2.056723022E-1,9.261269327E0
2.853871250E0,-7.794291687E-1,9.283544769E0,2.499801636E-1,9.319560258E0
2.863950250E0,-8.643026733E-1,9.266779633E0,2.487826538E-1,9.310323124E0
2.874029250E0,-7.268884277E-1,9.152567139E0,3.282673645E-1,9.187252662E0
2.884108250E0,-4.471202087E-1,8.901090088E0,4.993615723E-1,8.926291683E0
2.894187250E0,-2.448907471E-1,8.664881287E0,5.730084229E-1,8.687259513E0
2.904266250E0,-1.026864624E-1,8.514444122E0,5.373825073E-1,8.532003468E0
2.914345250E0,-1.904040527E-1,8.418194275E0,3.739224243E-1,8.428645593E0
2.924424250E0,-2.266287231E-1,8.393196259E0,1.113684082E-1,8.396993923E0
2.934503250E0,-9.101074219E-2,8.275391235E0,-1.260379028E-1,8.276851370E0
2.944582250E0,-8.232879639E-2,8.183482361E0,-3.981719971E-1,8.193576906E0
2.954661250E0,-3.652404785E-1,8.110733643E0,-6.251000977E-1,8.142981700E0
2.964740250E0,-5.227130127E-1,8.031697998E0,-7.882608032E-1,8.087197087E0
2.974819250E0,-8.390052795E-1,7.995473328E0,-8.226892090E-1,8.081357629E0
2.984898250E0,-1.174457703E0,8.164920959E0,-7.286846924E-1,8.281078828E0
2.994977250E0,-1.197509766E0,8.430468750E0,-6.593788147E-1,8.540586245E0
3.005056250E0,-1.197360077E0,8.527616730E0,-7.487429810E-1,8.643756955E0
3.015135250E0,-9.449848938E-1,8.603209534E0,-9.705816650E-1,8.709204298E0
3.025214250E0,-7.222480774E-1,8.797655182E0,-1.088985443E0,8.894170466E0
3.035293250E0,-5.498066711E-1,9.117839355E0,-9.449848938E-1,9.183151874E0
3.045372250E0,-2.694396973E-1,9.669142914E0,-5.794450378E-1,9.690236271E0
3.055451250E0,-1.451980591E-2,1.027238846E1,-2.788700867E-1,1.027618334E1
3.065530250E0,3.135978699E-1,1.079001205E1,-1.496887207E-3,1.079456836E1
3.075609250E0,5.959107971E-1,1.112860794E1,2.486329651E-1,1.114732446E1
3.085688250E0,1.144370270E0,1.123608444E1,4.593946838E-1,1.130354902E1
3.095767250E0,1.755249939E0,1.140089172E1,5.948629761E-1,1.155054529E1
3.105846250E0,1.497635651E0,1.161928757E1,4.691244507E-1,1.172479569E1
3.115925250E0,-2.260299683E-1,1.128518234E1,-1.871109009E-2,1.128746119E1
3.126004250E0,-6.007008362E-1,1.131137787E1,-2.998265076E-1,1.133128442E1
3.136083250E0,-5.667214966E-1,1.181792450E1,-2.380050659E-1,1.183389873E1
3.146162250E0,-1.968406677E-1,1.205712708E1,-3.971241760E-1,1.206527112E1
3.156241250E0,3.873944092E-1,1.192869415E1,-6.944059753E-1,1.195516701E1
3.166320250E0,8.080197144E-1,1.147543671E1,-8.732839966E-1,1.153694797E1
3.176399250E0,9.668394470E-1,1.099673218E1,-9.973759460E-1,1.108411728E1
3.186478250E0,7.011419678E-1,1.092518097E1,-9.292675781E-1,1.098702496E1
3.196557250E0,2.866539001E-1,1.119027969E1,-3.713777161E-1,1.120010944E1
3.206636250E0,5.837860107E-3,1.149160309E1,2.820135498E-1,1.149506447E1
3.216715250E0,-3.179388428E-1,1.162542480E1,7.692503357E-1,1.165518482E1
3.226794250E0,-5.405259705E-1,1.144085861E1,9.854008484E-1,1.149593097E1
3.236873250E0,-5.483097839E-1,1.104208786E1,8.292755127E-1,1.108675091E1
3.246952250E0,-4.093986511E-1,1.044887146E1,6.387217712E-1,1.047637760E1
3.257031250E0,-2.386038208E-1,9.815089417E0,5.489085388E-1,9.833321546E0
3.267110250E0,-7.918533325E-2,9.269024963E0,5.441184998E-1,9.285319544E0
3.277190250E0,1.070274353E-1,8.816965027E0,6.045927429E-1,8.838317687E0
3.287268250E0,1.627116394E-1,8.429271240E0,7.529342651E-1,8.464395946E0
3.297348250E0,8.187973022E-2,8.055498505E0,1.076710968E0,8.127549874E0
3.307427250E0,1.327738953E-1,7.994425507E0,1.376537476E0,8.113157432E0
3.317506250E0,3.159928894E-1,8.086783447E0,1.403481445E0,8.213749339E0
3.327585250E0,4.086502075E-1,8.430917816E0,1.374741211E0,8.552033887E0
3.337664250E0,4.456233215E-1,8.841064911E0,1.357527008E0,8.955774030E0
3.347743250E0,4.411326599E-1,9.286239166E0,1.407073975E0,9.402589699E0
3.357822250E0,3.529660034E-1,9.696086884E0,1.415007477E0,9.805148240E0
3.367901250E0,6.375242615E-1,1.009216324E1,1.417701874E0,1.021117401E1
3.377980250E0,9.951306152E-1,1.055544983E1,1.390308838E0,1.069302411E1
3.388059250E0,1.318458252E0,1.090467361E1,1.190773773E0,1.104844699E1
3.398138250E0,1.348096619E0,1.095137650E1,9.172924805E-1,1.107210175E1
3.408217250E0,5.343887329E-1,1.075962524E1,4.712200928E-1,1.078318854E1
3.418296250E0,6.439608765E-1,1.025038422E1,1.913021851E-1,1.027237357E1
3.428375250E0,1.231638794E0,9.948462067E0,4.640350342E-3,1.002441286E1
3.438454250E0,1.251846771E0,9.556427307E0,1.492396545E-1,9.639226924E0
3.448533250E0,5.881269836E-1,9.270372162E0,4.328997803E-1,9.299091116E0
3.458612250E0,2.562670898E-1,9.004375305E0,5.183720398E-1,9.022923973E0
3.468691250E0,6.795867920E-1,8.994645538E0,1.646575928E-1,9.021784673E0
3.478770250E0,2.293231201E-1,8.983718262E0,-1.032852173E-2,8.986650632E0
3.488849250E0,-2.576142883E-1,8.807834015E0,-2.094145203E-1,8.814088699E0
3.498928250E0,-4.846920776E-1,8.744066620E0,-3.697311401E-1,8.765291129E0
3.509007250E0,-4.143383789E-1,8.514294434E0,-2.600093079E-1,8.528334587E0
3.519086250E0,-2.332150269E-1,8.390352173E0,7.933502197E-2,8.393967648E0
3.529165250E0,-1.624122620E-1,8.489296417E0,5.066963196E-1,8.505955123E0
3.539244250E0,-1.606159973E-1,8.559201050E0,8.258326721E-1,8.600448809E0
3.549323250E0,-1.074765015E-1,8.731193390E0,9.083111572E-1,8.778970234E0
3.559402250E0,-1.001417542E-1,8.857979736E0,8.704399109E-1,8.901207728E0
3.569481250E0,-7.649093628E-2,8.931327209E0,8.707392883E-1,8.973998189E0
3.579560250E0,3.607498169E-2,8.905431061E0,8.939410400E-1,8.950258899E0
3.589639250E0,1.200503540E-1,8.855884094E0,9.373507690E-1,8.906162004E0
3.599718250E0,2.652484131E-1,8.817563782E0,9.147477722E-1,8.868852871E0
3.609797250E0,4.652325439E-1,8.859476624E0,8.372090149E-1,8.911099051E0
3.619876250E0,6.424639893E-1,9.044791260E0,7.179071045E-1,9.095955119E0
3.629955250E0,6.403683472E-1,9.342522125E0,6.080355835E-1,9.384162112E0
3.640034250E0,4.683760071E-1,9.697883148E0,6.110293579E-1,9.728395064E0
3.650113250E0,2.944377136E-1,1.002570145E1,7.006929016E-1,1.005446933E1
3.660192250E0,5.089416504E-2,1.042162811E1,8.924441528E-1,1.045989385E1
3.670271250E0,-2.306703186E-1,1.090706863E1,1.121767273E0,1.096702862E1
3.680350250E0,-3.510200500E-1,1.105930206E1,1.368005219E0,1.114911725E1
3.690429625E0,-6.661148071E-2,1.082848206E1,1.385967865E0,1.091702192E1
3.700508625E0,3.225791931E-1,1.057266403E1,1.022224274E0,1.062686334E1
3.710587625E0,4.911286926E-1,1.053284683E1,5.644761658E-1,1.055938933E1
3.720666625E0,6.301895142E-1,1.086111420E1,2.945874023E-1,1.088336906E1
3.730745625E0,8.075706482E-1,1.152618118E1,2.139051819E-1,1.155641720E1
3.740824625E0,9.840536499E-1,1.207389221E1,1.688488770E-1,1.211510399E1
3.750903625E0,1.104403381E0,1.235770203E1,1.658551025E-1,1.240806246E1
3.760982625E0,1.163380737E0,1.254137009E1,9.580078125E-3,1.259521775E1
3.771061625E0,7.069798279E-1,1.237132370E1,-1.568737793E-1,1.239250096E1
3.781140625E0,-1.347198486E-2,1.176238998E1,-1.981878662E-1,1.176406724E1
3.791219625E0,-3.818559265E-1,1.095571747E1,-1.272354126E-2,1.096237753E1
3.801298625E0,-6.789880371E-1,1.020128632E1,3.017724609E-1,1.022831041E1
3.811377625E0,-7.966433716E-1,9.456584930E0,5.584886169E-1,9.506500342E0
3.821456625E0,-8.533753967E-1,8.633446655E0,6.414161682E-1,8.699199125E0
3.831535625E0,-1.085692291E0,7.929011536E0,6.583309937E-1,8.030028106E0
3.841614625E0,-1.416055298E0,7.669600983E0,7.301815796E-1,7.833336261E0
3.851693625E0,-1.693129120E0,7.656727753E0,1.004261627E0,7.905738897E0
3.861772625E0,-2.058219910E0,7.802674255E0,1.402134247E0,8.190480766E0
3.871851625E0,-2.389031982E0,8.228838043E0,1.828747101E0,8.761596048E0
3.881930625E0,-2.746488647E0,8.915460205E0,2.042951660E0,9.549988589E0
3.892009625E0,-3.312162323E0,9.593550110E0,2.300565948E0,1.040669144E1
3.902088625E0,-3.027604065E0,1.035845947E1,2.410736847E0,1.105783528E1
3.912167625E0,-1.852547607E0,1.113758926E1,2.138602753E0,1.149136410E1
3.922246625E0,-1.130598907E0,1.163695084E1,1.582958221E0,1.179841665E1
3.932325625E0,-6.894662476E-1,1.185265228E1,1.006357269E0,1.191526268E1
3.942404625E0,-6.861730957E-1,1.198452805E1,6.494993591E-1,1.202171350E1
3.952483625E0,-5.794450378E-1,1.182510956E1,5.264552307E-1,1.185099691E1
3.962562625E0,-6.837780762E-1,1.137574402E1,9.184899902E-1,1.143322913E1
3.972641625E0,-1.043929138E0,1.069630692E1,1.558558960E0,1.085955228E1
3.982720625E0,-1.337768097E0,1.009291168E1,1.886526947E0,1.035449051E1
3.992800625E0,-1.620380402E0,9.710906067E0,1.992506561E0,1.004477036E1
4.002878625E0,-1.603166199E0,9.459878082E0,1.761836243E0,9.755178222E0
4.012958625E0,-1.444196777E0,9.337283020E0,1.417701874E0,9.554079607E0
4.023037625E0,-1.257984009E0,9.245673523E0,1.009500732E0,9.385312695E0
4.033116625E0,-1.237326965E0,9.112300873E0,6.158193970E-1,9.216519883E0
4.043195625E0,-1.178948364E0,8.983867950E0,3.849993896E-1,9.069069805E0
4.053274625E0,-1.011147308E0,8.822952576E0,2.721340942E-1,8.884872987E0
4.063353625E0,-8.306227112E-1,8.605604553E0,2.387535095E-1,8.648893979E0
4.073432625E0,-6.879693604E-1,8.369994507E0,2.119592285E-1,8.400894988E0
4.083511625E0,-5.827381897E-1,8.019872589E0,1.748364258E-1,8.042916630E0
4.093590625E0,-4.019142151E-1,7.748187561E0,2.118095398E-1,7.761495268E0
4.103669625E0,-1.866618347E-1,7.601193237E0,2.992277527E-1,7.609370442E0
4.113748625E0,-8.397537231E-2,7.611072693E0,4.363426208E-1,7.624032678E0
4.123827625E0,-1.468446350E-1,7.741002502E0,6.451583862E-1,7.769228561E0
4.133906625E0,-2.725831604E-1,7.826774139E0,8.975335693E-1,7.882782600E0
4.143985625E0,-4.049079895E-1,7.723937988E0,1.132245483E0,7.816978212E0
4.154064625E0,-5.104385376E-1,7.422165527E0,1.173709259E0,7.531711760E0
4.164143625E0,-5.011578369E-1,6.846612396E0,1.081800385E0,6.949644060E0
4.174222625E0,-3.592529297E-1,6.066135406E0,8.036787415E-1,6.129678699E0
4.184301625E0,-1.695973206E-1,5.126988373E0,5.888754272E-1,5.163482090E0
4.194380625E0,1.489402771E-1,4.073179779E0,3.972738647E-1,4.095217118E0
4.204459625E0,3.216810608E-1,3.139571228E0,2.733316040E-1,3.167822023E0
4.214538625E0,3.453318787E-1,2.268981628E0,1.802252197E-1,2.302175681E0
4.224617625E0,2.992277527E-1,1.437460785E0,8.247848511E-2,1.470589493E0
4.234696625E0,2.760260010E-1,7.159611511E-1,6.721023560E-2,7.702648498E-1
4.244775625E0,-1.059796143E-1,5.637277222E-1,1.052311707E-1,5.831759791E-1
4.254854625E0,-8.869056702E-1,1.462159424E0,2.883004761E-1,1.734251716E0
4.264933625E0,-1.080752563E0,2.934946747E0,6.795867920E-1,3.200590058E0
4.275012625E0,-7.292834473E-1,4.801565094E0,1.193168793E0,5.001053236E0
4.285091625E0,-6.060896301E-1,7.270381165E0,1.779649200E0,7.509523167E0
4.295170625E0,-5.028044128E-1,1.043584854E1,2.591710510E0,1.076460452E1
4.305249625E0,-5.864804077E-1,1.446771423E1,3.739822998E0,1.495476481E1
4.315328625E0,-4.930746460E-1,1.809137878E1,5.004393311E0,1.877724850E1
4.325407625E0,-2.502795410E-1,2.152014862E1,5.435047760E0,2.219727868E1
4.335486625E0,-3.942800903E-1,2.541804291E1,4.445455627E0,2.580686804E1
4.345565625E0,-5.444178772E-1,2.972084518E1,2.138752441E0,2.980267255E1
4.355644625E0,1.382824402E0,3.181020035E1,1.510059814E0,3.187603065E1
4.365723625E0,3.991749115E0,3.189537323E1,2.757266235E0,3.226222887E1
4.375802625E0,4.381538544E0,3.314213058E1,4.010460205E0,3.367020182E1
4.385881625E0,1.268761597E0,3.392620010E1,4.782554626E0,3.428512270E1
4.395960625E0,1.878593445E-1,3.378354675E1,4.126319275E0,3.403512646E1
4.406039625E0,1.184486847E0,3.241389496E1,3.201392670E0,3.259313594E1
4.416118625E0,1.584006042E0,3.015928345E1,2.397564240E0,3.029587047E1
4.426197625E0,1.875000916E0,2.685535400E1,1.919308777E0,2.698906099E1
4.436276625E0,1.961670685E0,2.311343536E1,1.373693390E0,2.323717022E1
4.446355625E0,9.488768005E-1,1.845871490E1,7.183561707E-1,1.849704189E1
4.456434625E0,5.882766724E-2,1.383602783E1,5.186714172E-1,1.384587111E1
4.466513625E0,-5.072950745E-1,1.003109024E1,6.044430542E-1,1.006208085E1
4.476592625E0,-7.797285461E-1,7.164700928E0,7.662565613E-1,7.247624791E0
4.486671625E0,-7.737409973E-1,4.975353699E0,8.982820129E-1,5.114658359E0
4.496750625E0,-7.277865601E-1,2.945574646E0,9.994715881E-1,3.194530752E0
4.506829625E0,-5.764512634E-1,1.217717743E0,1.136287079E0,1.762464435E0
4.516908625E0,-4.730163574E-1,-1.645079041E-1,1.296154633E0,1.389540988E0
4.526987625E0,-5.617817688E-1,-9.403445435E-1,1.256337433E0,1.666802436E0
4.537066625E0,-6.783892822E-1,-1.180445251E0,1.144819336E0,1.778840724E0
4.547145625E0,-7.683522034E-1,-1.266815643E0,1.059496765E0,1.821461056E0
4.557224625E0,-7.509883118E-1,-1.398242340E0,9.334588623E-1,1.841306746E0
4.567303625E0,-7.722441101E-1,-1.623523865E0,6.285429382E-1,1.904535883E0
4.577382625E0,-7.637118530E-1,-1.900747375E0,2.151026917E-1,2.059700354E0
4.587461625E0,-7.695497131E-1,-2.245330811E0,-1.709445190E-1,2.379693098E0
4.597540625E0,-7.310797119E-1,-2.467917938E0,-3.228785706E-1,2.594098507E0
4.607619625E0,-6.932084656E-1,-2.589165802E0,-2.284249878E-1,2.690073512E0
4.617698625E0,-6.538403320E-1,-2.605182495E0,-5.942642212E-2,2.686636282E0
4.627777625E0,-6.218069458E-1,-2.604434052E0,-4.939727783E-3,2.677637953E0
4.637856625E0,-5.592370605E-1,-2.601140900E0,-1.845661926E-1,2.666972956E0
4.647935625E0,-3.182382202E-1,-2.479443970E0,-3.040177917E-1,2.518202689E0
4.658014625E0,7.304809570E-2,-2.286794586E0,-2.674937439E-1,2.303544748E0
4.668093625E0,4.083508301E-1,-1.779349823E0,-6.870712280E-2,1.826898153E0
4.678172625E0,1.068777466E-1,-4.788542175E-1,1.243913269E-1,5.061594774E-1
4.688251250E0,3.225791931E-1,-1.112187195E-1,1.308279419E-1,3.654352060E-1
4.698330250E0,3.161425781E-1,-2.649490356E-2,1.956431580E-1,3.727255758E-1
4.708409250E0,1.951940918E-1,6.930587769E-2,3.191363525E-1,3.804629413E-1
4.718488250E0,3.847000122E-2,4.026626587E-2,4.183799744E-1,4.220700370E-1
4.728567250E0,-1.901046753E-1,-5.748046875E-2,5.077441406E-1,5.452044609E-1
4.738646250E0,-4.191284180E-1,-1.733395386E-1,5.468128967E-1,7.104361832E-1
4.748725250E0,-6.860234070E-1,-7.978408813E-2,5.643264771E-1,8.918845151E-1
4.758804250E0,-9.349557495E-1,2.125579834E-1,6.372248840E-1,1.151250930E0
4.768883250E0,-1.010249176E0,5.623805237E-1,6.656657410E-1,1.334161208E0
4.778963250E0,-9.078620911E-1,6.976991272E-1,8.222401428E-1,1.409637010E0
4.789042250E0,-1.080004120E0,8.818162537E-1,1.213526459E0,1.848419668E0
4.799121250E0,-1.315614166E0,1.222657471E0,2.087409210E0,2.753726409E0
4.809200250E0,-1.455573120E0,1.733844452E0,3.016826477E0,3.771757108E0
4.819279250E0,-1.611698456E0,2.351759491E0,3.520379333E0,4.530056872E0
4.829358250E0,-2.809357910E0,9.260343018E0,3.198548584E0,1.019201441E1
4.839437250E0,-8.863069153E0,5.221007858E1,-1.627116394E-1,5.295727311E1
4.849516250E0,-4.416116638E0,5.702900757E1,1.998494110E0,5.723463784E1
4.859595250E0,5.623505859E0,4.135659851E1,4.264631653E-1,4.173935708E1
4.869674250E0,8.804540863E0,2.668021820E1,-2.951113129E0,2.825000977E1
4.879753250E0,7.223378906E0,1.965727249E1,-2.498454437E0,2.109094211E1
4.889832250E0,2.967429199E0,2.253818161E1,-1.104852448E0,2.275952472E1
4.899911250E0,2.118095398E-1,2.661435516E1,5.596861267E-1,2.662108211E1
4.909990250E0,-1.547781372E-1,2.581501740E1,2.049088898E0,2.589667633E1
4.920069250E0,1.466949463E-2,2.162403259E1,1.597627716E0,2.168297524E1
4.930148250E0,-7.791297913E-1,1.823014023E1,1.960922241E-2,1.824679261E1
4.940227250E0,-1.381028137E0,1.512080612E1,-1.218466187E0,1.523255318E1
4.950306250E0,-1.292711792E0,1.220472015E1,-1.691781921E0,1.238904451E1
4.960385250E0,-7.659571838E-1,9.812245331E0,-1.652862854E0,9.979920062E0
4.970464250E0,-3.481759644E-1,7.786208496E0,-1.134640503E0,7.876146159E0
4.980543250E0,-8.427474976E-2,6.127208405E0,-3.182382202E-1,6.136046010E0
4.990622250E0,6.870712280E-2,4.752467194E0,4.098477173E-1,4.770601665E0
5.000701250E0,1.336720276E-1,3.548221436E0,9.087602234E-1,3.665186040E0
5.010780250E0,3.281176758E-1,2.542163544E0,1.186133423E0,2.824388286E0
5.020859250E0,5.212161255E-1,1.944755859E0,1.252146149E0,2.370993796E0
5.030938250E0,7.369175720E-1,1.579964447E0,1.019380188E0,2.019522500E0
5.041017250E0,1.069076843E0,1.672921143E0,7.595205688E-1,2.125667411E0
5.051096250E0,1.595681763E0,2.539768524E0,5.233117676E-1,3.044746237E0
5.061175250E0,1.920805664E0,3.800746307E0,3.778143311E-1,4.275267309E0
5.071254250E0,1.819466400E0,4.781357117E0,2.957849121E-1,5.124385092E0
5.081333250E0,1.576371918E0,5.537734222E0,3.222798157E-1,5.766741976E0
5.091412250E0,1.287322998E0,6.396648102E0,6.484515381E-1,6.557041775E0
5.101491250E0,1.255439301E0,7.545808411E0,1.206790466E0,7.744139438E0
5.111570250E0,1.253044281E0,8.865314484E0,1.725162506E0,9.118119682E0
5.121649250E0,1.288071442E0,1.019155655E1,2.016606445E0,1.046869880E1
5.131728250E0,1.097368011E0,1.129700775E1,1.921853485E0,1.151173842E1
5.141807250E0,8.807684326E-1,1.233195557E1,1.631008301E0,1.247048793E1
5.151886250E0,7.646099854E-1,1.347797241E1,1.331481171E0,1.356514692E1
5.161965250E0,4.234693909E-1,1.451262085E1,1.170715485E0,1.456592136E1
5.172044250E0,-1.722917175E-1,1.469479202E1,1.183139648E0,1.474335160E1
5.182123250E0,-8.202941895E-1,1.407927200E1,1.326092377E0,1.416535576E1
5.192202250E0,-1.218017120E0,1.339070389E1,1.246607666E0,1.350364940E1
5.202281250E0,-1.197360077E0,1.281814453E1,8.425978088E-1,1.290149106E1
5.212360250E0,-6.304888916E-1,1.214813782E1,1.299298096E-1,1.216518189E1
5.222439250E0,-2.865042114E-1,1.132245483E1,-6.884184265E-1,1.134698145E1
5.232518250E0,-3.158432007E-2,1.037402710E1,-1.355281677E0,1.046222846E1
5.242597250E0,2.194436646E-1,9.506281586E0,-1.621577911E0,9.646090401E0
5.252676250E0,4.568499756E-1,8.804241486E0,-1.609153748E0,8.961738437E0
5.262755250E0,6.536906433E-1,8.287366333E0,-1.448238373E0,8.438314202E0
5.272834250E0,8.226892090E-1,7.923323364E0,-1.194965057E0,8.055048861E0
5.282913250E0,9.397457886E-1,7.765401764E0,-8.256829834E-1,7.865515819E0
5.292992250E0,1.112785950E0,7.812853088E0,-4.044589233E-1,7.902060046E0
5.303071250E0,1.276994476E0,7.943381653E0,-2.799179077E-2,8.045421711E0
5.313150250E0,1.428928528E0,8.012088776E0,2.877017212E-1,8.143597213E0
5.323229250E0,1.562450867E0,8.066874847E0,5.842350769E-1,8.237539265E0
5.333308250E0,1.589245148E0,8.074209595E0,7.788304138E-1,8.265902100E0
5.343387250E0,1.598825226E0,8.054001617E0,8.400531006E-1,8.254021648E0
5.353466250E0,1.751058655E0,7.992778931E0,7.608677673E-1,8.217642071E0
5.363545250E0,1.870809631E0,7.993227997E0,6.165678406E-1,8.232361653E0
5.373624250E0,1.958078156E0,8.042774963E0,5.560935974E-1,8.296356987E0
5.383704250E0,1.901944885E0,8.133336639E0,5.572911072E-1,8.371328008E0
5.393783250E0,1.930086365E0,8.351433105E0,5.782475281E-1,8.591044086E0
5.403862250E0,2.082619171E0,8.791517944E0,5.673202515E-1,9.052620761E0
5.413941250E0,2.216141510E0,9.514813843E0,4.478686523E-1,9.779752143E0
5.424020250E0,2.390828247E0,1.059227325E1,3.564088440E-1,1.086459110E1
5.434099250E0,2.521057434E0,1.195593750E1,3.263214111E-1,1.222320162E1
5.444178250E0,2.675685883E0,1.335627548E1,3.132984924E-1,1.362525397E1
5.454257250E0,2.723436584E0,1.454420517E1,8.532257080E-2,1.479723930E1
5.464336250E0,2.403252411E0,1.519879395E1,-3.342549133E-1,1.539125355E1
5.474415250E0,1.538350983E0,1.508278519E1,-9.765692139E-1,1.519245274E1
5.484494250E0,7.997868347E-1,1.428509399E1,-1.423090668E0,1.437806511E1
5.494573250E0,4.604425049E-1,1.317500244E1,-1.392853546E0,1.325642251E1
5.504652250E0,1.683998108E-1,1.224738144E1,-1.149759064E0,1.230238418E1
5.514731250E0,-1.031355286E-1,1.146406036E1,-1.114133148E0,1.151853331E1
5.524810250E0,-1.404080200E-1,1.058374100E1,-1.203796692E0,1.065290638E1
5.534889250E0,1.267863464E-1,9.670490112E0,-1.359772339E0,9.766444317E0
5.544968250E0,3.385958862E-1,8.703351288E0,-1.502874756E0,8.838642619E0
5.555047250E0,6.021977234E-1,7.735164642E0,-1.343905334E0,7.874102850E0
5.565126250E0,9.674382019E-1,7.026837616E0,-8.337661743E-1,7.141956986E0
5.575205250E0,1.348695374E0,6.621181183E0,-3.264710999E-1,6.765027926E0
5.585284250E0,1.487905884E0,6.694977722E0,1.055305481E-1,6.859134589E0
5.595363250E0,1.041534119E0,6.622378693E0,5.391787720E-1,6.725429846E0
5.605442250E0,7.831713867E-1,6.409221954E0,9.273216248E-1,6.523144094E0
5.615521250E0,7.084767151E-1,6.544241180E0,1.063837738E0,6.667891917E0
5.625600250E0,7.355703735E-1,6.928043060E0,8.881031799E-1,7.023359003E0
5.635679250E0,7.713459778E-1,7.382048950E0,6.433621216E-1,7.450069539E0
5.645758250E0,9.138496399E-1,8.065827026E0,4.257147217E-1,8.128586581E0
5.655837250E0,1.067280579E0,8.797355804E0,3.311114502E-1,8.868043289E0
5.665916250E0,1.445244598E0,9.690698090E0,4.375401306E-1,9.807640021E0
5.675995250E0,1.733994141E0,1.066038162E1,5.900729370E-1,1.081659180E1
5.686074250E0,1.679956512E0,1.179157928E1,5.748046875E-1,1.192451242E1
5.696153250E0,1.489402771E0,1.291544220E1,3.710783386E-1,1.300633180E1
5.706232250E0,1.450783081E0,1.368214783E1,1.225950623E-1,1.375939571E1
5.716311250E0,1.782942352E0,1.386521713E1,4.326004028E-2,1.397944924E1
5.726390250E0,2.516267395E0,1.355700806E1,1.751358032E-2,1.378855960E1
5.736469250E0,2.708916779E0,1.281170792E1,-1.070274353E-1,1.309540166E1
5.746548250E0,2.373464355E0,1.237386841E1,-5.114863586E-1,1.260982041E1
5.756627250E0,1.864223328E0,1.222043747E1,-9.704319763E-1,1.239984511E1
5.766706250E0,1.407223663E0,1.239153168E1,-1.300944672E0,1.253885133E1
5.776785250E0,8.994795227E-1,1.283116745E1,-1.381327515E0,1.293661421E1
5.786864250E0,4.888833618E-1,1.308384201E1,-1.083147583E0,1.313769909E1
5.796943250E0,4.616400146E-1,1.288999512E1,-6.469546509E-1,1.291447389E1
5.807022250E0,7.222480774E-1,1.265004410E1,-3.772155762E-1,1.267625929E1
5.817101250E0,8.422984314E-1,1.247475861E1,-3.191363525E-1,1.250723458E1
5.827180250E0,7.731422424E-1,1.193064011E1,-2.868035889E-1,1.195910442E1
5.837259250E0,5.578898621E-1,1.082264420E1,-2.207908630E-1,1.083926276E1
5.847338250E0,2.044747925E-1,9.672286377E0,-5.643264771E-2,9.674612051E0
5.857417250E0,-2.112107849E-1,8.915609894E0,2.659968567E-1,8.922077342E0
5.867496250E0,-7.129673767E-1,8.343948669E0,6.011499023E-1,8.395902756E0
5.877575250E0,-1.379531250E0,7.934400330E0,9.747729492E-1,8.112212852E0
5.887654250E0,-1.885179749E0,7.708370361E0,1.387165375E0,8.055873887E0
5.897733250E0,-2.242187347E0,7.649243317E0,1.816472626E0,8.175444955E0
5.907812250E0,-2.706072693E0,7.673043823E0,2.177521820E0,8.422590588E0
5.917891250E0,-3.206482086E0,7.783364410E0,2.415826263E0,8.757768292E0
5.927970250E0,-3.503464508E0,8.185727692E0,2.283202057E0,9.192029865E0
5.938049250E0,-2.454445953E0,8.907227325E0,1.784139862E0,9.409896844E0
5.948128250E0,-1.102008362E0,9.401649170E0,1.142574005E0,9.534721019E0
5.958207250E0,-4.062551880E-1,9.704619141E0,6.580316162E-1,9.735382969E0
5.968286250E0,1.770817566E-1,9.839189301E0,4.183799744E-1,9.849672372E0
5.978365250E0,4.667294312E-1,9.700876923E0,4.921765137E-1,9.724561026E0
5.988444250E0,8.577163696E-1,9.582024078E0,3.519181824E-1,9.626770446E0
5.998523250E0,1.242117004E0,9.126371613E0,-8.981323242E-3,9.210515411E0
6.008602250E0,1.316661987E0,8.685688019E0,-3.932322693E-1,8.793714048E0
6.018681250E0,1.009949799E0,8.550070038E0,-6.132746887E-1,8.631326786E0
6.028760250E0,4.812492371E-1,8.364006958E0,-3.285667419E-1,8.384281086E0
6.038839250E0,-3.517684937E-2,8.279283142E0,4.805007935E-2,8.279497302E0
6.048918250E0,-3.933819580E-1,8.300538940E0,2.371069336E-1,8.313237382E0
6.058997250E0,-9.680369568E-1,8.343200226E0,4.023632813E-1,8.408803825E0
6.069076250E0,-1.159339142E0,8.246052246E0,5.373825073E-1,8.344472713E0
6.079155250E0,-7.774832153E-1,8.169261932E0,4.421804810E-1,8.218080326E0
6.089234250E0,-5.165757751E-1,8.160879364E0,-5.149291992E-2,8.177374520E0
6.099313250E0,-2.540217590E-1,7.960146790E0,-6.161187744E-1,7.987995137E0
6.109392250E0,-7.783813477E-3,7.676486664E0,-1.011895752E0,7.742896170E0
6.119471250E0,2.032772827E-1,7.371421051E0,-1.299298096E0,7.487813132E0
6.129550250E0,4.031117249E-1,7.208260345E0,-1.538650360E0,7.381663850E0
6.139629250E0,5.578898621E-1,7.193441162E0,-1.777254181E0,7.430711223E0
6.149708250E0,6.836283875E-1,7.357350311E0,-1.895208893E0,7.628221819E0
6.159787250E0,6.146218872E-1,7.754324799E0,-1.818717957E0,7.988432146E0
6.169866250E0,4.099974060E-1,8.166268158E0,-1.539398804E0,8.320203253E0
6.179945250E0,3.531156921E-1,8.621621246E0,-1.244212646E0,8.718090887E0
6.190024250E0,3.124003601E-1,9.284143524E0,-9.461824036E-1,9.337460902E0
6.200103250E0,3.367996216E-1,1.002210892E1,-5.542973328E-1,1.004307456E1
6.210183250E0,5.581892395E-1,1.089075256E1,-9.864486694E-2,1.090549391E1
6.220261250E0,9.642947388E-1,1.172047714E1,2.639012146E-1,1.176303926E1
6.230341250E0,1.560355225E0,1.244856308E1,4.724176025E-1,1.255486398E1
6.240420250E0,2.216141510E0,1.253777756E1,4.153862000E-1,1.273890478E1
6.250499250E0,2.062560883E0,1.187944656E1,1.302291870E-1,1.205787575E1
6.260578250E0,1.059945831E0,1.119521942E1,-2.820135498E-1,1.124882015E1
6.270657250E0,9.993218994E-1,1.094374237E1,-6.641688538E-1,1.100932612E1
6.280736250E0,9.271719360E-1,1.104029160E1,-7.912545776E-1,1.110737458E1
6.290815250E0,9.364526367E-1,1.147004791E1,-5.945635986E-1,1.152356058E1
6.300894250E0,1.047970734E0,1.215846634E1,-3.869453430E-1,1.220967948E1
6.310973250E0,1.030457153E0,1.277473480E1,-3.700305176E-1,1.282156830E1
6.321052250E0,8.003855896E-1,1.320299423E1,-4.501139832E-1,1.323488860E1
6.331131250E0,4.903802490E-1,1.335612579E1,-3.679348755E-1,1.337018867E1
6.341210250E0,3.038681030E-1,1.304911423E1,-7.035369873E-3,1.305265366E1
6.351289250E0,2.722837830E-1,1.229109055E1,3.638932800E-1,1.229949038E1
6.361368250E0,1.863624573E-1,1.137634277E1,5.788462830E-1,1.139258394E1
6.371447250E0,1.535806274E-1,1.054721695E1,7.104226685E-1,1.057223121E1
6.381526250E0,2.275268555E-1,9.800719299E0,8.863069153E-1,9.843343294E0
6.391605250E0,3.269201660E-1,9.188642120E0,1.033450928E0,9.252353302E0
6.401684250E0,4.664300537E-1,8.587941284E0,1.251996460E0,8.691247760E0
6.411763250E0,7.985893250E-1,8.031099243E0,1.362017670E0,8.184826944E0
6.421842250E0,9.747729492E-1,7.842491455E0,1.420396271E0,8.029469478E0
6.431921250E0,1.250948639E0,8.278684387E0,1.511257324E0,8.507960177E0
6.442000250E0,1.586700439E0,8.882378998E0,1.643432465E0,9.171430925E0
6.452079250E0,1.814227295E0,9.419013062E0,1.638343048E0,9.731053164E0
6.462158250E0,2.246977386E0,9.957593079E0,1.546434174E0,1.032443829E1
6.472237250E0,2.401007080E0,1.049677185E1,1.234482880E0,1.083840405E1
6.482316250E0,2.656525726E0,1.082009949E1,8.556207275E-1,1.117424578E1
6.492395250E0,2.558778992E0,1.111513596E1,5.025050354E-1,1.141692203E1
6.502474250E0,1.963017883E0,1.127111160E1,1.453477478E-1,1.144170101E1
6.512553250E0,1.699565735E0,1.104208786E1,-1.248403931E-1,1.117281581E1
6.522632250E0,1.213526459E0,1.059362045E1,-4.047583008E-1,1.067057965E1
6.532711250E0,5.408253479E-1,9.964029694E0,-5.807922363E-1,9.995583996E0
6.542790250E0,9.385482788E-2,9.430688782E0,-5.872288513E-1,9.449419948E0
6.552869250E0,3.849993896E-1,9.139394531E0,-5.706134033E-1,9.165279951E0
6.562948250E0,7.219487000E-1,8.641679535E0,-4.041595459E-1,8.681196925E0
6.573027250E0,8.120613098E-1,8.136929169E0,-1.341210938E-1,8.178450240E0
6.583106250E0,1.170266418E0,8.030201111E0,-2.615061951E-1,8.119238810E0
6.593185250E0,9.556127930E-1,7.804470520E0,-4.626878357E-1,7.876359308E0
6.603264250E0,6.740483093E-1,7.594606934E0,-2.712359619E-1,7.629283357E0
6.613343250E0,4.668791199E-1,7.567662964E0,8.292755127E-2,7.582504588E0
6.623422250E0,-1.904040527E-1,7.414082336E0,3.309617615E-1,7.423907750E0
6.633501250E0,-4.668791199E-1,7.402556305E0,4.264631653E-1,7.429514573E0
6.643580250E0,-4.861889648E-1,7.536827087E0,4.101470947E-1,7.563621017E0
6.653659250E0,-2.851570129E-1,7.690856781E0,4.632865906E-1,7.710073087E0
6.663738250E0,1.486408997E-1,7.983348541E0,5.710624695E-1,8.005127132E0
6.673817250E0,4.677772522E-1,8.205486603E0,6.490502930E-1,8.244397627E0
6.683896250E0,1.004860382E0,8.165819092E0,4.349954224E-1,8.238905682E0
6.693975000E0,1.280886383E0,8.186775513E0,1.173559570E-1,8.287203125E0
6.704054000E0,1.524878998E0,8.213420105E0,-7.559280396E-2,8.354115157E0
6.714133000E0,1.537752228E0,8.481063538E0,-1.447489929E-1,8.620561056E0
6.724212000E0,1.524429932E0,8.750952301E0,-1.269360352E-1,8.883645960E0
6.734291000E0,1.513352966E0,9.092242584E0,-1.041833496E-1,9.217915523E0
6.744370000E0,1.358574829E0,9.576335907E0,-7.873626709E-2,9.672545392E0
6.754449000E0,1.102756805E0,1.006327332E1,4.266128540E-2,1.012360422E1
6.764528000E0,9.181906128E-1,1.065708847E1,1.621128845E-1,1.069779834E1
6.774607000E0,7.705975342E-1,1.120090759E1,2.715353394E-1,1.123066707E1
6.784686000E0,5.989045715E-1,1.159788208E1,2.628533936E-1,1.161630954E1
6.794765000E0,5.284011841E-1,1.175625275E1,4.505630493E-2,1.176820787E1
6.804844000E0,7.271878052E-1,1.164278870E1,-3.381468201E-1,1.167037592E1
6.814923000E0,1.053658905E0,1.159144547E1,-7.220983887E-1,1.166161357E1
6.825002000E0,1.427431641E0,1.166179916E1,-9.940827942E-1,1.179081513E1
6.835081000E0,1.738035736E0,1.185235291E1,-1.184935913E0,1.203757080E1
6.845160000E0,1.927841034E0,1.213137268E1,-1.191971283E0,1.234129530E1
6.855239000E0,1.950444031E0,1.246502884E1,-1.011895752E0,1.265721568E1
6.865318000E0,1.919608154E0,1.246652573E1,-8.189469910E-1,1.264000923E1
6.875397000E0,1.676663361E0,1.213511490E1,-8.110134888E-1,1.227721290E1
6.885476000E0,1.320553894E0,1.151719986E1,-8.346643066E-1,1.162266836E1
6.895555000E0,1.037193146E0,1.067984116E1,-7.065307617E-1,1.075332332E1
6.905634000E0,6.819818115E-1,9.857750702E0,-5.587879944E-1,9.897100187E0
6.915713000E0,1.564247131E-1,9.089398499E0,-3.089575195E-1,9.095992992E0
6.925792000E0,-3.945794678E-1,8.498577118E0,9.759704590E-2,8.508291907E0
6.935871000E0,-9.771679688E-1,8.345445557E0,6.740483093E-1,8.429451934E0
6.945950000E0,-1.417701874E0,8.453520813E0,1.279688873E0,8.666573507E0
6.956029000E0,-1.870809631E0,8.705147552E0,1.755998383E0,9.075409242E0
6.966108000E0,-2.277064819E0,9.241482239E0,2.131268005E0,9.753579931E0
6.976187000E0,-2.668650513E0,1.008018814E1,2.399510193E0,1.069997840E1
6.986266000E0,-2.661465454E0,1.118758530E1,2.459984436E0,1.175997392E1
6.996345000E0,-1.657203827E0,1.213706085E1,2.302212524E0,1.246413868E1
7.006424000E0,-8.080197144E-1,1.266770737E1,2.029329987E0,1.285464453E1
7.016503000E0,-1.974394226E-1,1.283146683E1,1.602567444E0,1.293266197E1
7.026582000E0,2.243833923E-1,1.240575211E1,9.939331055E-1,1.244752731E1
7.036661000E0,2.820135498E-1,1.155028107E1,3.058140564E-1,1.155776997E1
7.046740000E0,8.128097534E-2,1.076321777E1,-9.370513916E-2,1.076393256E1
7.056819000E0,-3.873944092E-1,1.018856277E1,1.002914429E-2,1.019592990E1
7.066898000E0,-7.297325134E-1,9.946815491E0,5.640270996E-1,9.989483196E0
7.076977000E0,-1.054557037E0,9.711205444E0,1.074914703E0,9.827260216E0
7.087056000E0,-1.241817627E0,9.193731537E0,1.296004944E0,9.367306945E0
7.097135000E0,-1.109193420E0,8.621471558E0,1.242117004E0,8.780827781E0
7.107214000E0,-8.068222046E-1,8.256680145E0,1.086440735E0,8.366844241E0
7.117293000E0,-5.251080322E-1,8.112978973E0,8.628057861E-1,8.175610075E0
7.127372000E0,-2.962339783E-1,8.007149048E0,5.978567505E-1,8.034900319E0
7.137451000E0,-1.721420288E-2,7.857759705E0,3.878434753E-1,7.867344308E0
7.147530000E0,1.845661926E-1,7.786507874E0,2.887495422E-1,7.794045538E0
7.157609000E0,2.736309814E-1,7.743846588E0,2.667453003E-1,7.753269436E0
7.167688000E0,3.635939026E-1,7.718698883E0,4.070036316E-1,7.737969044E0
7.177767000E0,4.769082642E-1,7.798033905E0,5.319937134E-1,7.830695473E0
7.187846000E0,5.125341797E-1,8.011340332E0,6.968009949E-1,8.057902756E0
7.197925000E0,4.611909485E-1,8.247998199E0,8.232879639E-1,8.301805494E0
7.208004000E0,5.492079163E-1,8.361312561E0,8.349636841E-1,8.420827835E0
7.218083000E0,7.979905701E-1,8.311166840E0,7.551795959E-1,8.383470606E0
7.228162000E0,1.015338593E0,7.979456635E0,5.490582275E-1,8.062512361E0
7.238241000E0,9.066645813E-1,7.427404633E0,2.267784119E-1,7.485974131E0
7.248320000E0,4.314028931E-1,6.796915741E0,-4.775070190E-2,6.810760029E0
7.258399000E0,6.945556641E-2,6.145021362E0,-1.490899658E-1,6.147222091E0
7.268478000E0,-1.359173584E-1,5.400170288E0,-1.857637024E-1,5.405073619E0
7.278557000E0,-2.769241333E-1,4.630919952E0,-1.790277100E-1,4.642645528E0
7.288636000E0,-4.140390015E-1,3.904630280E0,-1.766326904E-1,3.930491702E0
7.298715000E0,-5.263055420E-1,3.238066406E0,-1.576222229E-1,3.284344126E0
7.308794000E0,-6.393205261E-1,2.704725494E0,-1.639091492E-1,2.784086375E0
7.318873000E0,-7.831713867E-1,2.393522644E0,-2.242337036E-1,2.528356941E0
7.328952000E0,-1.016087036E0,2.384092255E0,-1.713935852E-1,2.597249411E0
7.339031000E0,-1.289718018E0,2.653681641E0,1.871109009E-2,2.950550613E0
7.349110000E0,-1.159189453E0,3.696862335E0,4.010160828E-1,3.895038538E0
7.359189000E0,-7.987390137E-1,5.307512970E0,9.138496399E-1,5.444520098E0
7.369268000E0,-3.173400879E-1,7.241940308E0,1.478176117E0,7.398067909E0
7.379347000E0,2.046244812E-1,1.039243881E1,2.412682800E0,1.067078694E1
7.389426000E0,5.367837524E-1,1.462219299E1,4.147874451E0,1.520860043E1
7.399505000E0,7.565267944E-1,1.838387054E1,5.976022797E0,1.934559065E1
7.409584000E0,1.228195953E0,2.267035675E1,6.474635925E0,2.360877911E1
7.419663000E0,2.288141785E0,2.809238159E1,5.399122467E0,2.869787483E1
7.429742000E0,2.638413391E0,3.352877655E1,2.342179413E0,3.371388270E1
7.439821000E0,2.372865601E0,3.498240372E1,1.682501221E-1,3.506319109E1
7.449900000E0,2.083217926E0,3.239907578E1,-3.094065857E-1,3.246745510E1
7.459979000E0,1.660646667E0,3.161485657E1,9.945318604E-1,3.167405874E1
7.470058000E0,1.458866272E0,3.217020172E1,2.850372620E0,3.232916321E1
7.480137000E0,1.650916901E0,3.212679199E1,3.054248657E0,3.231384727E1
7.490216000E0,1.677561493E0,3.059697327E1,1.996697845E0,3.070791084E1
7.500295000E0,1.850601654E0,2.789060120E1,9.119036865E-1,2.796680049E1
7.510374000E0,2.676584015E0,2.374811554E1,1.267863464E-1,2.389881103E1
7.520453000E0,2.992427216E0,1.882440445E1,-6.855743408E-1,1.907309193E1
7.530532000E0,1.689087524E0,1.447968933E1,-9.683363342E-1,1.460999983E1
7.540611000E0,3.080593872E-1,1.065409470E1,-5.310955811E-1,1.067177103E1
7.550690000E0,-2.996768188E-1,7.426207123E0,7.903564453E-2,7.432671462E0
7.560769000E0,-4.574487305E-1,4.711153107E0,6.776408386E-1,4.781570876E0
7.570848000E0,-4.517605591E-1,2.669997711E0,1.093625793E0,2.920443931E0
7.580927000E0,-5.195695496E-1,1.176703033E0,1.245260468E0,1.790322926E0
7.591006000E0,-5.996530151E-1,2.769241333E-2,1.191372528E0,1.334061134E0
7.601085000E0,-6.598278809E-1,-6.761439514E-1,1.068478088E0,1.426249943E0
7.611164000E0,-7.110214233E-1,-1.135987701E0,9.677375793E-1,1.653038277E0
7.621243000E0,-7.640112305E-1,-1.368753662E0,1.055904236E0,1.890008863E0
7.631322000E0,-7.393125916E-1,-1.474433899E0,1.132993927E0,2.001053140E0
7.641401000E0,-6.927593994E-1,-1.599573669E0,1.000968475E0,2.010096863E0
7.651480000E0,-6.789880371E-1,-1.784289551E0,6.509962463E-1,2.017054801E0
7.661559000E0,-6.691085815E-1,-1.988165588E0,3.195854187E-1,2.121943341E0
7.671638000E0,-6.887178040E-1,-2.222129059E0,1.058299255E-1,2.328817241E0
7.681717000E0,-7.620652771E-1,-2.402354279E0,1.580712891E-1,2.525279410E0
7.691796750E0,-7.773335266E-1,-2.498005371E0,3.308120728E-1,2.636989737E0
7.701875750E0,-7.376660156E-1,-2.508932648E0,6.212081909E-1,2.687897654E0
7.711954750E0,-5.533992004E-1,-2.424508209E0,8.901988220E-1,2.641390671E0
7.722033750E0,-2.296224976E-1,-2.329306183E0,1.006057892E0,2.547655053E0
7.732112750E0,4.131408691E-2,-2.143841858E0,7.915539551E-1,2.285677674E0
7.742191750E0,-4.790039063E-2,-8.795709229E-1,1.992356873E-1,9.031247504E-1
7.752270750E0,2.501298523E-1,-1.901046753E-1,-2.010319519E-1,3.729860269E-1
7.762349750E0,5.098397827E-1,-7.424560547E-2,-4.360432434E-1,6.749686838E-1
7.772428750E0,6.348298645E-1,-2.125579834E-2,-4.355941772E-1,7.701967626E-1
7.782507750E0,5.195695496E-1,-1.799258423E-1,-2.365081787E-1,5.985498677E-1
7.792586750E0,2.368075562E-1,-3.713777161E-1,-1.200503540E-1,4.565208803E-1
7.802665750E0,-5.703140259E-2,-5.306465149E-1,-6.915618896E-2,5.381643644E-1
7.812744750E0,-2.025288391E-1,-6.050418091E-1,5.373825073E-2,6.402978377E-1
7.822823750E0,-3.058140564E-1,-3.716770935E-1,1.995350647E-1,5.210377539E-1
7.832902750E0,-3.725752258E-1,2.176473999E-1,2.312690735E-1,4.895590607E-1
7.842982750E0,-4.463717651E-1,8.508306885E-1,2.924917603E-1,1.004346575E0
7.853061750E0,-4.580474854E-1,9.904902649E-1,6.304888916E-1,1.260315320E0
7.863140750E0,-8.024812317E-1,1.181942139E0,1.271306305E0,1.912376288E0
7.873219750E0,-1.094972992E0,1.491797791E0,2.405946808E0,3.035293486E0
7.883298750E0,-1.310973816E0,1.807491302E0,3.595223694E0,4.232175630E0
7.893377750E0,-1.426982574E0,4.008364563E0,4.527185669E0,6.212783259E0
7.903455750E0,-2.559826813E0,3.517400528E1,4.152215424E0,3.551062170E1
7.913535750E0,-1.329385529E0,5.802578476E1,6.044879608E0,5.835494437E1
7.923614750E0,5.242997131E0,4.546136261E1,3.459905090E0,4.589330509E1
7.933693750E0,6.579118652E0,2.897584442E1,-1.722019043E0,2.976322751E1
7.943772750E0,5.320685577E0,1.986144791E1,-4.958139496E0,2.115112184E1
7.953851750E0,4.330195312E0,2.202789276E1,-6.135890350E0,2.327289843E1
7.963930750E0,1.850601654E0,2.821737167E1,-3.143612823E0,2.845218959E1
7.974009750E0,9.068142700E-1,3.144510956E1,1.173260193E0,3.148005347E1
7.984088750E0,-1.785786438E-1,2.634701111E1,3.047961731E0,2.652332851E1
7.994167750E0,-1.495390320E-1,1.949096832E1,1.371448059E0,1.953973075E1
8.004246750E0,-4.037104797E-1,1.634151764E1,-1.103056183E0,1.638367828E1
8.014325750E0,-2.998265076E-1,1.431667831E1,-2.368075562E0,1.451430177E1
8.024404750E0,7.738906860E-2,1.207853256E1,-2.577789459E0,1.235078687E1
8.034483750E0,1.660047913E-1,9.892328796E0,-2.347867584E0,1.016849098E1
8.044562750E0,3.549119568E-1,7.893535309E0,-1.594484253E0,8.060784218E0
8.054641750E0,5.282514954E-1,6.192622375E0,-6.369255066E-1,6.247663213E0
8.064720750E0,6.571334839E-1,4.976850586E0,1.580712891E-1,5.022534490E0
8.074799750E0,5.947132874E-1,4.090693359E0,7.411088562E-1,4.199606933E0
8.084878750E0,4.620890808E-1,3.301684113E0,9.931846619E-1,3.478657797E0
8.094957750E0,1.716929626E-1,2.642005920E0,8.858578491E-1,2.791848471E0
8.105036750E0,-1.047821045E-1,2.374811554E0,4.802014160E-1,2.425139709E0
8.115115750E0,-2.043251038E-1,2.510429535E0,1.109193420E-1,2.521172009E0
8.125194750E0,-3.203338623E-2,2.906505890E0,-1.661544800E-2,2.906729898E0
8.135273750E0,1.778302002E-1,3.353775787E0,2.122586060E-1,3.365187859E0
8.145352750E0,2.225871277E-1,3.861819305E0,5.249583435E-1,3.903687313E0
8.155431750E0,1.612147522E-1,4.537514191E0,5.935157776E-1,4.579004936E0
8.165510750E0,1.118174744E-1,5.480852509E0,5.242098999E-1,5.506999490E0
8.175589750E0,1.272354126E-1,6.672674103E0,6.384223938E-1,6.704353189E0
8.185668750E0,2.043251038E-1,8.012837219E0,9.376501465E-1,8.070098937E0
8.195747750E0,3.299139404E-1,9.342671814E0,1.298399963E0,9.438230888E0
8.205826750E0,4.613406372E-1,1.070992859E1,1.550176392E0,1.083136429E1
8.215905750E0,5.589376831E-1,1.202120178E1,1.476529541E0,1.212443166E1
8.225984750E0,8.030799866E-1,1.328681992E1,1.286424866E0,1.337308528E1
8.236063750E0,1.142274628E0,1.418016220E1,1.094523926E0,1.426813842E1
8.246142750E0,1.204096069E0,1.457444229E1,7.499404907E-1,1.464331336E1
8.256221750E0,8.494834900E-1,1.399469788E1,2.767744446E-1,1.402318776E1
8.266300750E0,5.393284607E-1,1.302875656E1,-7.334747314E-2,1.304012088E1
8.276379750E0,3.547622681E-1,1.237072495E1,-1.633103943E-1,1.237688823E1
8.286458750E0,2.110610962E-1,1.170880142E1,-2.429447937E-1,1.171322328E1
8.296537750E0,1.100212097E-1,1.102098175E1,-2.924917603E-1,1.102541132E1
8.306616750E0,1.432521057E-1,1.029154861E1,-3.370989990E-1,1.029806437E1
8.316695750E0,1.023870850E-1,9.691446533E0,-4.161346436E-1,9.700916816E0
8.326774750E0,1.423539734E-1,9.207203522E0,-6.065386963E-1,9.228258261E0
8.336853750E0,3.665876770E-1,8.835227051E0,-8.837622070E-1,8.886881298E0
8.346932750E0,5.448669434E-1,8.642278290E0,-1.123563538E0,8.732024338E0
8.357011750E0,6.704557800E-1,8.568930817E0,-1.098715210E0,8.665059804E0
8.367090750E0,7.545808411E-1,8.612939301E0,-7.511380005E-1,8.678497793E0
8.377169750E0,8.595126343E-1,8.807684326E0,-3.116519165E-1,8.855009434E0
8.387248750E0,9.645941162E-1,9.120384064E0,3.173400879E-2,9.171306032E0
8.397327750E0,1.030307465E0,9.364975433E0,2.574645996E-1,9.424997950E0
8.407406750E0,1.096619568E0,9.570348358E0,3.258723450E-1,9.638481984E0
8.417485750E0,1.078357544E0,9.805060272E0,3.475772095E-1,9.870302521E0
8.427564750E0,9.428892517E-1,9.905651093E0,4.595443726E-1,9.961031309E0
8.437643750E0,8.476872253E-1,9.943522339E0,5.486091614E-1,9.994657680E0
8.447722750E0,7.810757446E-1,9.868228912E0,6.029461670E-1,9.917437434E0
8.457801750E0,7.165599060E-1,9.767189026E0,6.813830566E-1,9.817113753E0
8.467880750E0,5.846841431E-1,9.646988983E0,7.964936829E-1,9.697456067E0
8.477959750E0,5.557942200E-1,9.618697815E0,8.614585876E-1,9.673177646E0
8.488038750E0,6.568341064E-1,9.871222687E0,7.009922791E-1,9.917855542E0
8.498117750E0,7.900570679E-1,9.846224670E0,7.170089722E-1,9.903859465E0
8.508196750E0,2.656974792E-1,1.032238449E1,9.743238831E-1,1.037166929E1
8.518275750E0,6.935078430E-1,1.002644989E1,1.155147858E0,1.011657141E1
8.528354750E0,6.491999817E-1,9.826615448E0,1.096170502E0,9.908855713E0
8.538433750E0,4.230203247E-1,9.677675171E0,8.387059021E-1,9.723156406E0
8.548512750E0,1.188528442E-1,9.584568787E0,6.686595154E-1,9.608599813E0
8.558591750E0,-4.221221924E-2,9.750274200E0,5.821394348E-1,9.767728251E0
8.568670750E0,-9.624984741E-2,9.914632416E0,3.567082214E-1,9.921514034E0
8.578749750E0,1.236428833E-1,1.000235001E1,-2.815644836E-1,1.000707608E1
8.588828750E0,3.664379883E-1,9.971963196E0,-8.842112732E-1,1.001779199E1
8.598907750E0,3.841012573E-1,9.708660736E0,-1.032552795E0,9.770966807E0
8.608986750E0,2.656974792E-1,9.679172058E0,-8.866062927E-1,9.723324411E0
8.619065750E0,6.032455444E-2,1.003318588E1,-6.191125488E-1,1.005245037E1
8.629144750E0,2.564167786E-1,1.021386017E1,-2.829116821E-2,1.021711747E1
8.639223750E0,7.125183105E-2,1.036085449E1,7.198530579E-1,1.038607583E1
8.649302750E0,3.502716064E-2,1.033016830E1,9.051676941E-1,1.036980871E1
8.659381750E0,1.860630798E-1,1.009770172E1,6.167175293E-1,1.011822811E1
8.669460750E0,3.323089600E-1,9.633367310E0,4.608915710E-1,9.650109637E0
8.679539750E0,-5.551954651E-1,9.652826843E0,8.246351624E-1,9.703882276E0
8.689618750E0,-7.444020081E-1,9.582772522E0,1.628463593E0,9.748618222E0
8.699697167E0,-2.769241333E-1,8.986562347E0,1.921404419E0,9.193844938E0
8.709776167E0,-3.513194275E-1,1.015503250E1,1.448986816E0,1.026390146E1
8.719855167E0,-1.177301788E0,1.058044785E1,1.124910736E0,1.070501473E1
8.729934167E0,-3.953279114E-1,1.076740906E1,7.619155884E-1,1.080156921E1
8.740013167E0,3.713777161E-1,1.014066238E1,7.396119690E-1,1.017437865E1
8.750092167E0,1.164877625E0,9.404792633E0,8.521778870E-1,9.514897346E0
8.760171167E0,1.719324646E0,9.769584045E0,5.276527405E-1,9.933743860E0
8.770250167E0,1.227896576E0,1.022673340E1,4.132905579E-1,1.030847298E1
8.780329167E0,1.200353851E0,1.005129822E1,3.992198181E-1,1.013058842E1
8.790408167E0,1.386566620E0,1.034783157E1,-1.666035461E-1,1.044164460E1
8.800487167E0,9.298663330E-1,9.630074158E0,-4.119433594E-1,9.683629331E0
8.810566167E0,1.043330383E-1,9.921218719E0,1.130000153E0,9.985908402E0
8.820645167E0,6.442602539E-1,1.045575714E1,5.384303284E-1,1.048941542E1
8.830724167E0,8.984317017E-1,1.053883438E1,1.958976288E0,1.075694184E1
8.840803167E0,9.116043091E-2,1.050545380E1,4.215084686E0,1.131988554E1
8.850882167E0,2.128573608E-1,1.029933243E1,3.554358673E0,1.089747780E1
8.860961167E0,3.228785706E-1,8.953780518E0,1.269659729E0,9.049114429E0
8.871040167E0,1.143621826E0,7.587721252E0,-2.202220459E0,7.983179795E0
8.881119167E0,1.783391418E0,7.637118530E0,-3.023263092E0,8.405128442E0
8.891198167E0,1.738784180E0,9.250912628E0,-9.243278503E-1,9.458178305E0
8.901277167E0,1.048270111E0,1.014410522E1,1.015188904E0,1.024852914E1
8.911356167E0,5.623805237E-1,9.856702881E0,1.283281403E0,9.955785991E0
8.921435167E0,2.782713318E-1,9.466314697E0,9.382489014E-1,9.516767302E0
8.931514167E0,3.676354980E-1,9.532477112E0,1.275647278E0,9.624476699E0
8.941593167E0,2.915936279E-1,9.511221313E0,1.841171265E0,9.692175676E0
8.951672167E0,-2.993774414E-4,9.275012512E0,2.021396484E0,9.492728846E0
8.961751167E0,1.483415222E-1,9.401050415E0,1.861079865E0,9.584642527E0
8.971830167E0,1.579216003E-1,9.691147156E0,1.585802307E0,9.821305483E0
8.981909167E0,1.953437805E-1,9.723330231E0,1.386267242E0,9.823596431E0
8.991988167E0,1.284329224E-1,9.543703766E0,1.468296661E0,9.656845845E0
9.002067167E0,1.481918335E-2,9.422156525E0,1.471290436E0,9.536348815E0
9.012146167E0,4.101470947E-2,9.507030029E0,1.541644135E0,9.631301512E0
9.022225167E0,3.772155762E-2,9.631870422E0,1.530417480E0,9.752770294E0
9.032304167E0,1.431024170E-1,9.531429291E0,1.549577637E0,9.657629806E0
9.042383167E0,2.312690735E-1,9.478289795E0,1.607207794E0,9.616370402E0
9.052462167E0,1.459465027E-1,9.267827454E0,1.648222504E0,9.414380676E0
9.062541167E0,2.038760376E-1,9.243278503E0,1.620679779E0,9.386499128E0
9.072620167E0,3.932322693E-1,9.394314423E0,1.730850677E0,9.560524000E0
9.082699167E0,4.999603271E-1,9.656569061E0,1.617686005E0,9.803886697E0
9.092778167E0,2.713856506E-1,9.636959839E0,1.791025543E0,9.805733915E0
9.102857167E0,2.495310974E-1,9.282946014E0,1.876647491E0,9.474025453E0
9.112936167E0,4.590953064E-1,9.388326874E0,2.125280457E0,9.636818303E0
9.123015167E0,6.134243774E-1,9.570348358E0,2.417921906E0,9.890106344E0
9.133094167E0,6.405180359E-1,9.449549561E0,2.493963776E0,9.794085234E0
9.143173167E0,6.638694763E-1,9.372010803E0,2.496059418E0,9.721400197E0
9.153252167E0,5.159770203E-1,9.432485046E0,2.375559998E0,9.740702836E0
9.163331167E0,5.056484985E-1,9.687704315E0,2.084265747E0,9.922270859E0
9.173410167E0,2.044747925E-1,9.643995209E0,2.043700104E0,9.860282128E0
9.183489167E0,4.050576782E-1,9.889484711E0,1.966161346E0,1.009117288E1
9.193568167E0,5.272036743E-1,1.008542725E1,2.006726990E0,1.029663730E1
9.203647167E0,1.030008087E0,1.043704605E1,1.993404694E0,1.067550979E1
9.213726167E0,1.476230164E0,1.062116318E1,2.129771118E0,1.093271639E1
9.223805167E0,1.363813934E0,1.022793091E1,2.311343536E0,1.057416039E1
9.233884167E0,1.036594391E0,9.793085175E0,2.446063385E0,1.014703263E1
9.243963167E0,7.780819702E-1,9.482032013E0,2.486629028E0,9.833497169E0
9.254042167E0,5.198689270E-1,9.463620300E0,2.476450195E0,9.796079750E0
9.264122167E0,2.900967407E-1,9.604627075E0,2.547702026E0,9.941016195E0
9.274200167E0,1.974394226E-1,9.750872955E0,2.450703735E0,1.005606556E1
9.284279167E0,2.231858826E-1,9.831555176E0,2.329755249E0,1.010628758E1
9.294359167E0,2.439926147E-1,9.714648285E0,2.186503143E0,9.960658597E0
9.304438167E0,3.213816833E-1,9.611363068E0,2.142943726E0,9.852603413E0
9.314517167E0,-5.508544922E-2,9.345366211E0,2.151775360E0,9.590049073E0
9.324596167E0,3.177891541E-1,9.845625916E0,2.140997772E0,1.008073465E1
9.334675167E0,4.498146057E-1,9.959089966E0,1.931433563E0,1.015461677E1
9.344754167E0,4.305047607E-1,9.910890198E0,1.574126587E0,1.004434933E1
9.354833167E0,4.495152283E-1,9.938732300E0,1.552721100E0,1.006932999E1
9.364912167E0,3.608995056E-1,1.015623001E1,1.842817841E0,1.032837035E1
9.374991167E0,1.785786438E-1,1.033705399E1,1.969753876E0,1.052456677E1
9.385070167E0,1.176553345E-1,1.031834290E1,1.705553284E0,1.045901309E1
9.395149167E0,1.710942078E-1,1.028017227E1,1.296603699E0,1.036303027E1
9.405228167E0,3.100053406E-1,1.014650024E1,9.885443115E-1,1.019925440E1
9.415307167E0,5.927673340E-1,9.736802216E0,8.388555908E-1,9.790830874E0
9.425386167E0,7.455995178E-1,9.414073334E0,8.500822449E-1,9.481736929E0
9.435465167E0,7.309300232E-1,9.484726410E0,1.022074585E0,9.567597934E0
9.445544167E0,4.736151123E-1,9.681118011E0,1.392853546E0,9.792262161E0
9.455623167E0,1.609153748E-1,9.950707397E0,1.835483093E0,1.011985522E1
9.465702167E0,-6.301895142E-2,1.014859589E1,1.818418579E0,1.031041299E1
9.475781167E0,-6.227050781E-2,1.013721954E1,1.413061523E0,1.023542088E1
9.485860167E0,1.672023010E-1,1.025472519E1,1.124611359E0,1.031756250E1
9.495939167E0,2.751278687E-1,1.017419266E1,1.075663147E0,1.023459539E1
9.506018167E0,3.333567810E-1,1.001941452E1,1.089733887E0,1.008401279E1
9.516097167E0,2.309696960E-1,9.857301636E0,1.111887817E0,9.922501552E0
9.526176167E0,1.910028076E-1,9.655970306E0,1.249002686E0,9.738287957E0
9.536255167E0,2.022294617E-1,9.721533966E0,1.210083618E0,9.798643874E0
9.546334167E0,9.056167603E-2,9.923314362E0,8.927435303E-1,9.963802504E0
9.556413167E0,1.664538574E-1,9.971065063E0,5.104385376E-1,9.985509145E0
9.566492167E0,1.770817566E-1,9.914632416E0,3.540138245E-1,9.922530911E0
9.576571167E0,1.056802368E-1,9.651329956E0,4.703219604E-1,9.663360750E0
9.586650167E0,1.160087585E-1,9.181906128E0,6.357279968E-1,9.204618855E0
9.596729167E0,6.646179199E-2,9.253607025E0,7.566764832E-1,9.284730446E0
9.606808167E0,-4.026626587E-2,9.740544434E0,7.894583130E-1,9.772567302E0
9.616887167E0,-1.188528442E-1,8.361911316E0,3.170407104E-1,8.368763449E0
9.626966167E0,-3.067121887E-1,8.786877594E0,4.257147217E-1,8.802529366E0
9.637045167E0,-4.159849548E-1,9.538913727E0,9.303153992E-1,9.593195782E0
9.647124167E0,-5.343887329E-1,9.412426758E0,8.722361755E-1,9.467847946E0
9.657203167E0,-2.136058044E-1,9.413324890E0,6.348298645E-1,9.437124662E0
9.667282167E0,-6.002517700E-2,9.531578979E0,6.137237549E-1,9.551505521E0
9.677361167E0,-6.077362061E-2,9.608818359E0,6.298901367E-1,9.629633704E0
9.687440167E0,6.256988525E-2,9.601184235E0,4.484674072E-1,9.611856049E0
9.697519500E0,1.525328064E-1,9.638307037E0,1.347198486E-1,9.640455292E0
9.707598500E0,3.281176758E-1,9.690548401E0,-2.432441711E-1,9.699152398E0
9.717677500E0,4.899311829E-1,9.736951904E0,-5.902226257E-1,9.767119724E0
9.727756500E0,5.334906006E-1,9.697284393E0,-6.421646118E-1,9.733155306E0
9.737835500E0,5.553451538E-1,9.634415131E0,-4.287084961E-1,9.659925161E0
9.747914500E0,2.011816406E-1,9.321565704E0,-1.975891113E-2,9.323757378E0
9.757993500E0,-6.568341064E-1,9.743837585E0,6.836283875E-1,9.789849320E0
9.768072500E0,-9.394464111E-1,9.844877472E0,1.731898499E-1,9.891115545E0
9.778151500E0,-5.430706787E-1,9.919422455E0,-2.848576355E-1,9.938360603E0
9.788230500E0,-6.641688538E-1,1.007958939E1,-3.366499329E-1,1.010705574E1
9.798309500E0,-4.674778748E-1,1.012374756E1,-7.069798279E-1,1.015916437E1
9.808388500E0,-3.867956543E-1,1.052176987E1,-4.787045288E-1,1.053975379E1
9.818467500E0,-2.014810181E-1,1.069945038E1,-2.745291138E-1,1.070486802E1
9.828546500E0,-9.116043091E-2,1.031759445E1,-1.387614441E-1,1.031893019E1
9.838625500E0,-1.597178650E-1,1.001417542E1,1.919009399E-1,1.001728731E1
9.848704500E0,-7.024891663E-1,9.822274475E0,1.993853760E-1,9.849381779E0
9.858783500E0,-1.180894318E0,9.340725861E0,2.215393066E-2,9.415102856E0
9.868862500E0,-1.351988525E0,8.804840240E0,-1.335223389E-1,8.909035461E0
9.878941500E0,-1.284478912E0,8.305029602E0,-3.688330078E-1,8.411863085E0
9.889020500E0,-1.148561554E0,8.174201660E0,-5.152285767E-1,8.270563881E0
9.899099500E0,-1.180594940E0,8.379724274E0,-4.090992737E-1,8.472363633E0
9.909178500E0,-1.033151550E0,8.695417786E0,-3.962260437E-1,8.765539782E0
9.919257500E0,-9.262738037E-1,8.955876160E0,-3.830534363E-1,9.011793988E0
9.929336500E0,-7.259902954E-1,9.301956482E0,-4.300556946E-1,9.340150117E0
9.939415500E0,-1.420545959E-1,1.039333694E1,-2.588117981E-1,1.039752932E1
9.949494500E0,-2.228865051E-1,1.055784485E1,9.879455566E-3,1.056020188E1
9.959573500E0,-2.492317200E-1,9.556427307E0,4.302053833E-1,9.569351911E0
9.969652500E0,-1.776805115E-1,9.233249359E0,6.893165588E-1,9.260649081E0
9.979731500E0,-4.099974060E-1,8.582851868E0,7.232958984E-1,8.623027369E0
9.989810500E0,-3.385958862E-1,8.568631439E0,4.694238281E-1,8.588157582E0