"Time (s)","Acceleration x (m/s^2)","Acceleration y (m/s^2)","Acceleration z (m/s^2)","Absolute acceleration (m/s^2)"
1.235833275E-3,-1.386117554E-1,-9.829908600E0,5.399272156E-1,9.845701483E0
1.131483330E-2,-3.603007507E-1,-9.398655396E0,2.930905151E-1,9.410124437E0
2.139383333E-2,-2.776725769E-1,-9.147028656E0,2.139051819E-1,9.153741897E0
3.147283336E-2,1.282832336E-1,-9.090895386E0,3.132984924E-1,9.097196901E0
4.155183327E-2,6.327342224E-1,-9.173224182E0,4.189787292E-1,9.204560699E0
5.163183331E-2,1.077160034E0,-9.360933838E0,5.017565918E-1,9.436054034E0
6.171083334E-2,1.497485962E0,-9.593250732E0,5.718109131E-1,9.726247557E0
7.178983337E-2,1.823657684E0,-9.764195251E0,6.521937561E-1,9.954425797E0
8.186883328E-2,1.963466949E0,-9.837692413E0,7.351213074E-1,1.005861809E1
9.194783331E-2,2.129771118E0,-9.865235138E0,8.804690552E-1,1.013084474E1
1.020268333E-1,2.403701477E0,-9.691296844E0,9.529183960E-1,1.003030751E1
1.121058334E-1,2.777474213E0,-9.387129364E0,1.005010071E0,9.840864085E0
1.221858333E-1,3.219954071E0,-9.079069977E0,1.185235291E0,9.705792011E0
1.322648333E-1,3.527265015E0,-8.914262695E0,1.230740662E0,9.665422932E0
1.423438333E-1,3.725003815E0,-8.857680359E0,1.165027313E0,9.679434043E0
1.524228334E-1,3.850742340E0,-8.863667908E0,1.138981476E0,9.730884037E0
1.625018333E-1,3.866010590E0,-8.778345337E0,1.188678131E0,9.665316365E0
1.725808333E-1,3.761677551E0,-8.688083038E0,1.226998444E0,9.546650201E0
1.826608334E-1,3.624113617E0,-8.610993347E0,1.202898560E0,9.419679977E0
1.927398334E-1,3.305426331E0,-8.481811981E0,1.053808594E0,9.163923301E0
2.028188333E-1,2.970872040E0,-8.352031860E0,8.822653198E-1,8.908473998E0
2.128978333E-1,2.750829620E0,-8.385262756E0,4.881349182E-1,8.838437124E0
2.229766666E-1,2.511627045E0,-8.609496460E0,-3.805087280E-1,8.976440642E0
2.330556667E-1,2.000739441E0,-8.996441803E0,-1.834584961E0,9.397054081E0
2.431346667E-1,1.263372803E0,-9.404193878E0,-3.080893250E0,9.976315780E0
2.532146666E-1,5.646258545E-1,-9.585466919E0,-3.675157471E0,1.028137933E1
2.632936666E-1,2.454895020E-2,-9.650282135E0,-4.396208038E0,1.060448929E1
2.733726667E-1,-1.640588379E-1,-9.538165283E0,-4.724176025E0,1.064525018E1
2.834516667E-1,6.391708374E-2,-9.377249908E0,-4.114643555E0,1.024046839E1
2.935306666E-1,8.086184692E-1,-9.221124573E0,-3.307521973E0,9.829684828E0
3.036096666E-1,1.866169281E0,-9.008416901E0,-2.766696625E0,9.606704589E0
3.136886667E-1,3.381917267E0,-8.398585052E0,-2.842738495E0,9.489718512E0
3.237686667E-1,4.858147430E0,-7.139253845E0,-3.507206726E0,9.320463558E0
3.338476666E-1,5.162015533E0,-5.840255127E0,-4.580923920E0,9.041009251E0
3.439266667E-1,4.395010529E0,-5.614524536E0,-6.233936462E0,9.471059451E0
3.540056667E-1,3.339854736E0,-6.293811951E0,-7.038363647E0,1.001525144E1
3.640846667E-1,3.139421539E0,-6.539151764E0,-5.992039490E0,9.408560498E0
3.741636666E-1,4.895868988E0,-5.818999329E0,-4.089944916E0,8.634693726E0
3.842426667E-1,6.595584412E0,-5.107678528E0,-1.644779663E0,8.502670981E0
3.943226667E-1,6.391109619E0,-5.575455780E0,-1.570384369E0,8.625433113E0
4.044016667E-1,4.384981384E0,-7.687713318E0,-4.570595398E0,9.960890527E0
4.144806666E-1,2.336491241E0,-9.466165009E0,-6.630012817E0,1.179086686E1
4.245596667E-1,1.330882416E0,-9.553134155E0,-6.610852661E0,1.169345942E1
4.346386667E-1,5.044509888E-1,-9.000034332E0,-6.233038330E0,1.095928171E1
4.447176667E-1,-6.834786987E-1,-8.124654694E0,-5.869594116E0,1.004635716E1
4.547966666E-1,-1.157243500E0,-7.432344360E0,-5.602848816E0,9.379278760E0
4.648766667E-1,-9.237290955E-1,-6.692582703E0,-6.703060913E0,9.517088015E0
4.749556667E-1,-1.767823792E-1,-6.032904510E0,-7.102131042E0,9.320271143E0
4.850346666E-1,6.077362061E-1,-5.626499634E0,-5.981411591E0,8.234326083E0
4.951136666E-1,1.521286469E0,-5.766608276E0,-5.411097565E0,8.052829340E0
5.051926667E-1,3.026705933E0,-6.631360016E0,-5.696703644E0,9.251395401E0
5.152716667E-1,4.272864532E0,-7.692353668E0,-5.423821106E0,1.033670700E1
5.253506666E-1,4.431684265E0,-8.613088989E0,-4.935686188E0,1.087134424E1
5.354306666E-1,3.594774628E0,-9.539961548E0,-5.080884247E0,1.139072674E1
5.455096667E-1,2.427052917E0,-1.080902252E1,-6.620133362E0,1.290549183E1
5.555886667E-1,1.760638733E0,-1.223465790E1,-7.804769897E0,1.461852030E1
5.656676666E-1,1.947599945E0,-1.331765579E1,-7.250173187E0,1.528784199E1
5.757466666E-1,2.869682465E0,-1.420905212E1,-5.683231659E0,1.557020751E1
5.858256667E-1,4.429438934E0,-1.503967484E1,-4.764292603E0,1.638628184E1
5.959046667E-1,6.637796631E0,-1.664194290E1,-6.236331482E0,1.897120023E1
6.059846666E-1,9.008416901E0,-1.967209167E1,-1.080977097E1,2.418664744E1
6.160636666E-1,1.122425903E1,-2.450359451E1,-1.740670258E1,3.208431750E1
6.261426667E-1,1.260438904E1,-3.014865555E1,-2.292946793E1,3.991957607E1
6.362216667E-1,1.280377441E1,-3.214490433E1,-2.102213425E1,4.048656125E1
6.463006666E-1,1.316647018E1,-3.161650314E1,-1.658386368E1,3.805238156E1
6.563796666E-1,1.246892075E1,-2.832933884E1,-1.654165146E1,3.509489502E1
6.664596667E-1,9.156009979E0,-2.089549759E1,-1.141735748E1,2.551098568E1
6.765386667E-1,5.478756866E0,-1.481948273E1,2.465373230E-1,1.580172857E1
6.866176666E-1,3.983516235E0,-1.090646988E1,6.991062012E0,1.355339201E1
6.966966667E-1,3.751199341E0,-7.977810059E0,6.408024445E0,1.089861125E1
7.067756667E-1,3.566034393E0,-5.598358154E0,4.845274200E0,8.217961876E0
7.168546667E-1,3.229833527E0,-3.795357513E0,3.612587585E0,6.155270289E0
7.269336666E-1,2.613565063E0,-2.242337036E0,2.978955231E0,4.553347339E0
7.370136667E-1,1.837429047E0,-9.972262573E-1,3.328328705E0,3.930442428E0
7.470926667E-1,1.471889191E0,1.309776306E-1,3.252735901E0,3.572660601E0
7.571716667E-1,1.507814484E0,1.094972992E0,3.144960022E0,3.655577097E0
7.672506666E-1,1.542542267E0,1.838476868E0,3.363954620E0,4.132266270E0
7.773296667E-1,1.476978607E0,2.215842133E0,3.972738647E0,4.782684866E0
7.874086667E-1,1.155896301E0,2.286046143E0,4.398153992E0,5.089780129E0
7.974876667E-1,8.737330627E-1,2.099084930E0,4.362827454E0,4.919738855E0
8.075676666E-1,5.939648438E-1,1.950593719E0,4.341571655E0,4.796546104E0
8.176466667E-1,2.231858826E-1,1.817370758E0,4.374802551E0,4.742525253E0
8.277256667E-1,-1.318757629E-1,1.664239197E0,4.307442627E0,4.619647747E0
8.378046666E-1,-4.228706360E-1,1.487456818E0,3.939058685E0,4.231729042E0
8.478836666E-1,-8.680448914E-1,1.320404205E0,3.475921783E0,3.818245859E0
8.579626667E-1,-1.057999878E0,1.173110504E0,3.068020020E0,3.450840309E0
8.680416667E-1,-1.180445251E0,1.029409332E0,2.512525177E0,2.960729189E0
8.781216666E-1,-1.156045990E0,8.285270691E-1,1.622176666E0,2.157395785E0
8.882006666E-1,-9.425898743E-1,7.039860535E-1,6.242019653E-1,1.331803337E0
8.982796667E-1,-7.478448486E-1,6.756948853E-1,-2.580633545E-1,1.040400015E0
9.083586667E-1,-6.477030945E-1,6.113287354E-1,-8.234376526E-1,1.212968132E0
9.184376666E-1,-7.056326294E-1,5.857319641E-1,-9.527687073E-1,1.322409752E0
9.285166666E-1,-9.255253601E-1,5.740562439E-1,-1.471290436E0,1.830528151E0
9.385956667E-1,-2.489622803E0,-3.378773804E0,-5.526911728E1,5.542823882E1
9.486756667E-1,-2.106719055E0,-1.128578110E1,-6.490038895E1,6.590802383E1
9.587546666E-1,9.481283569E-1,-9.761201477E0,-2.422861633E1,2.613820673E1
9.688336666E-1,-9.321116638E-1,-9.677226105E0,-5.435496826E0,1.113831958E1
9.789126667E-1,-2.953358459E0,-8.871751099E0,1.974319382E1,2.184545710E1
9.889916667E-1,-2.787503357E0,-7.633825378E0,2.591665604E1,2.716097430E1
9.990706666E-1,3.112028503E-1,-7.120842133E0,2.072709778E1,2.191839005E1
1.009149667E0,1.707199860E0,-8.061935120E0,1.706616074E1,1.895160076E1
1.019229667E0,2.924318848E0,-9.951306152E0,1.543350586E1,1.859497884E1
1.029308667E0,2.993924103E0,-1.015727783E1,1.145418091E1,1.559910686E1
1.039387667E0,3.955524445E0,-1.116992203E1,5.709726562E0,1.315349038E1
1.049466667E0,6.500831451E0,-1.565534454E1,3.711681519E0,1.735301709E1
1.059545667E0,1.608150833E1,-2.795481766E1,4.769382019E0,3.260113104E1
1.069624667E0,2.686598190E1,-4.128010757E1,5.538332977E0,4.956310520E1
1.079703667E0,3.170317291E1,-4.710464539E1,5.220244446E0,5.701920503E1
1.089783667E0,2.806064758E1,-4.665183701E1,2.623294830E0,5.450390366E1
1.099862667E0,1.699191513E1,-4.343787048E1,-2.226619720E0,4.669616266E1
1.109941667E0,5.729186096E0,-3.136008636E1,-1.096739319E1,3.371293970E1
1.120020667E0,3.898942108E0,-1.884266647E1,-2.085178848E1,2.837331338E1
1.130099667E0,3.137026520E0,-1.195833252E1,-1.565788925E1,1.995024180E1
1.140178667E0,2.176773376E0,-9.241931305E0,-5.165308685E0,1.080888756E1
1.150257667E0,1.448986816E0,-7.105723572E0,-2.250120850E0,7.593017458E0
1.160337667E0,8.846603394E-1,-5.367538147E0,-2.219135284E0,5.875172430E0
1.170416667E0,5.313949585E-2,-4.245172119E0,-1.394949188E0,4.468802229E0
1.180495667E0,-7.638615417E-1,-3.478167114E0,-3.260220337E-1,3.575950405E0
1.190574667E0,-1.164578247E0,-2.938688965E0,-1.062789917E-1,3.162820031E0
1.200653667E0,-1.484612732E0,-2.262395325E0,-3.408412170E-1,2.727394417E0
1.210732667E0,-1.656605072E0,-1.711690521E0,-5.530998230E-1,2.445433340E0
1.220811667E0,-1.985620880E0,-1.691632233E0,-2.212399292E-1,2.617872609E0
1.230891667E0,-2.079924774E0,-1.985171814E0,3.126997375E-1,2.892192131E0
1.240970667E0,-1.782044220E0,-2.540217590E0,4.902305603E-1,3.141450781E0
1.251049667E0,-1.133892059E0,-3.417992249E0,2.664459229E-1,3.611007566E0
1.261128667E0,-1.005908203E-1,-4.561614075E0,-9.086105347E-2,4.563627637E0
1.271207667E0,8.132588196E-1,-5.739364929E0,-4.785548401E-1,5.816417663E0
1.281286667E0,1.616338806E0,-6.939569092E0,-1.094374237E0,7.208871291E0
1.291365667E0,2.565664673E0,-8.306077423E0,-2.433339844E0,9.027441507E0
1.301445667E0,3.683989105E0,-1.008976822E1,-4.046086121E0,1.147806653E1
1.311524667E0,4.645140381E0,-1.235994736E1,-4.635859680E0,1.399417103E1
1.321603667E0,5.219046936E0,-1.481334549E1,-4.791236572E0,1.642040205E1
1.331682667E0,5.875581665E0,-1.683983139E1,-4.340374146E0,1.835595895E1
1.341761667E0,6.042634277E0,-1.742720993E1,-4.035158844E0,1.888130244E1
1.351840667E0,4.747826843E0,-1.548933975E1,-4.009113007E0,1.668935268E1
1.361919667E0,2.934497681E0,-1.187106400E1,-3.786675568E0,1.280126357E1
1.371999667E0,2.560724945E0,-8.702303467E0,-2.553839264E0,9.423878865E0
1.382078667E0,2.938090210E0,-6.990313568E0,-1.494941254E0,7.728629064E0
1.392157667E0,3.538042603E0,-6.030509491E0,-1.337917786E0,7.118624458E0
1.402236667E0,3.999532928E0,-5.136718140E0,-2.092498627E0,6.838178661E0
1.412315667E0,3.969744873E0,-4.310286713E0,-3.597019958E0,6.875754394E0
1.422394667E0,2.860102386E0,-3.998634796E0,-5.856271820E0,7.646253038E0
1.432473667E0,1.497935028E0,-4.211342468E0,-5.895639954E0,7.398498847E0
1.442553667E0,9.942324829E-1,-4.315825195E0,-3.659589844E0,5.745210455E0
1.452632667E0,1.170715485E0,-4.286336517E0,-2.940784607E0,5.328364626E0
1.462711667E0,8.092172241E-1,-4.513863373E0,-2.696492615E0,5.319855965E0
1.472790667E0,-3.408412170E-1,-4.998555450E0,-1.584754486E0,5.254824080E0
1.482869667E0,-1.211580505E0,-5.877677307E0,-1.248403931E0,6.129725134E0
1.492948667E0,-1.856140137E0,-7.980055389E0,-5.805227966E0,1.004127542E1
1.503027667E0,6.246510315E-1,-1.006881180E1,-7.593858490E0,1.262687003E1
1.513107667E0,4.222718811E0,-9.925260315E0,-3.669618988E0,1.139334235E1
1.523186667E0,3.852688293E0,-9.950108643E0,-3.955674133E0,1.137959696E1
1.533265667E0,2.392025757E0,-9.671238556E0,-2.988834686E0,1.040133526E1
1.543344667E0,1.553020477E0,-8.694369965E0,-1.398691406E0,8.942051182E0
1.553423667E0,8.898994446E-1,-7.758067017E0,-3.839066620E0,8.701606597E0
1.563502667E0,-5.153782654E-1,-7.298372955E0,-3.961811371E0,8.320325227E0
1.573581667E0,-7.545808411E-1,-7.645351410E0,-3.123853912E0,8.293325852E0
1.583661667E0,-3.472778320E-2,-8.942104797E0,-3.408412170E0,9.569729241E0
1.593740667E0,1.314865723E0,-1.107067841E1,-3.209026794E0,1.160114844E1
1.603819667E0,3.329526215E0,-1.322993820E1,-3.126548309E0,1.399615354E1
1.613898667E0,5.618416443E0,-1.556089096E1,-3.083437958E0,1.682900830E1
1.623977667E0,7.463030548E0,-1.782702850E1,-3.448678436E0,1.963143278E1
1.634056667E0,7.922724609E0,-1.962883163E1,-4.797373810E0,2.170427129E1
1.644135667E0,7.751929779E0,-2.033536240E1,-5.604046326E0,2.247275493E1
1.654215667E0,7.974217529E0,-1.968646179E1,-5.561983795E0,2.195633364E1
1.664294667E0,8.440048828E0,-1.888757309E1,-5.917494507E0,2.151723920E1
1.674373667E0,8.816515961E0,-1.930475555E1,-6.804100800E0,2.228677474E1
1.684452667E0,9.112151184E0,-2.136147858E1,-8.697064362E0,2.479885067E1
1.694531667E0,9.003926239E0,-2.405168427E1,-1.185010757E1,2.828390449E1
1.704610667E0,8.142018585E0,-2.613101028E1,-1.479807724E1,3.111438984E1
1.714689667E0,7.949069824E0,-2.658890808E1,-1.524804153E1,3.166481509E1
1.724769667E0,8.845705261E0,-2.449161942E1,-1.360969849E1,2.938213430E1
1.734848667E0,8.005951538E0,-2.023911255E1,-1.148262177E1,2.460828193E1
1.744927667E0,6.406228180E0,-1.570414307E1,-9.137747955E0,1.926546928E1
1.755006667E0,5.560486908E0,-1.205967178E1,-4.703968048E0,1.408836447E1
1.765085667E0,4.818629608E0,-9.100325775E0,1.467548218E0,1.040138540E1
1.775164667E0,3.879183197E0,-6.840175781E0,5.389243011E0,9.533100610E0
1.785243667E0,2.758763123E0,-5.110223236E0,5.705984344E0,8.141462573E0
1.795323667E0,1.951042786E0,-3.645369415E0,4.806504822E0,6.340171506E0
1.805402667E0,1.406175842E0,-2.556533661E0,3.828887787E0,4.813894114E0
1.815481667E0,6.219566345E-1,-1.867965546E0,2.739902344E0,3.373898367E0
1.825560667E0,-2.140548706E-2,-1.278491364E0,1.918410645E0,2.305492954E0
1.835639667E0,-4.788542175E-1,-6.987469482E-1,1.323098602E0,1.571031053E0
1.845718667E0,-6.819818115E-1,-4.760101318E-2,7.536827087E-1,1.017547381E0
1.855797667E0,-7.276368713E-1,3.385958862E-1,3.555107117E-1,8.777758580E-1
1.865877667E0,-7.872129822E-1,5.330415344E-1,2.869532776E-1,9.930658288E-1
1.875956667E0,-9.279203796E-1,6.635700989E-1,5.933660889E-1,1.285863454E0
1.886035667E0,-8.622070313E-1,7.688012695E-1,1.146465912E0,1.627525866E0
1.896114667E0,-6.228547668E-1,8.336164856E-1,1.693578186E0,1.987730258E0
1.906193667E0,-2.091151428E-1,7.917036438E-1,2.351310425E0,2.489816161E0
1.916272667E0,3.194357300E-1,9.268725586E-1,3.327430573E0,3.468850839E0
1.926351667E0,4.526586914E-1,1.158291321E0,4.265380096E0,4.442972658E0
1.936430667E0,4.550537109E-2,1.201850739E0,4.770429840E0,4.919706983E0
1.946510667E0,-4.098477173E-1,1.131796417E0,4.209546204E0,4.378266497E0
1.956589667E0,-8.048762512E-1,9.713301086E-1,2.869233398E0,3.134295496E0
1.966668667E0,-1.040486298E0,8.238867188E-1,1.747915192E0,2.194677329E0
1.976747667E0,-1.124311981E0,7.005432129E-1,1.059496765E0,1.696281704E0
1.986826667E0,-1.119072876E0,6.571334839E-1,7.143145752E-1,1.481348652E0
1.996905667E0,-1.283730469E0,7.851173401E-1,6.325845337E-1,1.632340757E0
2.006984667E0,-1.864822083E0,1.154249725E0,5.544470215E-1,2.262137336E0
2.017064667E0,-2.747087402E0,1.553170166E0,-6.289920044E-1,3.217834319E0
2.027143667E0,-3.359164581E0,1.526974640E0,-4.543651428E0,5.853238978E0
2.037222667E0,-3.756588135E0,4.114942932E-1,-2.425226715E1,2.454493316E1
2.047301667E0,-7.524851990E-1,-1.896705780E0,-3.468871445E1,3.474867820E1
2.057380667E0,1.645677795E0,-2.693648529E0,-1.222747284E1,1.262834470E1
2.067459667E0,8.683442688E-1,-2.713108063E0,-7.704478455E-1,2.951028128E0
2.077538667E0,1.295555878E0,-3.207829285E0,3.645818481E0,5.025995041E0
2.087618667E0,2.875670013E0,-5.673801270E0,5.298381958E0,8.278547593E0
2.097697667E0,3.657943268E0,-8.728798370E0,6.288273468E0,1.136287169E1
2.107776667E0,3.077151031E0,-1.129521149E1,6.995103607E0,1.363752674E1
2.117855667E0,3.649560699E0,-1.537318130E1,7.409741364E0,1.745159774E1
2.127934667E0,5.656587067E0,-2.076975906E1,5.365891571E0,2.218496475E1
2.138013667E0,1.156824371E1,-3.001618103E1,4.546345825E0,3.248791539E1
2.148092667E0,1.901031784E1,-4.196867569E1,5.304818573E0,4.637782901E1
2.158172667E0,2.086840393E1,-4.545717133E1,3.803889771E0,5.016287756E1
2.168251667E0,1.647384247E1,-4.356735123E1,-3.528163147E-1,4.657924493E1
2.178330667E0,8.764873352E0,-3.858810562E1,-1.728395782E1,4.318101549E1
2.188409667E0,1.912572784E0,-3.007605652E1,-2.754631714E1,4.082923828E1
2.198488667E0,2.171384583E0,-2.149036057E1,-7.656428375E0,2.291661850E1
2.208567667E0,3.395538940E0,-1.593526245E1,2.882406006E0,1.654601277E1
2.218646667E0,2.298170929E0,-1.216071167E1,5.065615997E0,1.337254513E1
2.228725917E0,2.112856293E0,-9.383985901E0,3.870201874E0,1.036830823E1
2.238805917E0,2.051034851E0,-7.267686768E0,2.479593658E0,7.948232484E0
2.248884917E0,2.225721588E0,-5.367089081E0,1.698218536E0,6.053381533E0
2.258963917E0,2.284998322E0,-3.836222534E0,9.098080444E-1,4.556925646E0
2.269042917E0,2.049238586E0,-2.660267944E0,1.854643250E-1,3.363153481E0
2.279121917E0,2.200573883E0,-1.603016510E0,-5.676196289E-1,2.781075222E0
2.289200917E0,2.521805878E0,-7.958949280E-1,-1.631457367E0,3.107186309E0
2.299279917E0,2.370919647E0,-3.652404785E-1,-2.885549469E0,3.752473360E0
2.309359917E0,1.947450256E0,-5.701643372E-1,-3.218906250E0,3.805129080E0
2.319438917E0,1.634002075E0,-1.479523315E0,-2.614463196E0,3.419703178E0
2.329517917E0,1.679657135E0,-3.126847687E0,-1.900298309E0,4.026109563E0
2.339596917E0,1.863774261E0,-4.870571594E0,-1.295855255E0,5.373580091E0
2.349675917E0,1.774110718E0,-6.188431091E0,-8.364605713E-1,6.491826746E0
2.359754917E0,1.584006042E0,-7.313940582E0,-4.822970581E-1,7.499027433E0
2.369833917E0,1.591340790E0,-8.620274048E0,-1.202000427E-1,8.766751863E0
2.379913917E0,1.710493011E0,-1.014739838E1,1.413061523E-1,1.029152309E1
2.389992917E0,1.843566284E0,-1.175490555E1,2.186952209E-1,1.190060371E1
2.400071917E0,1.976639557E0,-1.322724380E1,1.630110168E-1,1.337511328E1
2.410150917E0,2.069596252E0,-1.428314804E1,-2.874023438E-2,1.443233774E1
2.420229917E0,2.202519836E0,-1.445094910E1,-8.104147339E-1,1.464027990E1
2.430308917E0,2.655627594E0,-1.317455338E1,-2.807711334E0,1.372969255E1
2.440387917E0,3.603306885E0,-1.089404572E1,-4.409979401E0,1.229276091E1
2.450466917E0,4.511468353E0,-8.922196198E0,-3.982917480E0,1.076208917E1
2.460546917E0,4.639601898E0,-7.552245026E0,-2.930007019E0,9.335269243E0
2.470625917E0,4.285887451E0,-6.816974030E0,-2.118843842E0,8.326431732E0
2.480704917E0,3.573069763E0,-6.698869629E0,-1.731299744E0,7.787109903E0
2.490783917E0,2.829715576E0,-6.891519012E0,-1.446442108E0,7.588973535E0
2.500862917E0,2.133213959E0,-7.111711121E0,-1.169517975E0,7.516302891E0
2.510941917E0,9.726773071E-1,-7.269483032E0,-1.114133148E0,7.418408008E0
2.521020917E0,-4.522096252E-1,-7.425009613E0,-1.734742584E0,7.638363250E0
2.531100917E0,-1.566642151E0,-7.450007629E0,-2.383044434E0,7.977210169E0
2.541179917E0,-2.272125092E0,-7.578440552E0,-3.241509247E0,8.550011452E0
2.551258917E0,-2.686613159E0,-7.698640594E0,-4.763244781E0,9.443275815E0
2.561337917E0,-3.146606598E0,-7.844587097E0,-7.212002563E0,1.111088029E1
2.571416917E0,-4.074826355E0,-8.535849609E0,-1.133398087E1,1.476225120E1
2.581495917E0,-5.191953278E0,-9.344917145E0,-1.421309372E1,1.778470940E1
2.591574917E0,-4.940027161E0,-9.887239380E0,-1.261711258E1,1.677357746E1
2.601653917E0,-1.678160248E0,-9.834249573E0,-7.814200287E0,1.267242726E1
2.611733917E0,2.745889893E0,-6.993457031E0,-1.894161072E0,7.748302957E0
2.621812917E0,4.569996643E0,-3.469485168E0,3.022664337E0,6.485267639E0
2.631891917E0,5.008734283E0,-2.014810181E0,4.480482788E0,7.015811086E0
2.641970917E0,5.400319977E0,-1.814077606E0,3.122806091E0,6.496633844E0
2.652049917E0,6.159092102E0,-2.089355164E0,-2.278262329E0,6.891320611E0
2.662128917E0,5.065765686E0,-4.009711761E0,-1.087308929E1,1.264768126E1
2.672207917E0,1.202748871E0,-7.357949066E0,-9.928403778E0,1.241608718E1
2.682287917E0,-1.920506287E-1,-1.022867935E1,-1.619332581E0,1.035784740E1
2.692366917E0,-4.712200928E-1,-1.275796967E1,1.535955963E0,1.285873241E1
2.702445917E0,-2.035766602E-1,-1.514101410E1,5.557942200E-1,1.515257927E1
2.712524917E0,6.219566345E-1,-1.738589584E1,-2.187850342E0,1.753404955E1
2.722603917E0,1.493444366E0,-1.862561783E1,-4.493056641E0,1.921800129E1
2.732682917E0,2.145189056E0,-1.841021576E1,-3.826792145E0,1.892570259E1
2.742761917E0,2.644999695E0,-1.764560577E1,-1.779050446E0,1.793121432E1
2.752840917E0,3.363056488E0,-1.694895447E1,-6.108796692E-1,1.729018162E1
2.762920917E0,4.634961548E0,-1.687845108E1,-1.324894867E0,1.755335654E1
2.772999917E0,5.889502716E0,-1.771700729E1,-3.057841187E0,1.891901114E1
2.783078917E0,6.988666992E0,-1.948123856E1,-5.761967926E0,2.148395672E1
2.793157917E0,7.641908569E0,-2.216949829E1,-9.252110138E0,2.520886675E1
2.803236917E0,7.988887024E0,-2.513123932E1,-1.192659851E1,2.894210182E1
2.813315917E0,7.843090210E0,-2.779929108E1,-1.324610458E1,3.177694030E1
2.823394917E0,7.157366180E0,-2.946966751E1,-1.360086685E1,3.323661795E1
2.833474917E0,7.169940033E0,-2.932431976E1,-1.309476929E1,3.290587717E1
2.843553917E0,8.436007233E0,-2.612801651E1,-1.284972885E1,3.031427051E1
2.853632917E0,8.516390076E0,-2.107377686E1,-1.168559967E1,2.555750791E1
2.863711917E0,7.821984100E0,-1.665825897E1,-8.482410736E0,2.026406472E1
2.873790917E0,7.232060852E0,-1.314311874E1,-5.480702820E0,1.597129857E1
2.883869917E0,6.932683411E0,-1.005773483E1,-3.852089539E0,1.280854102E1
2.893948917E0,6.024072876E0,-7.643704834E0,-7.830216980E-1,9.763646890E0
2.904027917E0,4.357438660E0,-5.954018555E0,2.608026581E0,7.825561403E0
2.914107917E0,2.110760651E0,-4.786446533E0,4.599036255E0,6.965379775E0
2.924186917E0,3.592529297E-1,-3.839815063E0,4.959187317E0,6.282259246E0
2.934265917E0,-4.490661621E-1,-2.858904877E0,4.306843872E0,5.188824689E0
2.944344917E0,-7.731422424E-1,-1.849703522E0,3.359164581E0,3.911922638E0
2.954423917E0,-1.006956024E0,-9.852511597E-1,2.749931488E0,3.089790199E0
2.964502917E0,-1.129700775E0,-2.471360779E-1,2.680026855E0,2.918877186E0
2.974581917E0,-1.015787659E0,1.871109009E-1,2.650687866E0,2.844816553E0
2.984661917E0,-1.003213806E0,3.734733582E-1,2.412383423E0,2.639226036E0
2.994740917E0,-9.295669556E-1,4.752616882E-1,2.444267120E0,2.657895813E0
3.004819917E0,-9.294172668E-1,4.394860840E-1,2.918031921E0,3.093844658E0
3.014898917E0,-8.753796387E-1,4.852908325E-1,3.864663391E0,3.992169815E0
3.024977917E0,-7.330256653E-1,6.994953918E-1,4.501738586E0,4.614354855E0
3.035056917E0,-6.737489319E-1,9.075627136E-1,4.516408081E0,4.655700770E0
3.045135917E0,-6.261479187E-1,1.140777740E0,4.609813843E0,4.789970640E0
3.055214917E0,-5.902226257E-1,1.338516541E0,4.181404724E0,4.429913627E0
3.065294917E0,-5.291496277E-1,1.398990784E0,3.303330688E0,3.626178178E0
3.075373917E0,-5.074447632E-1,1.401236115E0,2.507136383E0,2.916624021E0
3.085452917E0,-5.577401733E-1,1.357377319E0,1.970502319E0,2.456914056E0
3.095531917E0,-6.251000977E-1,1.241069183E0,1.523531799E0,2.062074682E0
3.105610917E0,-6.063890076E-1,1.069675598E0,1.294508057E0,1.785403210E0
3.115689917E0,-6.515950012E-1,8.819659424E-1,1.046174469E0,1.515559629E0
3.125768917E0,-8.294252014E-1,8.683442688E-1,9.425898743E-1,1.526579053E0
3.135847917E0,-1.423390045E0,1.364263000E0,1.249751129E0,2.334337302E0
3.145927917E0,-2.117496643E0,2.016756134E0,1.070573730E0,3.114036841E0
3.156006917E0,-2.081271973E0,1.769769745E0,-6.252497864E-1,2.802626495E0
3.166085917E0,-1.410516815E0,4.219725037E-1,-5.107977905E0,5.315924826E0
3.176164917E0,-1.824705505E0,-3.652704163E0,-4.431579483E1,4.450349952E1
3.186243917E0,-1.163081360E0,-8.115074615E0,-5.522106720E1,5.582627927E1
3.196322917E0,1.663041687E-1,-7.534581757E0,-1.842413681E1,1.990593873E1
3.206401917E0,9.363029480E-1,-5.657185822E0,2.497406616E0,6.254394810E0
3.216480917E0,1.949994965E0,-4.749922485E0,1.089374634E1,1.204317040E1
3.226560583E0,1.908231812E0,-6.952891388E0,1.429108154E1,1.600684413E1
3.236639583E0,3.641776886E0,-1.055230637E1,1.544937286E1,1.906034707E1
3.246718583E0,7.423213348E0,-1.596055984E1,1.949770432E1,2.626792798E1
3.256797583E0,1.360116623E1,-2.364962036E1,1.680675018E1,3.204314463E1
3.266876583E0,1.773871216E1,-2.983161484E1,8.740773468E0,3.579089652E1
3.276955583E0,1.916210220E1,-3.382695648E1,6.262976074E0,3.937859844E1
3.287034583E0,1.981833755E1,-3.786241470E1,8.235274658E0,4.352181866E1
3.297114583E0,1.828283066E1,-4.454032791E1,5.142256622E0,4.842050713E1
3.307193583E0,2.724484406E0,-4.870182404E1,-5.776832016E1,7.560733624E1
3.317272583E0,-6.796616364E0,-3.978172348E1,-5.193225632E1,6.577034866E1
3.327351583E0,5.198988647E0,-2.358525421E1,6.112987976E0,2.491309538E1
3.337430583E0,6.009403381E0,-1.734368362E1,5.452261963E0,1.914793595E1
3.347509583E0,5.222639465E0,-1.322829163E1,4.054917755E0,1.478871260E1
3.357588583E0,4.481231232E0,-9.756112061E0,2.913092194E0,1.112426456E1
3.367667583E0,4.190685425E0,-7.102280731E0,2.092199249E0,8.507733753E0
3.377747583E0,3.926484833E0,-5.371280365E0,1.382075958E0,6.795444787E0
3.387826583E0,3.575464783E0,-4.237388306E0,7.550299072E-1,5.595487309E0
3.397905583E0,3.351231079E0,-3.741619263E0,2.640509033E-1,5.029929158E0
3.407984583E0,3.162473602E0,-3.761677551E0,-1.182540894E-1,4.915835770E0
3.418063583E0,2.899620209E0,-4.171824646E0,-3.448828125E-1,5.092235500E0
3.428142583E0,2.310146027E0,-4.696333923E0,-5.653742981E-1,5.264216474E0
3.438221583E0,1.479822693E0,-4.942871246E0,-6.979985046E-1,5.206635504E0
3.448300583E0,8.437953186E-1,-4.944667511E0,-8.155041504E-1,5.082004954E0
3.458380583E0,3.451821899E-1,-4.803810425E0,-1.077010345E0,4.935149099E0
3.468459583E0,-1.275347900E-1,-4.647984467E0,-1.520088959E0,4.891900977E0
3.478538583E0,-4.486170959E-1,-4.638254700E0,-2.559976501E0,5.316779443E0
3.488617583E0,-1.347198486E-1,-5.098697205E0,-4.971012726E0,7.122206831E0
3.498696583E0,1.054257660E0,-6.010002136E0,-7.978259125E0,1.004411288E1
3.508775583E0,2.463726654E0,-7.104675751E0,-8.970545654E0,1.170542848E1
3.518854583E0,3.530109100E0,-8.123906250E0,-8.052205353E0,1.197069480E1
3.528933583E0,4.383484497E0,-8.916657715E0,-7.184609528E0,1.226133497E1
3.539013583E0,4.888384552E0,-9.393416290E0,-6.741381226E0,1.255303923E1
3.549092583E0,4.646637268E0,-9.644593964E0,-6.951693878E0,1.276461822E1
3.559171583E0,3.559897156E0,-9.677076416E0,-7.716453552E0,1.287875503E1
3.569250583E0,2.158211975E0,-9.077573090E0,-8.028404846E0,1.230916311E1
3.579329583E0,1.394949188E0,-8.172704773E0,-8.052504730E0,1.155776012E1
3.589408583E0,6.873706055E-1,-7.476053467E0,-8.786727905E0,1.155726789E1
3.599487583E0,-2.580633545E-1,-6.965016174E0,-8.769513702E0,1.120189348E1
3.609566583E0,-2.540217590E-1,-6.627617798E0,-6.500083008E0,9.286599153E0
3.619646583E0,7.458988953E-1,-5.950426025E0,-4.635709991E0,7.579824679E0
3.629725583E0,5.855822754E-1,-5.014272766E0,-5.208269348E0,7.253406619E0
3.639804583E0,-1.607207794E0,-4.597090302E0,-7.051685944E0,8.569867606E0
3.649883583E0,-4.974305878E0,-5.516478424E0,-6.778803406E0,1.005621344E1
3.659962583E0,-7.013066254E0,-6.623127136E0,-4.032015381E0,1.045495382E1
3.670041583E0,-6.571334839E0,-7.198081512E0,-2.919828186E0,1.017448847E1
3.680120583E0,-5.882916412E0,-7.661368103E0,-5.299280090E0,1.101760574E1
3.690199583E0,-4.573589172E0,-7.845335541E0,-6.794371033E0,1.134153805E1
3.700279583E0,-2.876717834E0,-7.981103210E0,-6.465654602E0,1.066668662E1
3.710358583E0,-1.527124329E0,-9.387728119E0,-7.834557953E0,1.232241236E1
3.720437583E0,-1.485810242E0,-1.084794159E1,-6.213878174E0,1.258958898E1
3.730516583E0,-1.886377258E0,-1.148292114E1,-2.962938538E0,1.200811817E1
3.740595583E0,-1.454674988E0,-1.209874054E1,-1.674418030E0,1.230037714E1
3.750674583E0,-5.843847656E-1,-1.286664368E1,-1.823807373E0,1.300839338E1
3.760753583E0,6.533912659E-1,-1.342977264E1,-2.715353394E0,1.371710091E1
3.770833583E0,1.876198425E0,-1.405202866E1,-5.002896423E0,1.503358249E1
3.780912583E0,2.842439117E0,-1.502246063E1,-8.135282593E0,1.731867796E1
3.790991583E0,3.321443024E0,-1.661095734E1,-1.255334518E1,2.108417328E1
3.801070583E0,2.932851105E0,-1.918350769E1,-1.628403717E1,2.533334659E1
3.811149583E0,2.070494385E0,-2.162433197E1,-1.453043381E1,2.613488448E1
3.821228583E0,8.099656677E-1,-2.231334915E1,-1.023870850E1,2.456364685E1
3.831307583E0,2.972817993E-1,-2.179931808E1,-6.553222504E0,2.276495927E1
3.841386583E0,4.981640625E-1,-2.048011139E1,-2.465822296E0,2.063403522E1
3.851466583E0,9.395960999E-1,-1.891092453E1,1.426234131E0,1.898789223E1
3.861545583E0,1.337618408E0,-1.869642059E1,3.614832916E0,1.908958834E1
3.871624583E0,2.430795135E0,-1.989168503E1,4.090992737E0,2.045297337E1
3.881703583E0,4.068838806E0,-2.155996582E1,4.482877808E0,2.239383328E1
3.891782583E0,5.557792511E0,-2.276406189E1,4.785698090E0,2.391640603E1
3.901861583E0,6.417454834E0,-2.309981369E1,4.331991577E0,2.436290767E1
3.911940583E0,6.678961029E0,-2.298739746E1,3.847149811E0,2.424519590E1
3.922019583E0,6.624474335E0,-2.234193970E1,3.632047119E0,2.358469198E1
3.932099583E0,5.951773224E0,-2.079326019E1,3.530408478E0,2.191453988E1
3.942178583E0,4.811743927E0,-1.806114166E1,3.599115601E0,1.903447795E1
3.952257583E0,3.605252838E0,-1.468296661E1,3.382216644E0,1.549279659E1
3.962336583E0,2.396815796E0,-1.140972336E1,1.845811615E0,1.180396262E1
3.972415583E0,1.967658234E0,-8.417296143E0,7.544311523E-2,8.644550014E0
3.982494583E0,2.921774139E0,-5.681435394E0,2.938389587E-1,6.395452572E0
3.992573583E0,3.352578278E0,-3.408561859E0,2.075733490E0,5.212172731E0
4.002652583E0,3.232827301E0,-1.363514557E0,3.571423187E0,5.006536516E0
4.012732583E0,3.050955505E0,8.412506104E-2,3.989354095E0,5.022982443E0
4.022811583E0,2.553539886E0,1.100661163E0,3.908671875E0,4.796846545E0
4.032890583E0,1.703307953E0,1.660197601E0,3.760929108E0,4.449955259E0
4.042969583E0,9.246272278E-1,2.203118591E0,3.445085907E0,4.192527155E0
4.053048583E0,3.534150696E-1,2.654579773E0,2.909200287E0,3.954129777E0
4.063127583E0,-6.825805664E-2,3.036884766E0,2.506088562E0,3.937995445E0
4.073206583E0,-5.246589661E-1,3.263962555E0,1.737436981E0,3.734622585E0
4.083285583E0,-1.061592407E0,3.350931702E0,6.101312256E-1,3.567629720E0
4.093364583E0,-1.502276001E0,3.327879639E0,3.532653809E-2,3.651419455E0
4.103444583E0,-1.618733826E0,3.026556244E0,-1.013392639E-1,3.433745993E0
4.113523583E0,-1.418899384E0,2.587369537E0,2.059716797E-1,2.958070472E0
4.123602583E0,-1.214274902E0,2.240241394E0,7.063810730E-1,2.644261572E0
4.133681583E0,-1.083596649E0,1.948947144E0,1.283431091E0,2.572891765E0
4.143760583E0,-1.061442719E0,1.457818451E0,1.877695312E0,2.603389131E0
4.153839583E0,-6.973997498E-1,7.203021240E-1,2.339335327E0,2.545130907E0
4.163918583E0,-2.739303589E-1,1.395098877E-1,2.399809570E0,2.419418695E0
4.173997583E0,9.190887451E-2,-4.059558105E-1,1.861229553E0,1.907202876E0
4.184077583E0,4.043092346E-1,-8.252339172E-1,1.236428833E0,1.540530180E0
4.194156583E0,5.301974487E-1,-1.147962799E0,7.702981567E-1,1.480637421E0
4.204235583E0,4.905299377E-1,-1.498234406E0,2.222877502E-1,1.592085989E0
4.214314583E0,5.803431702E-1,-2.678380280E0,-2.347119141E0,3.608252676E0
4.224393583E0,1.195264435E0,-4.328698425E0,-5.354814606E0,6.988585450E0
4.234472292E0,1.371747437E0,-4.496349792E0,-2.891087952E0,5.518808026E0
4.244551292E0,1.055604858E0,-4.903952179E0,-9.240284729E-1,5.100674192E0
4.254630292E0,7.417076111E-1,-4.931494904E0,3.796105957E-1,5.001387444E0
4.264710292E0,7.732919312E-1,-7.294031982E0,2.750829620E0,7.833769627E0
4.274789292E0,4.474195862E0,-1.385578674E1,7.185208282E0,1.623663983E1
4.284868292E0,9.910141754E0,-2.224808487E1,7.291636963E0,2.542353554E1
4.294947292E0,1.396386200E1,-3.024909668E1,7.509883118E0,3.415253484E1
4.305026292E0,1.581087112E1,-3.894690948E1,5.755381622E0,4.242605122E1
4.315105292E0,8.631800079E0,-5.309563705E1,-2.299982162E1,5.850338829E1
4.325184292E0,-1.263522491E0,-4.812776779E1,-3.554313766E1,5.984307108E1
4.335263292E0,6.482120361E0,-2.846331024E1,1.145567780E0,2.921455527E1
4.345343292E0,9.648934937E0,-1.996682877E1,7.960895233E0,2.356166482E1
4.355422292E0,8.770262146E0,-1.658625870E1,5.512736206E0,1.955535058E1
4.365501292E0,8.135881348E0,-1.336465805E1,5.360502777E0,1.653909430E1
4.375580292E0,7.459438019E0,-1.054302567E1,4.633464661E0,1.372106412E1
4.385659292E0,7.455845490E0,-8.242609406E0,3.277434540E0,1.158757174E1
4.395738292E0,9.106612701E0,-6.310128021E0,-5.998027039E-1,1.109539877E1
4.405817292E0,1.124401794E1,-4.724924469E0,-7.185208282E0,1.415556671E1
4.415896292E0,1.092922256E1,-3.619922333E0,-9.491911469E0,1.492139829E1
4.425976292E0,8.517288208E0,-3.614533539E0,-5.815406799E0,1.092831219E1
4.436055292E0,6.375541992E0,-4.781357117E0,-2.392325134E0,8.320584782E0
4.446134292E0,5.050198059E0,-6.119873657E0,-1.001118164E0,7.997474076E0
4.456213292E0,3.737427979E0,-6.907535706E0,-3.945794678E-1,7.863721153E0
4.466292292E0,2.674488373E0,-7.193590851E0,-2.948867798E-1,7.680338248E0
4.476371292E0,1.852846985E0,-7.029532013E0,-4.266128540E-1,7.282126118E0
4.486450292E0,1.260528717E0,-6.752009125E0,-8.848100281E-1,6.925420468E0
4.496529292E0,8.750802612E-1,-6.441105652E0,-1.667382660E0,6.710720708E0
4.506609292E0,7.875123596E-1,-6.260581055E0,-2.564317474E0,6.811077372E0
4.516688292E0,1.068927155E0,-6.356531525E0,-3.434607697E0,7.303740707E0
4.526767292E0,1.861528931E0,-6.748117218E0,-3.985162811E0,8.055054226E0
4.536846292E0,2.976410522E0,-7.443421326E0,-4.229005737E0,9.063555051E0
4.546925292E0,3.781735840E0,-8.069419556E0,-3.895648956E0,9.725900407E0
4.557004292E0,4.174369354E0,-8.446186066E0,-3.275787964E0,9.974678208E0
4.567083292E0,4.383783875E0,-8.642577667E0,-2.734663239E0,1.006926476E1
4.577162292E0,4.412075043E0,-8.616980896E0,-2.246977386E0,9.938192659E0
4.587242292E0,4.431983643E0,-8.319250031E0,-1.961820374E0,9.628143085E0
4.597321292E0,4.719535675E0,-7.887248383E0,-1.921254730E0,9.390097112E0
4.607400292E0,4.802163849E0,-7.543563080E0,-2.125579834E0,9.191529318E0
4.617479292E0,4.356241150E0,-7.323820038E0,-2.441123657E0,8.864212408E0
4.627558292E0,3.652853851E0,-7.132667542E0,-2.652184753E0,8.441111981E0
4.637637292E0,3.045417023E0,-7.074288940E0,-2.820135498E0,8.202029815E0
4.647716292E0,2.620151367E0,-7.196584625E0,-3.040477295E0,8.240177525E0
4.657795292E0,2.292333069E0,-7.306007080E0,-3.330574036E0,8.350164894E0
4.667874292E0,2.144739990E0,-7.303013306E0,-3.645519104E0,8.439414820E0
4.677954292E0,2.165696411E0,-7.103927307E0,-3.972888336E0,8.422580713E0
4.688033292E0,2.267933807E0,-6.852001190E0,-4.422253876E0,8.464618917E0
4.698112292E0,2.329605560E0,-6.634952545E0,-5.125042419E0,8.701477871E0
4.708191292E0,2.119741974E0,-6.682254181E0,-6.159391479E0,9.331877109E0
4.718270292E0,1.966610413E0,-6.950795746E0,-7.584877167E0,1.047432478E1
4.728349292E0,1.761686554E0,-7.639663239E0,-9.047485657E0,1.197184157E1
4.738428292E0,1.282532959E0,-8.318052521E0,-8.496930542E0,1.195962864E1
4.748507292E0,9.933343506E-1,-8.584648132E0,-6.246809692E0,1.066327942E1
4.758586292E0,5.366340637E-1,-7.915240173E0,-3.731739807E0,8.767262122E0
4.768666292E0,1.733395386E-1,-6.754553833E0,-1.757195892E0,6.981531457E0
4.778745292E0,-1.014889526E-1,-5.974974976E0,-9.859996033E-1,6.056634477E0
4.788824292E0,9.723779297E-1,-6.125711517E0,-3.354524231E0,7.051432000E0
4.798903292E0,3.440295868E0,-6.543193359E0,-6.933282166E0,1.013505879E1
4.808982292E0,4.888983307E0,-5.962101746E0,-6.540349274E0,1.011063715E1
4.819061292E0,4.273014221E0,-5.759572906E0,-3.943699036E0,8.184381020E0
4.829140292E0,2.948418732E0,-6.744973755E0,-2.910846863E0,7.915862141E0
4.839219292E0,1.621278534E0,-8.697363739E0,-2.042053528E0,9.079794199E0
4.849299292E0,5.177732849E-1,-1.016236725E1,-1.790875854E0,1.033194239E1
4.859378292E0,-1.272354126E-2,-1.144175674E1,-4.340224457E0,1.223729985E1
4.869457292E0,-1.094224548E-1,-1.267818558E1,-5.882617035E0,1.397689329E1
4.879536292E0,6.924600220E-1,-1.296409103E1,-4.692292328E0,1.380451971E1
4.889615292E0,2.622995453E0,-1.296379166E1,-3.648363190E0,1.372044289E1
4.899694292E0,3.937861176E0,-1.318458252E1,-3.263363800E0,1.414176475E1
4.909773292E0,4.041296082E0,-1.366283798E1,-4.064348145E0,1.481634711E1
4.919852292E0,3.700754242E0,-1.438149353E1,-5.843697968E0,1.595843802E1
4.929932292E0,3.853137360E0,-1.502695129E1,-6.722969513E0,1.690722484E1
4.940011292E0,4.725672913E0,-1.549607574E1,-5.599405975E0,1.714099458E1
4.950090292E0,5.968238983E0,-1.607432327E1,-4.048780518E0,1.761806939E1
4.960169292E0,7.202272797E0,-1.758243713E1,-3.817511444E0,1.938009862E1
4.970248292E0,8.541687469E0,-2.027458878E1,-5.481151886E0,2.267294425E1
4.980327292E0,9.742789764E0,-2.372850632E1,-9.375902710E0,2.731064840E1
4.990406292E0,1.051817734E1,-2.799897583E1,-1.498009872E1,3.345112943E1
5.000485292E0,1.030606842E1,-3.160153427E1,-1.835647751E1,3.797146667E1
5.010565292E0,1.051712952E1,-3.156291458E1,-1.653955582E1,3.715352603E1
5.020644292E0,1.047416885E1,-2.551893311E1,-1.426234131E1,3.105380073E1
5.030723292E0,7.530091095E0,-1.772778488E1,-9.770332489E0,2.159713003E1
5.040802292E0,6.272256775E0,-1.222148529E1,-2.833457794E0,1.402620372E1
5.050881292E0,6.980434113E0,-8.789272614E0,2.159259796E0,1.142979336E1
5.060960292E0,6.523284760E0,-6.744524689E0,5.032983856E0,1.064766565E1
5.071039292E0,5.000351715E0,-5.621410217E0,6.225104828E0,9.765024333E0
5.081118292E0,3.541784821E0,-4.959486694E0,5.743556213E0,8.374317045E0
5.091197292E0,2.350112915E0,-3.678899689E0,4.356540527E0,6.167396452E0
5.101277292E0,1.508263550E0,-2.529290314E0,3.281925201E0,4.409444574E0
5.111356292E0,8.566685486E-1,-1.679208069E0,2.438429260E0,3.082135298E0
5.121435292E0,6.400689697E-1,-1.290017395E0,2.153272247E0,2.590446783E0
5.131514292E0,5.448669434E-1,-7.731422424E-1,2.221530304E0,2.414503221E0
5.141593292E0,2.576142883E-1,-1.585203552E-1,2.208657074E0,2.229273401E0
5.151672292E0,-6.271957397E-2,3.103047180E-1,2.298619995E0,2.320318221E0
5.161751292E0,-1.474433899E-1,8.069718933E-1,2.691552887E0,2.813787507E0
5.171830292E0,1.140628052E-1,1.285975800E0,3.355422363E0,3.595219509E0
5.181909292E0,4.385879517E-1,1.703307953E0,4.716392212E0,5.033683827E0
5.191989292E0,9.648934937E-1,2.366578674E0,7.006180573E0,7.457766441E0
5.202068292E0,1.201701050E0,2.928959198E0,7.943231964E0,8.550895943E0
5.212147292E0,1.220112762E0,3.145409088E0,7.313341827E0,8.054020249E0
5.222226292E0,5.275030518E-1,2.985840912E0,5.578898621E0,6.349615362E0
5.232305958E0,-4.436773682E-1,2.567760315E0,3.804937592E0,4.611701716E0
5.242384958E0,-1.084045715E0,2.151026917E0,2.518213348E0,3.484748252E0
5.252463958E0,-1.336570587E0,1.773362274E0,1.608854370E0,2.742197490E0
5.262542958E0,-1.382674713E0,1.435514832E0,1.112336884E0,2.282495463E0
5.272622958E0,-1.428479462E0,1.138233032E0,8.095166016E-1,1.997860139E0
5.282701958E0,-2.087109833E0,1.155147858E0,4.305047607E-1,2.423990177E0
5.292780958E0,-5.755231934E0,1.671573944E0,-2.328108673E0,6.429381312E0
5.302859958E0,-7.920778656E0,1.225501556E0,-5.185965729E0,9.546456365E0
5.312938958E0,-6.678212585E0,-2.399510193E-1,-1.057610687E1,1.251040113E1
5.323017958E0,-6.431974640E0,-4.497846680E0,-4.183200989E1,4.256193104E1
5.333096958E0,-4.374353485E0,-9.231453094E0,-4.843058807E1,4.949622769E1
5.343175958E0,-2.301464081E0,-1.079165863E1,-2.870116562E1,3.074920391E1
5.353254958E0,-1.619781647E0,-9.558822327E0,-7.327262878E-1,9.722739566E0
5.363334958E0,-8.963360596E-1,-7.444169769E0,1.876722336E1,2.020959560E1
5.373413958E0,1.213077393E0,-6.877597961E0,2.000305344E1,2.118714368E1
5.383492958E0,2.684667206E0,-6.964567108E0,1.840452759E1,1.986049518E1
5.393571958E0,4.720733185E0,-9.134305115E0,1.721599915E1,2.005271748E1
5.403650958E0,7.529492340E0,-1.269779480E1,1.257789413E1,1.939408849E1
5.413729958E0,6.407126312E0,-1.224723175E1,7.314838715E0,1.563818463E1
5.423808958E0,8.439001007E0,-1.586984848E1,-4.353097687E0,1.849373646E1
5.433887958E0,1.761087799E1,-3.280353470E1,-2.415541855E1,4.438129288E1
5.443966958E0,2.459879654E1,-4.354025757E1,-2.170890610E1,5.451725804E1
5.454046958E0,3.160782120E1,-4.694223312E1,-7.760761414E0,5.712142356E1
5.464125958E0,2.408102325E1,-4.199502090E1,1.288071442E0,4.842661035E1
5.474204958E0,1.106858276E1,-3.236823990E1,6.701564026E-1,3.421499069E1
5.484283958E0,6.447242889E0,-2.381323013E1,-3.502716064E-1,2.467305333E1
5.494362958E0,4.793332214E0,-1.726404922E1,1.161434784E0,1.795473086E1
5.504441958E0,3.409310303E0,-1.291005341E1,1.618135071E0,1.345032478E1
5.514520958E0,2.773731995E0,-9.696685638E0,8.852590942E-1,1.012437579E1
5.524599958E0,2.747536469E0,-7.186256104E0,-2.544708252E-1,7.697791166E0
5.534679958E0,3.243155823E0,-5.734724579E0,-1.571581879E0,6.773108244E0
5.544758958E0,3.872746582E0,-5.267097015E0,-2.431693268E0,6.975213918E0
5.554837958E0,4.181105347E0,-5.548362122E0,-2.365081787E0,7.338908367E0
5.564916958E0,3.771407318E0,-6.592590637E0,-1.554667053E0,7.752596605E0
5.574995958E0,3.124003601E0,-7.542814636E0,-5.158273315E-1,8.180435745E0
5.585074958E0,2.883453827E0,-7.865393829E0,1.359173584E-1,8.378376907E0
5.595153958E0,2.958896942E0,-7.661517792E0,3.342549133E-1,8.219832865E0
5.605232958E0,3.187172241E0,-6.876250763E0,3.835025024E-1,7.588673509E0
5.615311958E0,3.273991699E0,-5.865552521E0,3.532653809E-1,6.726702346E0
5.625391958E0,3.205134888E0,-4.932692413E0,2.365081787E-1,5.887298210E0
5.635470958E0,3.137325897E0,-4.112697601E0,1.627116394E-1,5.175284574E0
5.645549958E0,3.003803558E0,-3.414848785E0,-5.583389282E-2,4.548312376E0
5.655628958E0,2.843936005E0,-2.761906586E0,-8.138575745E-1,4.047031522E0
5.665707958E0,2.752925262E0,-2.165247345E0,-2.409838715E0,4.251378153E0
5.675786958E0,2.420765991E0,-1.951192474E0,-4.053570557E0,5.108688121E0
5.685865958E0,1.841320953E0,-2.576142883E0,-4.355193329E0,5.384671201E0
5.695944958E0,1.494492188E0,-4.088597717E0,-3.327131195E0,5.479045554E0
5.706023958E0,1.323847046E0,-5.132975922E0,-2.257754974E0,5.761724597E0
5.716103958E0,1.546434174E0,-5.902226257E0,-1.528022461E0,6.289879656E0
5.726182958E0,2.093546448E0,-6.611451416E0,-1.156944122E0,7.030842500E0
5.736261958E0,2.476599884E0,-7.101382599E0,-1.136885834E0,7.606292868E0
5.746340958E0,2.712060242E0,-7.398664398E0,-1.425186310E0,8.007912440E0
5.756419958E0,2.817590790E0,-7.653584290E0,-2.454745331E0,8.517155921E0
5.766498958E0,2.748284912E0,-8.080197144E0,-4.882995758E0,9.832919374E0
5.776577958E0,2.208806763E0,-8.860374756E0,-9.507628784E0,1.318256702E1
5.786656958E0,6.477030945E-1,-1.029169830E1,-1.465078354E1,1.791602723E1
5.796735958E0,-9.779164124E-1,-1.202913528E1,-1.474523712E1,1.905461713E1
5.806815958E0,-2.161505127E0,-1.338516541E1,-1.231848358E1,1.831883717E1
5.816894958E0,-9.726773071E-1,-1.187166275E1,-3.478017426E0,1.240883084E1
5.826973958E0,1.211430817E0,-7.586972809E0,6.653963013E0,1.016390401E1
5.837052958E0,1.072070618E0,-3.887116699E0,8.802295532E0,9.681911912E0
5.847131958E0,4.328997803E-1,-2.355950775E0,6.910230103E0,7.313630176E0
5.857210958E0,1.225052490E0,-2.891387329E0,3.629352722E0,4.799278641E0
5.867289958E0,4.581223297E0,-3.725901947E0,-7.153773651E0,9.276121478E0
5.877368958E0,5.945037231E0,-7.356302490E0,-1.869552246E1,2.095187853E1
5.887447958E0,3.580853577E0,-1.104328537E1,-1.157273438E1,1.639221904E1
5.897527958E0,3.150498505E0,-1.401281021E1,-1.592837677E0,1.445066167E1
5.907606958E0,2.359992371E0,-1.660317352E1,2.739004211E0,1.699226527E1
5.917685958E0,1.344653778E0,-1.873698624E1,-5.492079163E-1,1.879320027E1
5.927764958E0,1.287921753E0,-1.926748306E1,-4.620591431E0,1.985559143E1
5.937843958E0,3.179089050E0,-1.875240417E1,-4.750221863E0,1.960418010E1
5.947922958E0,5.429658966E0,-1.818568268E1,-3.964356079E0,1.938856287E1
5.958001958E0,7.030130768E0,-1.782163971E1,-3.497177582E0,1.947469721E1
5.968080958E0,8.349187775E0,-1.798869232E1,-3.853436737E0,2.020274641E1
5.978159958E0,9.466913452E0,-1.865540588E1,-4.902754669E0,2.148682439E1
5.988239958E0,1.124042542E1,-2.021037231E1,-8.265212402E0,2.455850257E1
5.998318958E0,1.347812210E1,-2.263293457E1,-1.388677231E1,2.977838054E1
6.008397958E0,1.436876999E1,-2.544408875E1,-1.852712265E1,3.459938550E1
6.018476958E0,1.342004288E1,-2.635299866E1,-1.779918640E1,3.451650512E1
6.028555958E0,1.321960968E1,-2.289608734E1,-1.367211868E1,2.976433646E1
6.038634958E0,1.142139908E1,-1.710253510E1,-1.037522461E1,2.303454687E1
6.048713958E0,9.094038849E0,-1.277263916E1,-5.977819061E0,1.678023166E1
6.058792958E0,7.836354218E0,-9.942923584E0,-1.267115021E0,1.272304041E1
6.068871958E0,6.389013977E0,-7.808212738E0,1.941911774E0,1.027417671E1
6.078951958E0,4.322710876E0,-6.434968414E0,4.786745911E0,9.110849808E0
6.089030958E0,2.934048615E0,-5.449717255E0,5.837710419E0,8.508050444E0
6.099109958E0,2.233206024E0,-4.787194977E0,5.232069855E0,7.434984859E0
6.109188958E0,1.514999542E0,-4.231999512E0,4.195325775E0,6.148642276E0
6.119267958E0,5.754034424E-1,-3.702550507E0,3.313359833E0,5.001831940E0
6.129346958E0,-5.463638306E-2,-3.092269592E0,2.533032532E0,3.997670593E0
6.139425958E0,-4.055067444E-1,-2.470163269E0,1.914369049E0,3.151341167E0
6.149504958E0,-5.287005615E-1,-1.780547333E0,1.445543976E0,2.353607969E0
6.159583958E0,-5.770500183E-1,-1.100810852E0,1.193468170E0,1.723118548E0
6.169663958E0,-6.221063232E-1,-5.360353088E-1,1.149459686E0,1.412659796E0
6.179742958E0,-5.855822754E-1,-8.487350464E-2,1.262324982E0,1.394121398E0
6.189821958E0,-6.737489319E-1,3.140469360E-1,1.261127472E0,1.463900817E0
6.199900958E0,-8.723858643E-1,6.367758179E-1,1.448088684E0,1.806516365E0
6.209979958E0,-1.052311707E0,9.011260986E-1,2.257006531E0,2.648295046E0
6.220058958E0,-1.131047974E0,1.117276611E0,3.308869171E0,3.670993290E0
6.230137917E0,-1.053209839E0,1.354084167E0,4.103716278E0,4.447840171E0
6.240216917E0,-8.969348145E-1,1.494043121E0,4.184398499E0,4.532752773E0
6.250295917E0,-5.742059326E-1,1.596729584E0,3.879482574E0,4.234340901E0
6.260375917E0,-4.248165894E-1,1.541494446E0,3.478915558E0,3.828776269E0
6.270454917E0,-4.770579529E-1,1.400337982E0,2.216590576E0,2.664921113E0
6.280533917E0,-5.483097839E-1,1.225202179E0,9.982740784E-1,1.672816527E0
6.290612917E0,-6.101312256E-1,1.082548828E0,1.441502380E-1,1.250980163E0
6.300691917E0,-6.192622375E-1,9.719288635E-1,-2.649490356E-1,1.182509800E0
6.310770917E0,-6.261479187E-1,8.750802612E-1,-3.662882996E-1,1.136659051E0
6.320849917E0,-6.608757019E-1,8.457412720E-1,-4.331991577E-1,1.157452592E0
6.330928917E0,-5.897735596E-1,8.234376526E-1,-1.388811951E0,1.718918571E0
6.341007917E0,-7.173083496E-1,-2.586621094E0,-3.728057465E1,3.737708370E1
6.351087917E0,-4.627327423E0,-8.573720856E0,-4.547693024E1,4.650883822E1
6.361166917E0,-4.981640625E0,-1.222672440E1,-3.575240250E1,3.811225285E1
6.371245917E0,-3.561094666E0,-1.395278503E1,-1.071382050E1,1.794846943E1
6.381324917E0,-1.687440948E0,-1.365235977E1,1.746792526E1,2.223427078E1
6.391403917E0,-2.234553223E0,-1.337334000E1,2.749766830E1,3.065878688E1
6.401482917E0,-1.460961914E-1,-1.233450027E1,2.034329590E1,2.379098420E1
6.411561917E0,6.618486786E0,-1.631547180E1,-4.217928772E0,1.810496922E1
6.421640917E0,6.065985718E0,-1.670062088E1,-8.088280334E0,1.952247933E1
6.431719917E0,8.755592651E0,-1.635723495E1,-1.672142761E1,2.497650255E1
6.441799917E0,1.552062469E1,-2.084190903E1,-1.735416183E1,3.124807027E1
6.451878917E0,1.804048462E1,-2.277154633E1,-3.788621521E0,2.929771425E1
6.461957917E0,1.747002090E1,-2.305206299E1,7.803273010E-1,2.893454940E1
6.472036917E0,1.527393768E1,-2.404913956E1,-6.072871399E-1,2.849601873E1
6.482115917E0,1.232821335E1,-2.626767609E1,-4.333638153E0,2.933864467E1
6.492194917E0,6.301296387E0,-2.464355347E1,-5.298980713E0,2.598249911E1
6.502273917E0,2.848127289E0,-2.090268265E1,-4.720583496E0,2.161753639E1
6.512352917E0,3.539090424E0,-1.702170319E1,-2.786904602E0,1.760767951E1
6.522431917E0,4.908891907E0,-1.419318512E1,-1.076261902E0,1.505662855E1
6.532510917E0,5.352868652E0,-1.260199402E1,-5.656736755E-1,1.370340990E1
6.542590917E0,5.907615051E0,-1.170715485E1,-9.726773071E-1,1.314927722E1
6.552669917E0,6.274502106E0,-1.140568176E1,-1.790726166E0,1.314023034E1
6.562748917E0,5.587730255E0,-1.113190109E1,-2.581831055E0,1.272036961E1
6.572827917E0,4.359234924E0,-1.052311707E1,-2.948269043E0,1.176567942E1
6.582906917E0,3.448828125E0,-9.881251831E0,-2.702180786E0,1.080903947E1
6.592985917E0,2.856210480E0,-9.133856049E0,-2.141446838E0,9.806684413E0
6.603064917E0,2.461181946E0,-8.255183258E0,-1.480271759E0,8.740518959E0
6.613143917E0,2.058668976E0,-7.267088013E0,-1.060095520E0,7.627089133E0
6.623222917E0,1.589544525E0,-5.965694275E0,-9.556127930E-1,6.247347900E0
6.633302917E0,1.070424042E0,-4.772375793E0,-1.072369995E0,5.007130491E0
6.643381917E0,9.425898743E-1,-3.961961060E0,-1.393452301E0,4.304337397E0
6.653460917E0,1.165177002E0,-3.432062988E0,-1.900148621E0,4.092341455E0
6.663539917E0,1.540147247E0,-3.045267334E0,-2.422711945E0,4.185121246E0
6.673618917E0,1.772314453E0,-2.918331299E0,-2.859803009E0,4.453788201E0
6.683697917E0,1.738933868E0,-3.224145355E0,-3.114722900E0,4.808378419E0
6.693776917E0,1.723964996E0,-4.027824097E0,-3.169508972E0,5.407514160E0
6.703855917E0,1.894759827E0,-5.193899231E0,-3.027604065E0,6.303418945E0
6.713934917E0,2.044298859E0,-6.104455719E0,-2.840493164E0,7.036472047E0
6.724014917E0,2.325264587E0,-6.629563751E0,-2.962489471E0,7.624586205E0
6.734093917E0,2.826721802E0,-6.799759827E0,-3.487447815E0,8.147967974E0
6.744172917E0,3.589236145E0,-6.860982513E0,-4.846172333E0,9.134609101E0
6.754251917E0,4.460424500E0,-7.207960968E0,-7.068451080E0,1.103689670E1
6.764330917E0,5.118306427E0,-7.816595306E0,-8.912765808E0,1.291253721E1
6.774409917E0,5.042713623E0,-8.183332672E0,-8.717871094E0,1.297679355E1
6.784488917E0,4.458628235E0,-8.170908508E0,-6.236181793E0,1.120415436E1
6.794567917E0,3.687282257E0,-8.260422363E0,-4.618346100E0,1.015675877E1
6.804646917E0,2.939287720E0,-8.409961395E0,-3.987557831E0,9.760506156E0
6.814725917E0,3.049308929E0,-7.734865265E0,-1.806593170E0,8.508243326E0
6.824805917E0,4.063150635E0,-6.695127411E0,-2.397713928E0,8.190418561E0
6.834884917E0,5.359155579E0,-5.098248138E0,-4.672084351E0,8.748774473E0
6.844963917E0,5.727539520E0,-3.777095490E0,-3.329226837E0,7.625936705E0
6.855042917E0,4.247267761E0,-3.769012299E0,-2.427052917E0,6.175380394E0
6.865121917E0,2.147584076E0,-4.800367584E0,-5.193300476E0,7.390941492E0
6.875200917E0,7.547305298E-1,-6.823260956E0,-5.471721497E0,8.778738200E0
6.885279917E0,1.164578247E0,-8.106991425E0,-1.044827271E0,8.256586248E0
6.895358917E0,1.277892609E0,-9.173224182E0,7.972421265E-1,9.296055423E0
6.905437917E0,6.586303711E-3,-1.042177780E1,-4.170477448E0,1.122525626E1
6.915517917E0,-1.631157990E0,-1.136466705E1,-1.077549225E1,1.574571582E1
6.925596917E0,-1.730251923E0,-1.122949814E1,-1.030382309E1,1.533832359E1
6.935675917E0,-1.314716034E0,-1.074480606E1,-4.811444550E0,1.184606830E1
6.945754917E0,-8.020321655E-1,-1.004186783E1,-5.367837524E-1,1.008813669E1
6.955833917E0,2.085163879E0,-9.726623383E0,-2.328557739E0,1.021652054E1
6.965912917E0,6.139931946E0,-1.050036438E1,-5.708978119E0,1.343684664E1
6.975991917E0,9.386380920E0,-1.229378494E1,-6.256539459E0,1.668489080E1
6.986070917E0,1.059347076E1,-1.399649414E1,-4.655917969E0,1.816042519E1
6.996149917E0,1.101723953E1,-1.562780182E1,-2.585124207E0,1.929483412E1
7.006229917E0,1.156405243E1,-1.770054153E1,-1.602417755E0,2.120387280E1
7.016308917E0,1.151974457E1,-1.986069946E1,-1.044228516E0,2.298352260E1
7.026387917E0,1.098490677E1,-2.186847427E1,-6.756948853E-1,2.448172599E1
7.036466917E0,1.108250381E1,-2.357702133E1,-1.212478638E0,2.608002934E1
7.046545917E0,1.209065735E1,-2.506642410E1,-4.638105011E0,2.821385529E1
7.056624917E0,1.199785034E1,-2.621902725E1,-1.133862122E1,3.098306205E1
7.066703917E0,1.044003983E1,-2.685176147E1,-1.642609177E1,3.316365505E1
7.076782917E0,8.432414703E0,-2.597263962E1,-1.473445953E1,3.102882409E1
7.086861917E0,7.463329926E0,-2.204675354E1,-1.162392792E1,2.601684715E1
7.096940917E0,6.663692780E0,-1.650243301E1,-1.062236069E1,2.072606194E1
7.107020917E0,6.498586121E0,-1.176014465E1,-9.839788055E0,1.665395007E1
7.117099917E0,6.747368774E0,-8.525820465E0,-8.412805481E0,1.374743234E1
7.127178917E0,6.930587769E0,-6.233038330E0,-5.292843475E0,1.071904873E1
7.137257917E0,5.609285431E0,-5.217849426E0,-4.071533203E-2,7.661050412E0
7.147336917E0,3.636088715E0,-4.648433533E0,4.995861053E0,7.732250844E0
7.157415917E0,2.214944000E0,-3.882176971E0,5.818550262E0,7.337084034E0
7.167494917E0,1.419198761E0,-2.789449310E0,4.963977356E0,5.868238558E0
7.177573917E0,7.144642639E-1,-1.857337646E0,4.158652039E0,4.610265621E0
7.187652917E0,1.725910950E-1,-1.184037781E0,3.162922668E0,3.381687886E0
7.197731917E0,-1.571731567E-1,-5.626799011E-1,2.286794586E0,2.360241842E0
7.207811917E0,-3.423381042E-1,-4.670288086E-2,1.554517365E0,1.592451184E0
7.217890917E0,-4.246669006E-1,3.023712158E-1,1.050964508E0,1.173156735E0
7.227969167E0,-5.140310669E-1,6.532415771E-1,7.599696350E-1,1.126279868E0
7.238048167E0,-5.309458923E-1,9.572593689E-1,6.420149231E-1,1.269028054E0
7.248127167E0,-4.888833618E-1,1.292861481E0,9.815089417E-1,1.695245573E0
7.258206167E0,-3.164419556E-1,1.652413788E0,1.711091766E0,2.399675368E0
7.268285167E0,3.906875610E-2,1.903591461E0,3.051554260E0,3.596827800E0
7.278364167E0,5.995033264E-1,2.229463806E0,5.233417053E0,5.720014611E0
7.288443167E0,1.000220032E0,2.421963501E0,6.666387177E0,7.162895036E0
7.298523167E0,1.007854156E0,2.468367004E0,6.641239471E0,7.156442369E0
7.308602167E0,1.077160034E0,2.695594482E0,6.114634552E0,6.768696998E0
7.318681167E0,1.160087585E0,2.852617950E0,5.218298492E0,6.059197268E0
7.328760167E0,8.208929443E-1,2.880759430E0,3.802243195E0,4.840422857E0
7.338839167E0,2.935395813E-1,2.662363586E0,2.245630188E0,3.495311187E0
7.348918167E0,-1.465452576E-1,2.213746490E0,9.380992126E-1,2.408771299E0
7.358997167E0,-3.504212952E-1,1.657203827E0,-6.676116943E-2,1.695162724E0
7.369076167E0,-4.046086121E-1,1.197958832E0,-6.008505249E-1,1.399941015E0
7.379155167E0,-4.379891968E-1,8.687933350E-1,-6.649172974E-1,1.178452972E0
7.389234167E0,-4.878355408E-1,6.517446899E-1,-6.563850403E-1,1.045751393E0
7.399314167E0,-1.482666779E0,-4.535568237E-2,-8.776549072E0,8.901020814E0
7.409393167E0,-1.293699738E1,-9.053622894E0,-7.284481842E1,7.453657867E1
7.419472167E0,-7.008575592E0,-1.260004807E1,-3.065684875E1,3.387807135E1
7.429551167E0,-2.545905762E0,-1.289508453E1,2.164947968E0,1.332110510E1
7.439630167E0,-2.657274170E0,-1.141331589E1,1.744622040E1,2.101655280E1
7.449709167E0,-1.906136169E0,-1.054646851E1,2.016022659E1,2.283190945E1
7.459788167E0,2.806663513E0,-1.400667297E1,6.813531189E0,1.582682707E1
7.469867167E0,3.112627258E0,-1.358305389E1,6.836283875E0,1.552168093E1
7.479946167E0,2.213896179E0,-1.267354523E1,9.781259766E0,1.616147046E1
7.490025167E0,7.385042725E0,-1.710373260E1,2.977158966E0,1.886637222E1
7.500105167E0,2.481030670E1,-3.602393784E1,-1.041683807E1,4.496427394E1
7.510184167E0,3.123554535E1,-4.880780365E1,-2.553854233E1,6.332517773E1
7.520263167E0,2.629476974E1,-4.406356934E1,-1.108100693E1,5.249573100E1
7.530342167E0,2.063054855E1,-3.675456848E1,4.045936432E0,4.234250157E1
7.540421167E0,1.271575745E1,-3.155557983E1,4.504582672E0,3.431816387E1
7.550500167E0,8.010741577E0,-2.309577209E1,4.343816986E0,2.482852020E1
7.560579167E0,6.853797455E0,-1.641037445E1,3.667074280E0,1.815825881E1
7.570658167E0,6.340514832E0,-1.203886505E1,2.654729462E0,1.386304399E1
7.580737167E0,6.206693115E0,-9.253607025E0,4.635859680E-1,1.115200405E1
7.590816167E0,6.778204651E0,-7.282356262E0,-2.327809296E0,1.021741000E1
7.600896167E0,7.053332520E0,-5.874234467E0,-4.721631317E0,1.032230267E1
7.610975167E0,6.469097443E0,-5.317392426E0,-5.402565308E0,9.965520349E0
7.621054167E0,5.427114258E0,-5.682932281E0,-4.566254425E0,9.088452451E0
7.631133167E0,4.301754456E0,-6.355783081E0,-3.210523682E0,8.319166562E0
7.641212167E0,3.423979797E0,-6.970704346E0,-2.203417969E0,8.072757117E0
7.651291167E0,2.615511017E0,-7.314838715E0,-1.379830627E0,7.889974389E0
7.661370167E0,1.980531464E0,-7.264393616E0,-7.250921631E-1,7.564368984E0
7.671449167E0,1.748513947E0,-6.781497803E0,-7.346722412E-1,7.041715471E0
7.681528167E0,1.573527832E0,-6.053711243E0,-1.703757019E0,6.482761574E0
7.691607167E0,1.131197662E0,-5.176984406E0,-3.660038910E0,6.440237613E0
7.701687167E0,6.721023560E-1,-4.162543945E0,-5.652545471E0,7.051933350E0
7.711766167E0,6.252497864E-1,-3.035687256E0,-6.086193695E0,6.829940564E0
7.721845167E0,8.689430237E-1,-2.034419403E0,-5.147196350E0,5.602459688E0
7.731924167E0,1.281934204E0,-1.173858948E0,-3.964655457E0,4.328948258E0
7.742003167E0,1.649120636E0,-5.075944519E-1,-3.387455750E0,3.801592752E0
7.752082167E0,1.785936127E0,-1.028361511E-1,-3.104544067E0,3.583062515E0
7.762161167E0,1.678609314E0,-5.209167480E-2,-2.665806427E0,3.150708917E0
7.772240167E0,1.523831177E0,-5.031037903E-1,-2.217488708E0,2.737230544E0
7.782319167E0,1.693428497E0,-1.447938995E0,-2.129172363E0,3.081818029E0
7.792399167E0,1.714983673E0,-2.648143158E0,-2.375559998E0,3.949318484E0
7.802478167E0,1.129251709E0,-4.011508026E0,-2.959795074E0,5.111535283E0
7.812557167E0,1.020877075E-1,-5.498815155E0,-3.998784485E0,6.799828481E0
7.822636167E0,-9.871971130E-1,-7.141499176E0,-5.700445862E0,9.190791677E0
7.832715167E0,-1.526525574E0,-9.130862274E0,-8.533454590E0,1.259058273E1
7.842794167E0,-2.160756683E0,-1.221909027E1,-1.616982468E1,2.038230278E1
7.852873167E0,-3.546125793E0,-1.641306885E1,-2.374557083E1,2.908291545E1
7.862952167E0,-1.685794373E0,-1.817580322E1,-1.610231506E1,2.434104098E1
7.873031167E0,2.485281830E0,-1.580099167E1,-1.433269501E0,1.605933451E1
7.883110167E0,2.587219849E0,-1.117471207E1,4.482728119E0,1.231514302E1
7.893190167E0,1.836680603E-1,-6.663692780E0,5.028044128E0,8.349836117E0
7.903269167E0,-5.122348022E-1,-4.016747131E0,4.629572754E0,6.150576062E0
7.913348167E0,4.037104797E-1,-2.394720154E0,1.258433075E0,2.735200280E0
7.923427167E0,2.137554932E0,-2.203268280E0,-8.485105133E0,9.023333160E0
7.933506167E0,1.937271423E0,-5.380561066E0,-1.602657257E1,1.701630061E1
7.943585167E0,-8.800199890E-1,-9.823322296E0,-1.233734436E1,1.579500434E1
7.953664167E0,-2.757864990E0,-1.282982025E1,-5.067112885E0,1.406718664E1
7.963743167E0,-3.693419495E0,-1.433254532E1,-3.562591553E-1,1.480507087E1
7.973822167E0,-2.864143982E0,-1.533186722E1,9.553134155E-1,1.562632704E1
7.983901167E0,-1.148411865E0,-1.669343582E1,6.324348450E-1,1.674483870E1
7.993981167E0,6.346801758E-1,-1.881976410E1,-1.006057892E0,1.885731933E1
8.004060167E0,2.430495758E0,-2.136941208E1,-3.874692535E0,2.185342821E1
8.014139167E0,4.802014160E0,-2.369946671E1,-6.413413239E0,2.501711277E1
8.024218167E0,6.924001465E0,-2.504067764E1,-7.521708527E0,2.704724445E1
8.034297167E0,7.547454987E0,-2.595871857E1,-7.336693268E0,2.801153717E1
8.044376167E0,6.915020142E0,-2.664489166E1,-7.309150543E0,2.848142266E1
8.054455167E0,6.302942963E0,-2.698663101E1,-7.169041901E0,2.862517258E1
8.064534167E0,6.228996735E0,-2.725262787E1,-6.002218323E0,2.859252963E1
8.074613167E0,6.914571075E0,-2.720802063E1,-5.446124725E0,2.859629267E1
8.084692167E0,8.118966522E0,-2.629207535E1,-4.460723877E0,2.787631434E1
8.094772167E0,9.238039398E0,-2.414958069E1,-3.171155548E0,2.604994908E1
8.104851167E0,9.172026672E0,-2.125804367E1,-1.036744080E0,2.317553305E1
8.114930167E0,7.759563904E0,-1.852846985E1,2.474354553E0,2.023950240E1
8.125009167E0,6.021228790E0,-1.608525055E1,5.168152771E0,1.793600525E1
8.135088167E0,4.826563110E0,-1.385683456E1,6.102958832E0,1.589193764E1
8.145167167E0,3.683240662E0,-1.182196609E1,6.002368011E0,1.376058014E1
8.155246167E0,2.245330811E0,-1.011716125E1,5.585484924E0,1.177268466E1
8.165325167E0,7.593708801E-1,-8.545579376E0,5.224136353E0,1.004465886E1
8.175404167E0,-3.517684937E-1,-7.142397308E0,4.822521515E0,8.625212701E0
8.185483167E0,-1.047671356E0,-5.754034424E0,4.265080719E0,7.238607667E0
8.195563167E0,-1.356778564E0,-4.234993286E0,3.576512604E0,5.706790570E0
8.205642167E0,-1.296004944E0,-2.691253510E0,2.755469971E0,4.063876109E0
8.215721167E0,-1.036744080E0,-1.430575104E0,2.131118317E0,2.768221215E0
8.225800167E0,-7.837701416E-1,-4.577481079E-1,1.937271423E0,2.139357271E0
8.235879542E0,-4.590953064E-1,3.246748352E-1,2.091899872E0,2.166154963E0
8.245958542E0,-2.543211365E-1,9.521699524E-1,2.476001129E0,2.664936857E0
8.256037542E0,-2.386038208E-1,1.409019928E0,2.907703400E0,3.239908641E0
8.266116542E0,-1.368154907E-1,1.744472351E0,3.269650726E0,3.708438773E0
8.276195542E0,2.993774414E-3,1.969604187E0,3.620072021E0,4.121197770E0
8.286274542E0,1.002914429E-1,2.163151703E0,3.766018524E0,4.344212148E0
8.296354542E0,1.820214844E-1,2.406395874E0,3.997137909E0,4.669152427E0
8.306433542E0,3.056643677E-1,2.761307831E0,4.684658203E0,5.446491910E0
8.316512542E0,3.629951477E-1,3.106639709E0,5.529501343E0,6.352823062E0
8.326591542E0,1.948947144E-1,3.329226837E0,6.151308289E0,6.997165779E0
8.336670542E0,-2.074685669E-1,3.340303802E0,6.616391144E0,7.414668197E0
8.346749542E0,-4.176315308E-1,2.586770782E0,7.097490692E0,7.565723581E0
8.356828542E0,-2.710862732E-1,1.255738678E0,7.194339294E0,7.308138291E0
8.366907542E0,1.377136230E-2,1.511856079E-1,7.067103882E0,7.068734258E0
8.376986542E0,4.258644104E-1,-6.180647278E-1,7.033573608E0,7.073508479E0
8.387065542E0,7.111711121E-1,-1.175655212E0,6.589896240E0,6.731616595E0
8.397145542E0,1.138382721E0,-1.605261841E0,4.885540466E0,5.266999757E0
8.407224542E0,1.253044281E0,-1.462907867E0,3.177292786E0,3.715563059E0
8.417303542E0,8.620573425E-1,-8.628057861E-1,1.923649750E0,2.277719264E0
8.427382542E0,3.411405945E-1,-3.245251465E-1,1.079255676E0,1.177491525E0
8.437461542E0,-1.234931946E-1,-1.541793823E-2,5.373825073E-1,5.516051496E-1
8.447540542E0,-5.894741821E-1,1.432521057E-1,-3.592529297E-3,6.066414785E-1
8.457619542E0,-7.517367554E-1,-3.315605164E-1,-3.557502136E0,3.651145296E0
8.467698542E0,1.146615601E-1,-4.108656006E0,-2.317316116E1,2.353485925E1
8.477777542E0,9.478289795E-1,-6.511908417E0,-1.656979294E1,1.782866706E1
8.487856542E0,2.810555420E0,-7.707921295E0,-7.674540710E0,1.123431563E1
8.497935542E0,4.304598541E0,-9.868827667E0,-4.647834778E-1,1.077679692E1
8.508015542E0,5.724246368E0,-1.408301422E1,4.007765808E0,1.572133814E1
8.518094542E0,8.922944641E0,-2.123139908E1,1.248403931E0,2.306403608E1
8.528173542E0,1.201641174E1,-2.789808563E1,1.933080139E0,3.043738050E1
8.538252542E0,1.453477478E1,-3.540841782E1,4.166286163E0,3.850160608E1
8.548331542E0,1.922347458E1,-4.397704926E1,2.565365295E0,4.806354060E1
8.558410542E0,2.096330658E1,-4.443494705E1,-2.309098206E0,4.918593983E1
8.568489542E0,1.580353638E1,-3.525723221E1,-3.728147278E0,3.881653342E1
8.578568542E0,1.142454254E1,-2.581771179E1,1.361418915E0,2.826531224E1
8.588647542E0,8.604856110E0,-1.887814270E1,3.685336304E0,2.107153350E1
8.598726542E0,7.463030548E0,-1.400248169E1,2.096839600E0,1.600509465E1
8.608806542E0,8.092471619E0,-1.003737717E1,-3.169059906E0,1.327704704E1
8.618885542E0,1.068043991E1,-6.818620605E0,-1.125195145E1,1.694614396E1
8.628964542E0,1.112785950E1,-5.544021149E0,-1.198258209E1,1.726695402E1
8.639043542E0,9.581125946E0,-6.370302887E0,-4.836592255E0,1.248083963E1
8.649122542E0,8.946745148E0,-7.468269653E0,-1.215472412E0,1.171736632E1
8.659201542E0,7.139104156E0,-7.449857941E0,-6.161187744E-1,1.033667228E1
8.669280542E0,6.553372192E0,-6.914870453E0,-1.666035461E-1,9.528372223E0
8.679359542E0,7.021299133E0,-6.253994751E0,-1.887574768E-1,9.404611701E0
8.689438542E0,6.464906158E0,-5.519621887E0,-1.274000702E0,8.595598595E0
8.699517542E0,5.811514893E0,-4.702022095E0,-2.014211426E0,7.742077550E0
8.709596542E0,4.839136963E0,-4.144132233E0,-2.589165802E0,6.877125712E0
8.719676542E0,3.942651215E0,-3.908671875E0,-2.377356262E0,6.039373910E0
8.729755542E0,3.140918427E0,-3.758085022E0,-1.816921692E0,5.223961718E0
8.739834542E0,2.031874695E0,-3.535797272E0,-1.513652344E0,4.349887417E0
8.749913542E0,1.121018829E0,-3.236868896E0,-1.492396545E0,3.736475735E0
8.759992542E0,4.309538269E-1,-2.994223480E0,-1.768572235E0,3.504132304E0
8.770071542E0,-1.025367737E-1,-2.807711334E0,-2.254461823E0,3.602270789E0
8.780150542E0,-3.129991150E-1,-2.803220673E0,-2.329455872E0,3.658193440E0
8.790229542E0,-1.017883301E-1,-3.276386719E0,-1.686093750E0,3.686188130E0
8.800308542E0,4.080514526E-1,-4.192631378E0,-8.378077698E-1,4.294948861E0
8.810387542E0,7.324269104E-1,-5.248535614E0,-2.311193848E-1,5.304431302E0
8.820467542E0,6.577322388E-1,-6.161487122E0,6.107299805E-2,6.196794749E0
8.830546542E0,4.349954224E-1,-6.921456757E0,1.498384094E-1,6.936730945E0
8.840625542E0,7.608677673E-1,-7.820487213E0,4.195774841E-1,7.868607582E0
8.850704542E0,1.481169891E0,-8.905281372E0,6.192622375E-1,9.048833421E0
8.860783542E0,2.153421936E0,-9.920470276E0,3.273692322E-1,1.015677740E1
8.870862542E0,2.920426941E0,-1.098116455E1,-6.367758179E-1,1.138070085E1
8.880941542E0,4.338428192E0,-1.224887833E1,-2.989283752E0,1.333389653E1
8.891020542E0,6.952592010E0,-1.339414673E1,-9.144034882E0,1.764525648E1
8.901099542E0,7.865693207E0,-1.441158096E1,-9.639654236E0,1.903905799E1
8.911178542E0,6.828050995E0,-1.431787582E1,-7.176676025E0,1.741058664E1
8.921257542E0,6.460714874E0,-1.356509125E1,-6.459667053E0,1.635481078E1
8.931337542E0,6.455625458E0,-1.275767029E1,-3.953578491E0,1.483455541E1
8.941416542E0,5.864355011E0,-1.154399414E1,-1.520837402E-1,1.294903818E1
8.951495542E0,4.412823486E0,-1.057610687E1,1.583407288E0,1.156867436E1
8.961574542E0,5.492528229E0,-1.066307602E1,1.505120087E0,1.208860798E1
8.971653542E0,8.020171967E0,-1.146615601E1,1.882185974E0,1.411872926E1
8.981732542E0,7.743696899E0,-1.125838806E1,1.950444031E0,1.380291184E1
8.991811542E0,6.428681488E0,-1.131003067E1,2.566413116E0,1.326013634E1
9.001890542E0,6.198011169E0,-1.197135544E1,4.323758698E0,1.415710361E1
9.011969542E0,6.729256439E0,-1.224992615E1,3.325334930E0,1.436667795E1
9.022048542E0,5.301375732E0,-1.177990356E1,1.909728699E0,1.305824553E1
9.032127542E0,4.095333710E0,-1.050680099E1,1.408271484E0,1.136432373E1
9.042207542E0,3.253783722E0,-9.311386871E0,1.195414124E0,9.935695693E0
9.052286542E0,2.013013916E0,-8.123906250E0,7.050338745E-1,8.399235117E0
9.062365542E0,8.731343079E-1,-6.996450806E0,4.007167053E-1,7.062100344E0
9.072444542E0,3.502716064E-2,-6.097719727E0,1.658551025E-1,6.100075465E0
9.082523542E0,-5.204676819E-1,-5.559588776E0,-3.213816833E-1,5.593138667E0
9.092602542E0,-9.598040771E-1,-4.948709106E0,-7.851173401E-1,5.101701179E0
9.102681542E0,-1.035247192E0,-4.025878143E0,-1.001417542E0,4.275776966E0
9.112760542E0,-8.496331787E-1,-3.281176758E0,-1.059047699E0,3.550996970E0
9.122839542E0,-1.592687988E-1,-2.858455811E0,-1.120120697E0,3.074216412E0
9.132918542E0,7.339237976E-1,-2.790197754E0,-1.469793549E0,3.237922285E0
9.142997542E0,1.520238647E0,-3.048560486E0,-2.031275940E0,3.966223459E0
9.153077542E0,2.054328003E0,-3.838767242E0,-2.569406891E0,5.055516715E0
9.163156542E0,2.980152740E0,-4.852758636E0,-3.007396088E0,6.440109313E0
9.173235542E0,3.896696777E0,-6.073919220E0,-3.412304077E0,7.982515868E0
9.183314542E0,4.397255859E0,-7.669451294E0,-3.160976715E0,9.388722812E0
9.193393542E0,5.054688721E0,-9.639205170E0,-2.365680542E0,1.113824936E1
9.203472542E0,6.309529266E0,-1.237147339E1,-1.455573120E0,1.396360292E1
9.213551542E0,8.244555359E0,-1.561193481E1,4.706213379E-1,1.766144632E1
9.223630542E0,9.868378601E0,-1.852981705E1,1.658850403E0,2.105922127E1
9.233709292E0,9.275162201E0,-1.989363098E1,8.057743835E-1,2.196439072E1
9.243788292E0,6.863976288E0,-1.959500198E1,-9.865983582E-1,2.078585215E1
9.253867292E0,5.987997894E0,-1.860526016E1,-2.371518402E0,1.968847186E1
9.263947292E0,5.522166595E0,-1.652847885E1,-2.928809509E0,1.767096099E1
9.274026292E0,5.166356506E0,-1.311677353E1,-2.490670624E0,1.431588026E1
9.284105292E0,4.780159607E0,-9.828411713E0,-1.191971283E0,1.099401647E1
9.294184292E0,3.519181824E0,-7.357050934E0,5.179229736E-1,8.171846998E0
9.304263292E0,1.899549866E-1,-5.464237061E0,2.450104980E0,5.991409180E0
9.314342292E0,-4.129911804E-1,-4.919669495E0,2.481389923E0,5.525486911E0
9.324421292E0,1.830693054E-1,-5.412295074E0,7.786807251E-1,5.471087279E0
9.334500292E0,-1.262025604E0,-5.963299255E0,2.598446503E0,6.626127894E0
9.344579292E0,-1.286424866E0,-5.980663147E0,3.443439331E0,7.020006769E0
9.354658292E0,1.897603912E0,-5.768554230E0,3.279380493E0,6.901554530E0
9.364737292E0,5.657485199E0,-5.674549713E0,4.940925293E0,9.413840660E0
9.374817292E0,8.688981171E0,-6.249803467E0,5.677543488E0,1.211581352E1
9.384896292E0,9.963730316E0,-6.606511688E0,4.285588074E0,1.269992849E1
9.394975292E0,9.105115814E0,-7.365134125E0,1.847458191E0,1.185586085E1
9.405054292E0,7.364685059E0,-9.799222412E0,-8.652008057E-2,1.225850038E1
9.415133292E0,5.436394958E0,-1.201371735E1,-6.409671021E-1,1.320206929E1
9.425212292E0,4.769531708E0,-1.349833008E1,3.622467041E-2,1.431623763E1
9.435291292E0,4.599784698E0,-1.401640274E1,-7.604187012E-2,1.475206248E1
9.445370292E0,4.766388245E0,-1.271964935E1,-1.606908417E0,1.367808800E1
9.455449292E0,4.789290619E0,-1.052506302E1,-3.193010101E0,1.199623148E1
9.465528292E0,4.438120880E0,-8.862021332E0,-4.058659973E0,1.071004481E1
9.475607292E0,4.415368195E0,-8.017477570E0,-4.406536560E0,1.015839492E1
9.485686292E0,4.699327698E0,-8.173602905E0,-4.329297180E0,1.037469418E1
9.495766292E0,4.729265442E0,-8.551267548E0,-3.665128326E0,1.043663231E1
9.505845292E0,4.231251068E0,-8.693471832E0,-1.506317596E0,9.785138262E0
9.515924292E0,3.507206726E0,-8.586594086E0,8.330177307E-1,9.312572982E0
9.526003292E0,3.478915558E0,-8.428522797E0,3.028651886E0,9.608099825E0
9.536082292E0,4.076023865E0,-8.232280884E0,4.502337341E0,1.023012515E1
9.546161292E0,5.159321136E0,-6.910230103E0,4.118385773E0,9.556724127E0
9.556240292E0,5.977669373E0,-7.810308380E0,2.946472778E0,1.026718803E1
9.566319292E0,4.615202637E0,-1.011461655E1,4.439767456E-1,1.112666521E1
9.576398292E0,2.447859650E0,-1.101155136E1,-1.679657135E0,1.140471518E1
9.586477292E0,1.022224274E0,-1.000175125E1,-2.166744232E0,1.028468527E1
9.596556292E0,1.294208679E0,-8.563392334E0,-1.729802856E0,8.831697588E0
9.606636292E0,2.249522095E0,-7.713759155E0,-6.584806824E-1,8.062011335E0
9.616715292E0,4.187841339E0,-7.222780151E0,5.354365540E-1,8.366197493E0
9.626794292E0,6.623127136E0,-7.341632996E0,1.231339417E0,9.964014495E0
9.636873292E0,8.576864319E0,-7.896978149E0,1.980232086E0,1.182565789E1
9.646952292E0,9.027127991E0,-9.117240601E0,2.276316376E0,1.303053077E1
9.657031292E0,7.689659271E0,-9.482780457E0,1.663041687E0,1.232151340E1
9.667110292E0,6.134842529E0,-8.554411011E0,1.157542877E0,1.059028546E1
9.677189292E0,5.400020599E0,-8.211174774E0,1.582359467E0,9.954269191E0
9.687268292E0,4.657714233E0,-8.865763550E0,1.901645508E0,1.019373930E1
9.697347292E0,4.476740570E0,-9.269923096E0,1.855840759E0,1.046024977E1
9.707426292E0,4.285139008E0,-9.423503723E0,1.747466125E0,1.049849878E1
9.717505292E0,3.837270355E0,-9.212742004E0,1.957329712E0,1.017007368E1
9.727585292E0,4.922962646E0,-8.933871918E0,3.086731110E0,1.065727628E1
9.737664292E0,5.559888153E0,-9.432035980E0,4.509971466E0,1.184126267E1
9.747743292E0,4.628375244E0,-1.168110901E1,5.160368958E0,1.358306198E1
9.757822292E0,2.966980133E0,-1.389934616E1,5.487139435E0,1.523494319E1
9.767901292E0,9.580078125E-1,-1.405142990E1,6.255491638E0,1.541076367E1
9.777980292E0,-4.279600525E-1,-1.148816025E1,5.685177612E0,1.282506219E1
9.788059292E0,-5.884263611E-1,-7.926466827E0,3.300187225E0,8.606181364E0
9.798138292E0,9.533674622E-1,-5.280718689E0,3.035687256E-1,5.374667744E0
9.808217292E0,3.984863434E0,-1.184187469E0,3.011737061E-1,4.167990181E0
9.818296292E0,1.816622314E0,-2.869083710E0,2.649640045E0,4.307243937E0
9.828375292E0,-1.883084106E0,-8.407566376E0,4.039799194E0,9.515942184E0
9.838455292E0,-3.189417572E0,-1.044063858E1,2.318678284E0,1.116044746E1
9.848534292E0,-3.110381927E0,-1.172242310E1,-9.663903809E-1,1.216649454E1
9.858613292E0,-7.412585449E-1,-1.166419418E1,-3.641776886E0,1.224195365E1
9.868692292E0,1.645528107E0,-1.108070755E1,-4.680317230E0,1.214064298E1
9.878771292E0,1.791474609E0,-1.289134232E1,-4.619693298E0,1.381078036E1
9.888850292E0,8.155041504E-1,-1.408241547E1,-2.356998596E0,1.430157036E1
9.898929292E0,4.873864746E-1,-1.313368835E1,1.385668488E0,1.321557386E1
9.909008292E0,-2.351609802E-1,-1.150193161E1,3.965104523E0,1.216847506E1
9.919087292E0,-1.510059814E0,-1.111109436E1,3.326233063E0,1.169617565E1
9.929166292E0,-1.800006866E0,-1.137634277E1,1.044976959E0,1.156517084E1
9.939245292E0,-6.538403320E-1,-1.167302582E1,-7.798782349E-2,1.169158334E1
9.949324292E0,-5.278024292E-1,-1.076187057E1,-7.415579224E-1,1.080029360E1
9.959404292E0,-1.279688873E0,-1.070992859E1,-7.626640320E-1,1.081303983E1
9.969483292E0,-2.356100464E0,-1.036339920E1,-3.388952637E-1,1.063325455E1
9.979562292E0,-3.555107117E0,-9.572294312E0,-7.279362488E-1,1.023706482E1
9.989641292E0,-4.913232880E0,-9.337133331E0,-2.022743683E0,1.074306326E1