"Time (s)","Acceleration x (m/s^2)","Acceleration y (m/s^2)","Acceleration z (m/s^2)","Absolute acceleration (m/s^2)"
-2.178625000E-3,6.235433350E0,-8.080795898E0,-1.232387238E0,1.028098583E1
7.830375000E-3,5.921685791E0,-7.909552002E0,-1.188378754E0,9.951865129E0
1.783837500E-2,5.668412476E0,-7.692353668E0,-9.482780457E-1,9.602209964E0
2.784637500E-2,5.707181854E0,-7.475005646E0,-6.894662476E-1,9.429899142E0
3.785437500E-2,5.755381622E0,-7.199428711E0,-5.357359314E-1,9.232724645E0
4.786237500E-2,5.815107422E0,-6.920558624E0,-3.897894287E-1,9.047736833E0
5.787137500E-2,6.078858948E0,-6.790628815E0,-2.769241333E-1,9.118215438E0
6.787937500E-2,6.494095459E0,-6.796017609E0,-4.586462402E-1,9.411136358E0
7.788737500E-2,6.994504852E0,-6.975494385E0,-8.637039185E-1,9.915977234E0
8.789537500E-2,7.776478729E0,-7.188651123E0,-1.138682098E0,1.065114657E1
9.790337500E-2,8.649463348E0,-7.560178528E0,-1.530716858E0,1.158933172E1
1.079123750E-1,9.535021820E0,-7.997419281E0,-1.857038269E0,1.258268443E1
1.179203750E-1,1.027433441E1,-8.159981232E0,-2.160756683E0,1.329722192E1
1.279283750E-1,1.088581284E1,-8.150550842E0,-2.498903503E0,1.382667418E1
1.379363750E-1,1.120494919E1,-7.918832703E0,-2.606529694E0,1.396613027E1
1.479443750E-1,1.117411331E1,-7.554041290E0,-2.348316650E0,1.369083413E1
1.579533750E-1,1.102487366E1,-7.229965210E0,-2.082768860E0,1.334759013E1
1.679613750E-1,1.084315155E1,-6.879693604E0,-1.737886047E0,1.295856348E1
1.779693750E-1,1.060290115E1,-6.481671295E0,-1.258133698E0,1.249065555E1
1.879773750E-1,1.039213943E1,-6.149811401E0,-7.780819702E-1,1.210050222E1
1.979853750E-1,1.023766068E1,-5.948779449E0,-5.385800171E-1,1.185275248E1
2.079943750E-1,1.012689102E1,-5.849236450E0,-2.829116821E-1,1.169818481E1
2.180023750E-1,1.011910721E1,-5.701493683E0,-2.492317200E-1,1.161746433E1
2.280103750E-1,9.739047546E0,-5.896388397E0,-9.894424438E-2,1.138535169E1
2.380183750E-1,9.330097961E0,-5.976920929E0,2.547702026E-1,1.108328560E1
2.480263750E-1,9.036708069E0,-5.799090729E0,3.939807129E-1,1.074461571E1
2.580353750E-1,8.733738098E0,-5.886808319E0,5.535488892E-1,1.054699529E1
2.680433750E-1,8.431217194E0,-6.240223389E0,7.641609192E-1,1.051711715E1
2.780513750E-1,8.139773254E0,-6.360273743E0,8.280780029E-1,1.036314160E1
2.880593750E-1,7.809260559E0,-6.265071716E0,9.000782776E-1,1.005215474E1
2.980673750E-1,7.575596466E0,-6.257736969E0,8.779243469E-1,9.865073996E0
3.080763750E-1,7.386539612E0,-6.239325256E0,7.569758606E-1,9.698616373E0
3.180843750E-1,7.240892487E0,-6.140530701E0,7.186555481E-1,9.521192524E0
3.280923750E-1,7.084916840E0,-6.048472137E0,7.435038757E-1,9.345205179E0
3.381003750E-1,6.994355164E0,-5.886658630E0,7.484436035E-1,9.172454514E0
3.481083750E-1,7.044201508E0,-5.751340027E0,6.948550415E-1,9.120389822E0
3.581173750E-1,7.145241394E0,-5.671555939E0,6.743476868E-1,9.147445881E0
3.681253750E-1,7.165599060E0,-5.499862976E0,7.057823181E-1,9.060487367E0
3.781333750E-1,7.231911163E0,-5.372926941E0,6.822811890E-1,9.035175184E0
3.881413750E-1,7.394323425E0,-5.350623322E0,5.655239868E-1,9.144670920E0
3.981493750E-1,7.678133240E0,-5.330864410E0,5.026547241E-1,9.360796290E0
4.081573750E-1,7.956254883E0,-5.282514954E0,4.495152283E-1,9.560806448E0
4.181663750E-1,8.262368317E0,-5.334906006E0,3.963757324E-1,9.843021183E0
4.281743750E-1,8.592581635E0,-5.454058228E0,3.192860413E-1,1.018239431E1
4.381823333E-1,8.856333160E0,-5.572611694E0,3.065625000E-1,1.046817170E1
4.481903333E-1,9.225465546E0,-5.792504425E0,4.252656555E-1,1.090152159E1
4.581993333E-1,9.694739685E0,-6.041287079E0,5.065466309E-1,1.143423441E1
4.682073333E-1,1.025173141E1,-6.277046814E0,4.930746460E-1,1.203089508E1
4.782153333E-1,1.070424042E1,-6.394253082E0,5.728587341E-1,1.248180286E1
4.882233333E-1,1.104418350E1,-6.403533783E0,7.478448486E-1,1.278821747E1
4.982313333E-1,1.135538635E1,-6.519243164E0,8.937913513E-1,1.312418354E1
5.082403333E-1,1.176493469E1,-6.890321503E0,1.034798126E0,1.367336922E1
5.182483333E-1,1.235874985E1,-7.447163544E0,1.196461945E0,1.447862092E1
5.282563333E-1,1.303968384E1,-8.052654419E0,1.208137665E0,1.537329485E1
5.382643333E-1,1.364292938E1,-8.527467041E0,1.177451477E0,1.613175775E1
5.482723333E-1,1.400936737E1,-8.660989380E0,1.180894318E0,1.651271094E1
5.582813333E-1,1.407059006E1,-8.512947235E0,1.305435333E0,1.649714935E1
5.682893333E-1,1.381956207E1,-8.210126953E0,1.486858063E0,1.614302411E1
5.782973333E-1,1.340387650E1,-7.853718109E0,1.677411804E0,1.562557210E1
5.883053333E-1,1.304776703E1,-7.590265961E0,1.761836243E0,1.519738230E1
5.983133333E-1,1.271396118E1,-7.436835022E0,1.721869354E0,1.482957040E1
6.083213333E-1,1.231144821E1,-7.338788910E0,1.681752777E0,1.443114244E1
6.183303333E-1,1.182406174E1,-7.274123383E0,1.560804291E0,1.396987534E1
6.283383333E-1,1.136661301E1,-7.272476807E0,1.338366852E0,1.356023731E1
6.383463333E-1,1.099373840E1,-7.397616577E0,1.094074860E0,1.329601500E1
6.483543333E-1,1.067190765E1,-7.611372070E0,9.451345825E-1,1.314214127E1
6.583623333E-1,1.036339920E1,-7.784412231E0,7.336244202E-1,1.298211545E1
6.683713333E-1,1.007240433E1,-7.959548035E0,4.971162415E-1,1.284736776E1
6.783793333E-1,9.823921051E0,-8.146509247E0,4.607418823E-1,1.277056462E1
6.883873333E-1,9.503587189E0,-8.268355865E0,5.273533630E-1,1.260801252E1
6.983953333E-1,9.200018463E0,-8.388256531E0,5.575904846E-1,1.246250755E1
7.084033333E-1,8.932674408E0,-8.485554199E0,6.007008362E-1,1.233523991E1
7.184123333E-1,8.616382141E0,-8.500223694E0,6.921606445E-1,1.212332176E1
7.284203333E-1,8.283773804E0,-8.444389801E0,7.679031372E-1,1.185404162E1
7.384283333E-1,7.983348541E0,-8.334218903E0,7.646099854E-1,1.156623046E1
7.484363333E-1,7.718998260E0,-8.187224579E0,7.807763672E-1,1.127932587E1
7.584443333E-1,7.461234283E0,-8.036488037E0,7.458988953E-1,1.099142949E1
7.684533333E-1,7.297624512E0,-7.922874298E0,6.619235229E-1,1.079191380E1
7.784613333E-1,7.136409760E0,-7.790699158E0,5.263055420E-1,1.057829547E1
7.884693333E-1,6.976242828E0,-7.637118530E0,4.486170959E-1,1.035349220E1
7.984773333E-1,6.887926483E0,-7.482639771E0,4.255650330E-1,1.017912250E1
8.084853333E-1,6.902146912E0,-7.393275604E0,3.444337463E-1,1.012021693E1
8.184943333E-1,6.930438080E0,-7.342082062E0,2.353106689E-1,1.009913422E1
8.285023333E-1,6.979835358E0,-7.280859375E0,1.386117554E-1,1.008703267E1
8.385103333E-1,7.079078979E0,-7.219936066E0,1.562750244E-1,1.011262863E1
8.485183333E-1,7.187453613E0,-7.154372406E0,1.187031555E-1,1.014192410E1
8.585263333E-1,7.264842682E0,-7.095844116E0,6.900650024E-2,1.015547659E1
8.685353333E-1,7.326514435E0,-7.022346954E0,4.879852295E-2,1.014857388E1
8.785433333E-1,7.373217316E0,-6.952292633E0,4.685256958E-2,1.013414533E1
8.885513333E-1,7.404951324E0,-6.915020142E0,3.832031250E-2,1.013174596E1
8.985593333E-1,7.398514709E0,-6.870562592E0,4.685256958E-2,1.009677401E1
9.085673333E-1,7.351662140E0,-6.742878113E0,7.723937988E-2,9.975936416E0
9.185763333E-1,7.246131592E0,-6.607709198E0,1.354682922E-1,9.807476513E0
9.285843333E-1,7.122788086E0,-6.473288727E0,3.013233948E-1,9.629557251E0
9.385923333E-1,6.997498627E0,-6.354735260E0,4.442761230E-1,9.462823497E0
9.486003333E-1,6.882837067E0,-6.316564636E0,5.189707947E-1,9.356375665E0
9.586083333E-1,6.777007141E0,-6.310128021E0,6.117778015E-1,9.280076159E0
9.686173333E-1,6.663992157E0,-6.334078217E0,7.442523193E-1,9.224058209E0
9.786253333E-1,6.521787872E0,-6.354735260E0,8.572673035E-1,9.146107615E0
9.886333333E-1,6.410419464E0,-6.457421722E0,8.884025574E-1,9.142266246E0
9.986413333E-1,6.321803741E0,-6.594835968E0,8.626560974E-1,9.176123339E0
1.008649333E0,6.289770355E0,-6.773863678E0,8.539741516E-1,9.283087423E0
1.018658333E0,6.312972107E0,-6.987918549E0,9.199868774E-1,9.462082134E0
1.028666333E0,6.337371368E0,-7.156617737E0,8.701405334E-1,9.598781060E0
1.038674333E0,6.365213470E0,-7.270381165E0,7.833210754E-1,9.694739641E0
1.048682333E0,6.361022186E0,-7.379653931E0,7.303312683E-1,9.770121757E0
1.058690333E0,6.320606232E0,-7.436086578E0,6.797364807E-1,9.783020414E0
1.068699333E0,6.329138489E0,-7.437882843E0,6.330335999E-1,9.786767941E0
1.078707333E0,6.326593781E0,-7.426656189E0,5.289999390E-1,9.770406949E0
1.088715333E0,6.312672729E0,-7.454348602E0,3.995191956E-1,9.776337027E0
1.098723333E0,6.283184052E0,-7.588469696E0,2.805166626E-1,9.856062284E0
1.108731333E0,6.377637634E0,-7.881859589E0,1.062789917E-1,1.013949050E1
1.118739333E0,6.585405579E0,-8.315657501E0,-1.010398865E-1,1.060791852E1
1.128748333E0,6.756499786E0,-8.776848450E0,-3.529660034E-1,1.108187453E1
1.138756333E0,6.759194183E0,-9.009165344E0,-5.284011841E-1,1.127523720E1
1.148764333E0,6.588549042E0,-8.929980011E0,-4.917274475E-1,1.110834449E1
1.158772333E0,6.322402496E0,-8.652457123E0,-4.174818420E-1,1.072436845E1
1.168780333E0,5.972579956E0,-8.250991974E0,-2.261796570E-1,1.018831375E1
1.178789333E0,5.654042358E0,-7.771688690E0,8.427474976E-2,9.611162381E0
1.188797333E0,5.511089630E0,-7.305108948E0,3.062631226E-1,9.155900980E0
1.198805333E0,5.525759125E0,-6.903943176E0,3.829037476E-1,8.851274516E0
1.208813333E0,5.524262238E0,-6.584956512E0,4.504133606E-1,8.607089969E0
1.218821333E0,5.665568390E0,-6.371650085E0,5.342390442E-1,8.542950389E0
1.228830333E0,5.867199097E0,-6.204447784E0,4.529580688E-1,8.551278768E0
1.238838333E0,6.149811401E0,-6.177952881E0,2.242337036E-1,8.719951997E0
1.248846333E0,6.587201843E0,-6.348897400E0,-5.658233643E-2,9.148930423E0
1.258854333E0,7.171436920E0,-6.671775970E0,-3.254232788E-1,9.800408278E0
1.268862333E0,7.795189819E0,-6.912924500E0,-5.345384216E-1,1.043260470E1
1.278871333E0,8.490942993E0,-7.127578125E0,-8.132588196E-1,1.111574886E1
1.288879333E0,9.231752472E0,-7.355254669E0,-1.118025055E0,1.185643306E1
1.298887333E0,9.832453308E0,-7.382048950E0,-1.415157166E0,1.237636678E1
1.308895333E0,1.022014709E1,-7.272177429E0,-1.651665344E0,1.265163901E1
1.318903333E0,1.029424301E1,-7.026538239E0,-1.691931610E0,1.257800904E1
1.328912333E0,1.016685791E1,-6.742728424E0,-1.603615265E0,1.230451008E1
1.338920333E0,9.975555725E0,-6.461463318E0,-1.508862305E0,1.198077150E1
1.348928333E0,9.797426147E0,-6.113586731E0,-1.324146423E0,1.162406407E1
1.358936333E0,9.608968048E0,-5.840554504E0,-1.124461670E0,1.130082997E1
1.368944333E0,9.466763763E0,-5.755830688E0,-9.630972290E-1,1.112100532E1
1.378953333E0,9.414971466E0,-5.835315399E0,-8.062234497E-1,1.110597091E1
1.388961333E0,9.376202087E0,-5.868995361E0,-6.012995911E-1,1.107789842E1
1.398969333E0,9.254355469E0,-5.902226257E0,-4.162843323E-1,1.098420059E1
1.408977333E0,9.013955383E0,-6.046376495E0,-2.868035889E-1,1.085782283E1
1.418985333E0,8.799900513E0,-6.136189728E0,-3.891906738E-2,1.072812137E1
1.428994333E0,8.482410736E0,-6.291117554E0,3.210823059E-1,1.056563040E1
1.439002875E0,8.286019135E0,-6.103557587E0,3.347039795E-1,1.029677401E1
1.449010875E0,8.180338898E0,-6.230792999E0,3.885919189E-1,1.029037072E1
1.459018875E0,8.060887299E0,-6.360273743E0,4.805007935E-1,1.027919584E1
1.469026875E0,8.054600372E0,-6.307733002E0,4.802014160E-1,1.024181020E1
1.479035875E0,8.087531891E0,-6.434818726E0,5.282514954E-1,1.034862859E1
1.489043875E0,7.951315155E0,-6.468798065E0,6.463558960E-1,1.027066390E1
1.499051875E0,7.899522858E0,-6.235283661E0,6.640191650E-1,1.008573969E1
1.509059875E0,7.947572937E0,-6.190826111E0,7.367678833E-1,1.010114204E1
1.519067875E0,7.951015778E0,-6.178701324E0,7.952961731E-1,1.010086620E1
1.529075875E0,8.027656403E0,-6.076463928E0,8.126600647E-1,1.010084638E1
1.539084875E0,8.117769012E0,-6.029761047E0,8.168513489E-1,1.014511893E1
1.549092875E0,8.197702789E0,-6.006858673E0,8.780740356E-1,1.020076939E1
1.559100875E0,8.305179291E0,-5.979914703E0,8.831634521E-1,1.027206701E1
1.569108875E0,8.448431396E0,-5.948629761E0,7.924520874E-1,1.036292282E1
1.579116875E0,8.687783661E0,-5.961502991E0,7.605683899E-1,1.056388031E1
1.589125875E0,8.919950867E0,-5.950875092E0,8.186476135E-1,1.075400492E1
1.599133875E0,9.162895660E0,-5.948480072E0,8.060737610E-1,1.095412374E1
1.609141875E0,9.511371002E0,-6.007756805E0,7.306306458E-1,1.127355939E1
1.619149875E0,9.908046112E0,-6.047274628E0,6.119274902E-1,1.162382740E1
1.629157875E0,1.028765671E1,-6.094725952E0,5.798941040E-1,1.197154301E1
1.639166875E0,1.061981598E1,-6.165828094E0,6.595285034E-1,1.229767886E1
1.649174875E0,1.092188782E1,-6.173761597E0,7.491920471E-1,1.256838313E1
1.659182875E0,1.112321915E1,-6.073470154E0,7.836204529E-1,1.269752357E1
1.669190875E0,1.120450012E1,-5.911956024E0,8.898994446E-1,1.269976252E1
1.679198875E0,1.127859604E1,-5.770500183E0,1.112037506E0,1.271778394E1
1.689207875E0,1.142499161E1,-5.771098938E0,1.242566071E0,1.286001503E1
1.699215875E0,1.169862259E1,-6.086493073E0,1.249152374E0,1.324626551E1
1.709223875E0,1.217448303E1,-6.731052704E0,1.211730194E0,1.396400364E1
1.719231875E0,1.273851013E1,-7.516319733E0,1.159039764E0,1.483603976E1
1.729239875E0,1.326511505E1,-8.275091858E0,1.001267853E0,1.566661929E1
1.739248875E0,1.370789429E1,-8.785680084E0,8.306227112E-1,1.630289773E1
1.749256875E0,1.392643982E1,-8.906029816E0,7.565267944E-1,1.654797347E1
1.759264875E0,1.381357452E1,-8.663234711E0,8.473878479E-1,1.632741691E1
1.769272875E0,1.334175568E1,-8.192763062E0,1.065334625E0,1.569263359E1
1.779280875E0,1.263642242E1,-7.661368103E0,1.334025879E0,1.483763317E1
1.789289875E0,1.194920151E1,-7.173682251E0,1.468895416E0,1.401437788E1
1.799297875E0,1.136601425E1,-6.857389984E0,1.518143005E0,1.336094441E1
1.809305875E0,1.087563400E1,-6.759942627E0,1.561103668E0,1.290012728E1
1.819313875E0,1.050006500E1,-6.834188232E0,1.418600006E0,1.260832740E1
1.829321875E0,1.026999344E1,-7.089856567E0,1.277443542E0,1.254474764E1
1.839330875E0,1.008916946E1,-7.414082336E0,1.121318207E0,1.257049370E1
1.849338875E0,9.886940002E0,-7.769143982E0,9.638456726E-1,1.261111333E1
1.859346875E0,9.670789490E0,-8.106692047E0,8.675958252E-1,1.264892675E1
1.869354875E0,9.482032013E0,-8.457861786E0,8.430468750E-1,1.273401292E1
1.879362875E0,9.316625977E0,-8.844358063E0,8.060737610E-1,1.287136139E1
1.889371875E0,9.065148926E0,-9.258097687E0,8.484356689E-1,1.298495826E1
1.899379875E0,8.900790710E0,-9.525741119E0,9.150471497E-1,1.306909065E1
1.909387875E0,8.737031250E0,-9.559570770E0,9.446855164E-1,1.298512761E1
1.919395875E0,8.437204742E0,-9.549092560E0,1.137185211E0,1.279315375E1
1.929403875E0,8.130941620E0,-9.446705475E0,1.277593231E0,1.252935355E1
1.939412875E0,7.877518616E0,-9.280850372E0,1.304836578E0,1.224304217E1
1.949420875E0,7.624694366E0,-9.091793518E0,1.260379028E0,1.193252818E1
1.959428875E0,7.355554047E0,-8.877289581E0,1.195414124E0,1.159049009E1
1.969436875E0,7.148534546E0,-8.684789886E0,1.142274628E0,1.130627759E1
1.979444875E0,7.030130768E0,-8.496930542E0,1.108295288E0,1.108372165E1
1.989453875E0,6.921307068E0,-8.310568085E0,1.005758514E0,1.086193277E1
1.999461875E0,6.833739166E0,-8.172555084E0,8.729846191E-1,1.068890779E1
2.009469875E0,6.821015625E0,-8.051307220E0,6.894662476E-1,1.057474188E1
2.019477875E0,6.822811890E0,-7.914342041E0,5.520520020E-1,1.046385844E1
2.029485875E0,6.906188507E0,-7.821535034E0,4.053570557E-1,1.044203832E1
2.039494875E0,7.015012207E0,-7.746690674E0,2.613565063E-1,1.045418193E1
2.049502875E0,7.090605011E0,-7.614216156E0,1.911524963E-1,1.040622441E1
2.059510875E0,7.156168671E0,-7.501051483E0,1.453477478E-1,1.036810732E1
2.069518875E0,7.221283264E0,-7.396119690E0,1.290316772E-1,1.033760938E1
2.079526875E0,7.295977936E0,-7.261998596E0,1.067280579E-1,1.029462523E1
2.089535875E0,7.370223541E0,-7.093299408E0,1.577719116E-1,1.023034621E1
2.099543875E0,7.369624786E0,-6.871161346E0,2.359094238E-1,1.007868449E1
2.109551875E0,7.273674316E0,-6.613247681E0,3.037184143E-1,9.835325507E0
2.119559875E0,7.141199799E0,-6.368057556E0,3.647914124E-1,9.575069941E0
2.129567875E0,7.022197266E0,-6.157146149E0,4.354444885E-1,9.349401854E0
2.139576875E0,6.918313293E0,-6.014642487E0,4.782554626E-1,9.179744624E0
2.149584875E0,6.867119751E0,-5.927972717E0,4.858895874E-1,9.084838078E0
2.159592875E0,6.774312744E0,-5.842949524E0,4.559518433E-1,8.957637210E0
2.169600875E0,6.651418304E0,-5.871091003E0,4.593946838E-1,8.883812161E0
2.179608875E0,6.561605072E0,-5.977070618E0,5.342390442E-1,8.891875260E0
2.189616875E0,6.482419739E0,-6.113137665E0,6.050418091E-1,8.930749877E0
2.199625875E0,6.343957672E0,-6.250701599E0,6.424639893E-1,8.929156142E0
2.209633875E0,6.196813660E0,-6.414610748E0,6.864724731E-1,8.945332584E0
2.219641875E0,6.068380737E0,-6.558760986E0,7.424560547E-1,8.966260728E0
2.229649875E0,5.927523651E0,-6.668482819E0,7.717950439E-1,8.955437863E0
2.239657875E0,5.829627228E0,-6.754404144E0,7.328759766E-1,8.952297814E0
2.249666875E0,5.716911621E0,-6.777306519E0,7.041357422E-1,8.894423493E0
2.259674875E0,5.603148193E0,-6.751260681E0,6.518943787E-1,8.797713154E0
2.269682875E0,5.495671692E0,-6.724017334E0,5.528004456E-1,8.701747226E0
2.279690875E0,5.362149353E0,-6.700216827E0,3.754193115E-1,8.589906337E0
2.289698875E0,5.265600128E0,-6.731352081E0,1.603166199E-1,8.547710043E0
2.299707875E0,5.208868103E0,-6.898704071E0,-4.251159668E-2,8.644433585E0
2.309715875E0,5.290897522E0,-7.278464355E0,-2.613565063E-1,9.002107930E0
2.319723875E0,5.457950134E0,-7.769443359E0,-5.225633240E-1,9.509287156E0
2.329731875E0,5.491031342E0,-8.137976990E0,-7.372169495E-1,9.844876003E0
2.339739875E0,5.439837799E0,-8.298293610E0,-8.180488586E-1,9.956039175E0
2.349748875E0,5.293142853E0,-8.255482635E0,-8.322692871E-1,9.841901593E0
2.359756875E0,5.078489227E0,-8.055797882E0,-7.722441101E-1,9.554229080E0
2.369764875E0,4.886737976E0,-7.814050598E0,-5.948629761E-1,9.235445672E0
2.379772875E0,4.836143188E0,-7.501799927E0,-4.126918030E-1,8.935076810E0
2.389780875E0,4.954996033E0,-7.203170929E0,-2.874023438E-1,8.747585794E0
2.399789875E0,5.167404327E0,-6.959028625E0,-1.910028076E-1,8.669869028E0
2.409797875E0,5.409001923E0,-6.801256714E0,-1.577719116E-1,8.691333998E0
2.419805875E0,5.715863800E0,-6.866221619E0,-2.100132751E-1,8.936453652E0
2.429813875E0,6.196214905E0,-7.152127075E0,-2.630030823E-1,9.466529008E0
2.439821125E0,6.811734924E0,-7.521409149E0,-3.655398560E-1,1.015406065E1
2.449830125E0,7.573500824E0,-7.995323639E0,-5.665718079E-1,1.102742574E1
2.459838125E0,8.391250305E0,-8.509504395E0,-8.246351624E-1,1.197934764E1
2.469846125E0,9.278455353E0,-8.984766083E0,-9.538165283E-1,1.295088882E1
2.479854125E0,1.021835083E1,-9.303153992E0,-1.088835754E0,1.386177951E1
2.489862125E0,1.103684875E1,-9.368118896E0,-1.217418365E0,1.452775928E1
2.499871125E0,1.164593216E1,-9.177265778E0,-1.323098602E0,1.488625315E1
2.509879125E0,1.199246155E1,-8.824748840E0,-1.321901093E0,1.494800149E1
2.519887125E0,1.205742645E1,-8.350385284E0,-1.113085327E0,1.470882137E1
2.529895125E0,1.193677734E1,-7.785759430E0,-8.408015442E-1,1.427626178E1
2.539903125E0,1.171538773E1,-7.157366180E0,-5.628295898E-1,1.374026846E1
2.549912125E0,1.156689651E1,-6.531817017E0,-2.409988403E-1,1.328592522E1
2.559920125E0,1.141481277E1,-6.300997009E0,-2.903961182E-2,1.303845686E1
2.569928125E0,1.108385101E1,-6.332281952E0,-9.879455566E-3,1.276517315E1
2.579936125E0,1.090557175E1,-5.976322174E0,2.163002014E-1,1.243763272E1
2.589944125E0,1.073807007E1,-6.126010895E0,3.165916443E-1,1.236666441E1
2.599953125E0,1.035307068E1,-6.432274017E0,4.394860840E-1,1.219644905E1
2.609961125E0,9.813742218E0,-6.559659119E0,6.857240295E-1,1.182408058E1
2.619969125E0,9.339228973E0,-6.528074799E0,6.665638733E-1,1.141408191E1
2.629977125E0,9.032516785E0,-6.693331146E0,6.277944946E-1,1.125971435E1
2.639985125E0,8.763675842E0,-6.916067963E0,5.593867493E-1,1.117796600E1
2.649994125E0,8.483009491E0,-7.025640106E0,4.555027771E-1,1.102399890E1
2.660002125E0,8.183781738E0,-7.059320068E0,4.007167053E-1,1.081521416E1
2.670010125E0,7.918383636E0,-6.973548431E0,2.186952209E-1,1.055362519E1
2.680018125E0,7.574099579E0,-6.983427887E0,2.927911377E-1,1.030635610E1
2.690026125E0,7.277117157E0,-6.873256989E0,3.610491943E-1,1.001640915E1
2.700035125E0,7.075486450E0,-6.602619781E0,3.847000122E-1,9.685302813E0
2.710043125E0,6.868017883E0,-6.367309113E0,3.957769775E-1,9.373843096E0
2.720051125E0,6.748865662E0,-6.130501556E0,4.664300537E-1,9.129501303E0
2.730059125E0,6.710695038E0,-5.889353027E0,5.520520020E-1,8.945539021E0
2.740067125E0,6.744524689E0,-5.664520569E0,5.436694336E-1,8.824453694E0
2.750076125E0,6.855893097E0,-5.483247528E0,4.799020386E-1,8.792017947E0
2.760084125E0,7.046297150E0,-5.369933167E0,4.803511047E-1,8.872272703E0
2.770092125E0,7.293433228E0,-5.311554565E0,4.562512207E-1,9.034099032E0
2.780100125E0,7.555538177E0,-5.301076355E0,3.411405945E-1,9.236013457E0
2.790108125E0,7.895481262E0,-5.271737366E0,2.642005920E-1,9.497349165E0
2.800117125E0,8.276139679E0,-5.230722656E0,1.712438965E-1,9.792051469E0
2.810125125E0,8.632099457E0,-5.244344330E0,9.804611206E-2,1.010078717E1
2.820133125E0,8.953181763E0,-5.277575226E0,5.328918457E-2,1.039303150E1
2.830141125E0,9.333091736E0,-5.361700287E0,7.005432129E-2,1.076379761E1
2.840149125E0,9.742041321E0,-5.504802704E0,1.498384094E-1,1.119074052E1
2.850158125E0,1.012374756E1,-5.716612244E0,2.538720703E-1,1.162903140E1
2.860166125E0,1.049258057E1,-5.929170227E0,3.603007507E-1,1.205732653E1
2.870174125E0,1.074765015E1,-6.052513733E0,5.346881104E-1,1.234628679E1
2.880182125E0,1.093910202E1,-6.111640778E0,7.822732544E-1,1.255500129E1
2.890190125E0,1.105391327E1,-6.101162567E0,9.951306152E-1,1.266504908E1
2.900199125E0,1.107936035E1,-6.042185211E0,1.254690857E0,1.268205335E1
2.910207125E0,1.098370926E1,-5.928870850E0,1.429078217E0,1.256326563E1
2.920215125E0,1.084584595E1,-5.881419525E0,1.614093475E0,1.244302084E1
2.930223125E0,1.076067307E1,-6.083648987E0,1.779349823E0,1.248875316E1
2.940231125E0,1.087967560E1,-6.626270599E0,1.830842743E0,1.286960716E1
2.950240125E0,1.121602615E1,-7.433392181E0,1.770069122E0,1.357157716E1
2.960248125E0,1.174053543E1,-8.339607697E0,1.578766937E0,1.448729560E1
2.970256125E0,1.223361008E1,-9.006021881E0,1.240171051E0,1.524164262E1
2.980264125E0,1.249556534E1,-9.344019012E0,1.025517426E0,1.563654471E1
2.990272125E0,1.256681717E1,-9.378896484E0,9.452842712E-1,1.570930156E1
3.000281125E0,1.244422211E1,-9.191186829E0,8.976832581E-1,1.549652911E1
3.010289125E0,1.210667404E1,-8.889863434E0,9.885443115E-1,1.505252298E1
3.020297125E0,1.164623154E1,-8.517737274E0,1.165177002E0,1.447564143E1
3.030305125E0,1.126946503E1,-8.124355316E0,1.290915527E0,1.395250709E1
3.040313125E0,1.096035782E1,-7.784861298E0,1.328786774E0,1.350922586E1
3.050322125E0,1.068747528E1,-7.600444794E0,1.351988525E0,1.318395851E1
3.060330125E0,1.038570282E1,-7.556136932E0,1.335223389E0,1.291281727E1
3.070338125E0,1.004381378E1,-7.616162109E0,1.286574554E0,1.267041415E1
3.080346125E0,9.789193268E0,-7.756420441E0,1.187779999E0,1.254596287E1
3.090354125E0,9.615554352E0,-8.034691772E0,1.023421783E0,1.257229293E1
3.100363125E0,9.521100769E0,-8.400680695E0,8.622070313E-1,1.272659408E1
3.110371125E0,9.481732635E0,-8.828041992E0,6.966513062E-1,1.297393164E1
3.120379125E0,9.483379211E0,-9.282047882E0,6.267466736E-1,1.328471699E1
3.130387125E0,9.489666138E0,-9.647438049E0,5.529501343E-1,1.354372837E1
3.140395125E0,9.406139832E0,-9.891580353E0,4.544549561E-1,1.365742866E1
3.150404125E0,9.265731812E0,-1.007958939E1,4.911286926E-1,1.370011371E1
3.160412125E0,9.057664490E0,-1.013647110E1,6.158193970E-1,1.360766570E1
3.170420125E0,8.848848724E0,-1.013841705E1,7.063810730E-1,1.347548138E1
3.180428125E0,8.604107666E0,-1.006911118E1,7.360194397E-1,1.326496865E1
3.190436125E0,8.357720032E0,-9.934541016E0,8.559201050E-1,1.301073359E1
3.200445125E0,8.126600647E0,-9.769733734E0,9.777667236E-1,1.274540557E1
3.210453125E0,7.902217255E0,-9.593101044E0,1.013242950E0,1.246993530E1
3.220461125E0,7.713609467E0,-9.432784424E0,9.909393311E-1,1.222534882E1
3.230469125E0,7.519912262E0,-9.273964691E0,9.759704590E-1,1.197948329E1
3.240477125E0,7.383845215E0,-9.121282196E0,9.271719360E-1,1.177194151E1
3.250486125E0,7.293433228E0,-8.979227600E0,8.238867188E-1,1.159739134E1
3.260494125E0,7.279961243E0,-8.874595184E0,6.743476868E-1,1.149830510E1
3.270502125E0,7.281308441E0,-8.760532379E0,5.614823914E-1,1.140524628E1
3.280510125E0,7.360493774E0,-8.619226227E0,4.668791199E-1,1.134398102E1
3.290518125E0,7.486980743E0,-8.416697388E0,3.773652649E-1,1.127111707E1
3.300527125E0,7.574548645E0,-8.203241272E0,3.363505554E-1,1.117050072E1
3.310535125E0,7.659871216E0,-7.970475311E0,3.668870544E-1,1.106059265E1
3.320543125E0,7.699838104E0,-7.718549194E0,3.854484558E-1,1.090926574E1
3.330551125E0,7.738757172E0,-7.477999420E0,4.082011414E-1,1.076919059E1
3.340559125E0,7.740852814E0,-7.254514160E0,4.290078735E-1,1.061757156E1
3.350568125E0,7.717800751E0,-7.070247345E0,5.342390442E-1,1.048037486E1
3.360576125E0,7.631580048E0,-6.895859985E0,6.153703308E-1,1.030400794E1
3.370584125E0,7.462132416E0,-6.728657684E0,6.448590088E-1,1.006847047E1
3.380592125E0,7.260801086E0,-6.591842194E0,6.864724731E-1,9.830710065E0
3.390600125E0,7.061415710E0,-6.491251373E0,7.393125916E-1,9.620110152E0
3.400609125E0,6.900200958E0,-6.456673279E0,8.117619324E-1,9.484743567E0
3.410617125E0,6.781946869E0,-6.465654602E0,8.333171082E-1,9.407120185E0
3.420625125E0,6.649023285E0,-6.500532074E0,8.178991699E-1,9.334633734E0
3.430633125E0,6.521338806E0,-6.587501221E0,8.217910767E-1,9.305824667E0
3.440641125E0,6.371051331E0,-6.656807098E0,8.276289368E-1,9.251396946E0
3.450651458E0,6.202801208E0,-6.731501770E0,7.905061340E-1,9.187641638E0
3.460659458E0,6.041287079E0,-6.811435547E0,7.553292847E-1,9.135826515E0
3.470667458E0,5.835614777E0,-6.882687378E0,7.147636414E-1,9.051887782E0
3.480675458E0,5.666017456E0,-6.931186523E0,6.409671021E-1,8.975296054E0
3.490683458E0,5.469925232E0,-6.987170105E0,5.535488892E-1,8.890840483E0
3.500692458E0,5.268743591E0,-7.048093414E0,4.827461243E-1,8.812963385E0
3.510700458E0,5.020260315E0,-6.994205475E0,4.135899353E-1,8.619337590E0
3.520708458E0,4.829107819E0,-6.954837341E0,2.884501648E-1,8.471909364E0
3.530716458E0,4.639152832E0,-6.938072205E0,1.513352966E-1,8.347543788E0
3.540724458E0,4.403692474E0,-6.771618347E0,4.041595459E-2,8.077682582E0
3.550733458E0,4.108356628E0,-6.610403595E0,-6.032455444E-2,7.783294221E0
3.560741458E0,3.933220825E0,-6.341862030E0,-2.784210205E-2,7.462587705E0
3.570749458E0,3.897894287E0,-6.011349335E0,-4.191284180E-3,7.164490091E0
3.580757458E0,3.914509735E0,-5.730533295E0,-1.332229614E-2,6.939926209E0
3.590765458E0,3.953279114E0,-5.474565582E0,-3.008743286E-2,6.752791224E0
3.600774458E0,4.018992462E0,-5.273084564E0,-2.514770508E-2,6.630109625E0
3.610782458E0,4.156257019E0,-5.195695496E0,-1.315763855E-1,6.654850595E0
3.620790458E0,4.362827454E0,-5.323230286E0,-3.842509460E-1,6.893380365E0
3.630798458E0,4.676275635E0,-5.683081970E0,-6.818321228E-1,7.391202171E0
3.640807458E0,5.068909149E0,-6.193221130E0,-1.043629761E0,8.070873002E0
3.650815458E0,5.546416168E0,-6.777456207E0,-1.379680939E0,8.865673378E0
3.660823458E0,6.011798401E0,-7.314090271E0,-1.614692230E0,9.604419165E0
3.670831458E0,6.419700165E0,-7.709717560E0,-1.749412079E0,1.018394509E1
3.680839458E0,6.840924225E0,-8.073760529E0,-1.812281342E0,1.073630369E1
3.690848458E0,7.353009338E0,-8.438551941E0,-1.869462433E0,1.134772202E1
3.700856458E0,7.950566711E0,-8.794362030E0,-1.865720215E0,1.200138436E1
3.710864458E0,8.641978912E0,-9.056167603E0,-1.797013092E0,1.264623372E1
3.720872458E0,9.410181427E0,-9.196725311E0,-1.659299469E0,1.326214710E1
3.730880458E0,1.008916946E1,-9.220825195E0,-1.454674988E0,1.374521870E1
3.740889458E0,1.060978683E1,-9.190887451E0,-1.238075409E0,1.409158684E1
3.750897458E0,1.102008362E1,-9.144933014E0,-9.755213928E-1,1.435352517E1
3.760905458E0,1.138667130E1,-9.126521301E0,-6.738986206E-1,1.460834739E1
3.770913458E0,1.168949158E1,-9.134155426E0,-3.689826965E-1,1.483958075E1
3.780921458E0,1.192809540E1,-9.181756439E0,-1.133143616E-1,1.505313759E1
3.790930458E0,1.210772186E1,-9.258546753E0,1.872605896E-1,1.524311921E1
3.800938458E0,1.216714828E1,-9.269174652E0,5.321434021E-1,1.530491009E1
3.810946458E0,1.216146011E1,-9.304052124E0,8.033793640E-1,1.533335959E1
3.820954458E0,1.210308151E1,-9.385183411E0,1.090931396E0,1.535436033E1
3.830962458E0,1.200069443E1,-9.482630768E0,1.397044830E0,1.535866815E1
3.840971458E0,1.192345505E1,-9.524094543E0,1.648072815E0,1.534904887E1
3.850979458E0,1.180415314E1,-9.507329407E0,1.930685120E0,1.527923063E1
3.860987458E0,1.159653488E1,-9.494007111E0,2.147584076E0,1.514027442E1
3.870995458E0,1.134909943E1,-9.496102753E0,2.338736572E0,1.498157916E1
3.881003458E0,1.111723160E1,-9.448651428E0,2.505040741E0,1.480354962E1
3.891012458E0,1.087069427E1,-9.417216797E0,2.613864441E0,1.461807968E1
3.901020458E0,1.055874298E1,-9.461374969E0,2.640209656E0,1.442135142E1
3.911028458E0,1.019155655E1,-9.456884308E0,2.672991486E0,1.415787305E1
3.921036458E0,9.838440857E0,-9.408385162E0,2.804717560E0,1.389888738E1
3.931044458E0,9.548643494E0,-9.372759247E0,2.797532501E0,1.366935977E1
3.941053458E0,9.264983368E0,-9.350605316E0,2.773881683E0,1.345244053E1
3.951061458E0,8.981173553E0,-9.331594849E0,2.779420166E0,1.324633222E1
3.961069458E0,8.640482025E0,-9.264683990E0,2.759661255E0,1.296564805E1
3.971077458E0,8.299341431E0,-9.147777100E0,2.742147675E0,1.265228311E1
3.981085458E0,7.919132080E0,-8.988807678E0,2.783461761E0,1.229873879E1
3.991094458E0,7.530091095E0,-8.809630280E0,2.891537018E0,1.194457383E1
4.001102458E0,7.149133301E0,-8.590935059E0,2.906954956E0,1.154836176E1
4.011110458E0,6.757996674E0,-8.340805206E0,2.998115387E0,1.114577258E1
4.021118458E0,6.383026428E0,-8.048163757E0,3.151396637E0,1.074463899E1
4.031126458E0,6.046825562E0,-7.762707367E0,3.257825317E0,1.036518938E1
4.041135458E0,5.740263062E0,-7.497009888E0,3.354075165E0,1.002025935E1
4.051143458E0,5.465135193E0,-7.226222992E0,3.509901123E0,9.716244506E0
4.061151458E0,5.268593903E0,-6.971901855E0,3.649560699E0,9.470205409E0
4.071159458E0,5.227579193E0,-6.819069672E0,3.702101440E0,9.355899234E0
4.081168458E0,5.251080322E0,-6.670279083E0,3.687581635E0,9.255524075E0
4.091176458E0,5.253625031E0,-6.499933319E0,3.665876770E0,9.126245756E0
4.101184458E0,5.290448456E0,-6.390061798E0,3.663631439E0,9.068843916E0
4.111192458E0,5.389392700E0,-6.241121521E0,3.581302643E0,8.990154622E0
4.121200458E0,5.458099823E0,-6.079308014E0,3.366499329E0,8.836410885E0
4.131209458E0,5.488935699E0,-5.953719177E0,3.184926910E0,8.701663437E0
4.141217458E0,5.588778076E0,-5.881569214E0,3.008144531E0,8.653105242E0
4.151225458E0,5.708978119E0,-5.873785400E0,2.794987793E0,8.654810388E0
4.161233458E0,5.897885284E0,-5.952821045E0,2.656226349E0,8.790714854E0
4.171241458E0,6.132597198E0,-6.005361786E0,2.394121399E0,8.910944723E0
4.181250458E0,6.359824677E0,-6.031707001E0,2.122885437E0,9.018619730E0
4.191258458E0,6.501430206E0,-6.002218323E0,1.856439514E0,9.041105419E0
4.201266458E0,6.623875580E0,-6.014193420E0,1.531764679E0,9.077034385E0
4.211274458E0,6.730603638E0,-6.068829803E0,1.289568329E0,9.153944887E0
4.221282458E0,6.874005432E0,-6.138734436E0,9.511221313E-1,9.265022637E0
4.231291458E0,7.045548706E0,-6.085594940E0,6.066883850E-1,9.329645928E0
4.241299458E0,7.139553223E0,-6.004463654E0,1.160087585E-1,9.329537074E0
4.251307458E0,7.061565399E0,-5.954018555E0,-3.034190369E-1,9.241650607E0
4.261315458E0,6.724616089E0,-5.825735321E0,-6.408174133E-1,8.920218637E0
4.271323458E0,6.432423706E0,-5.767057343E0,-8.300239563E-1,8.678938005E0
4.281332458E0,6.304589539E0,-5.723797302E0,-1.046922913E0,8.579379488E0
4.291340458E0,6.244115295E0,-5.556445312E0,-1.303040314E0,8.459371986E0
4.301348458E0,6.269412689E0,-5.475314026E0,-1.687141571E0,8.492999813E0
4.311356458E0,6.297404480E0,-5.435646515E0,-1.989063721E0,8.553357861E0
4.321364458E0,6.306535492E0,-5.380411377E0,-2.138752441E0,8.561277855E0
4.331373458E0,6.268215179E0,-5.312452698E0,-2.106719055E0,8.482390016E0
4.341381458E0,6.329138489E0,-5.286855927E0,-2.153721313E0,8.523341780E0
4.351389458E0,6.471642151E0,-5.313650208E0,-2.147284698E0,8.644527878E0
4.361397458E0,6.567742310E0,-5.241799622E0,-1.991608429E0,8.635867441E0
4.371405458E0,6.688541107E0,-5.106331329E0,-1.794468384E0,8.604145429E0
4.381414458E0,6.781198425E0,-4.941224670E0,-1.582359467E0,8.538396501E0
4.391422458E0,6.843019867E0,-4.774471436E0,-1.249751129E0,8.437083398E0
4.401430458E0,6.894961853E0,-4.725822601E0,-8.970845032E-1,8.407060058E0
4.411438458E0,6.962621155E0,-4.872068481E0,-6.716532898E-1,8.524450878E0
4.421447458E0,7.112160187E0,-5.195396118E0,-4.216731262E-1,8.817753204E0
4.431455458E0,7.416177979E0,-5.649102631E0,-1.386117554E-1,9.323693987E0
4.441463458E0,7.795638885E0,-6.294261017E0,9.849517822E-2,1.001995053E1
4.451474458E0,8.367150421E0,-7.216044159E0,2.474354553E-1,1.105177469E1
4.461482458E0,9.006321259E0,-8.104596405E0,4.499642944E-1,1.212438755E1
4.471491458E0,9.682165833E0,-8.895551605E0,7.634124756E-1,1.317034442E1
4.481499458E0,1.041144928E1,-9.535321198E0,1.142873383E0,1.416427852E1
4.491507458E0,1.117201767E1,-9.783804474E0,1.642085266E0,1.494099236E1
4.501515458E0,1.171643555E1,-9.430090027E0,2.021995239E0,1.517530641E1
4.511523458E0,1.187615341E1,-8.777896271E0,2.374811554E0,1.495774758E1
4.521532458E0,1.185265228E1,-8.144712982E0,2.871029663E0,1.466507849E1
4.531540458E0,1.186328018E1,-7.479496307E0,3.115770721E0,1.436622111E1
4.541548458E0,1.184516785E1,-6.845414886E0,3.218756561E0,1.405446904E1
4.551556458E0,1.181373322E1,-6.376889191E0,3.084934845E0,1.377482600E1
4.561564458E0,1.181657730E1,-6.179300079E0,2.772235107E0,1.361985815E1
4.571573458E0,1.185295166E1,-6.184838562E0,2.298320618E0,1.356565401E1
4.581581458E0,1.195593750E1,-6.309379578E0,1.759441223E0,1.363262064E1
4.591589458E0,1.202554276E1,-6.565047913E0,1.217867432E0,1.375488036E1
4.601597458E0,1.200383789E1,-6.892866211E0,7.101232910E-1,1.386030316E1
4.611605458E0,1.186687271E1,-7.151378632E0,2.038760376E-1,1.385663919E1
4.621614458E0,1.166045197E1,-7.331304474E0,-1.944456482E-1,1.377504898E1
4.631622458E0,1.141151962E1,-7.320826263E0,-3.466790771E-1,1.356235465E1
4.641630458E0,1.102487366E1,-7.131470032E0,-4.409829712E-1,1.313773839E1
4.651638458E0,1.059676392E1,-6.924151154E0,-4.929249573E-1,1.266800101E1
4.661647458E0,1.017060013E1,-6.678511963E0,-3.881428528E-1,1.217350746E1
4.671655458E0,9.819430389E0,-6.425687714E0,-3.044668579E-1,1.173896826E1
4.681663458E0,9.452842712E0,-6.102809143E0,-2.770738220E-1,1.125510039E1
4.691671458E0,9.111103363E0,-5.817053375E0,-1.654060364E-1,1.081099781E1
4.701679458E0,8.834029541E0,-5.680986328E0,-1.502874756E-1,1.050410729E1
4.711688458E0,8.632099457E0,-5.621559906E0,-1.119671631E-1,1.030182573E1
4.721696458E0,8.498876495E0,-5.619613953E0,-8.666976929E-2,1.018913511E1
4.731704458E0,8.379574585E0,-5.664370880E0,-1.151106262E-1,1.011511830E1
4.741712458E0,8.266709290E0,-5.722749481E0,-1.779798889E-1,1.005584511E1
4.751720458E0,8.198301544E0,-5.781128082E0,-1.604663086E-1,1.003291281E1
4.761729458E0,8.230035553E0,-5.848937073E0,-1.184037781E-1,1.009740410E1
4.771737458E0,8.270601196E0,-5.914351044E0,-1.242416382E-1,1.016847227E1
4.781745458E0,8.283025360E0,-5.982758789E0,-1.293310547E-1,1.021854385E1
4.791753458E0,8.385711823E0,-6.054010620E0,2.245330811E-2,1.034271297E1
4.801761458E0,8.559500427E0,-6.144123230E0,1.272354126E-1,1.053714794E1
4.811770458E0,8.744964752E0,-6.217770081E0,1.170565796E-1,1.073073975E1
4.821778458E0,8.773854675E0,-6.233337708E0,1.454974365E-1,1.076365153E1
4.831786458E0,8.735085297E0,-6.271508331E0,1.486408997E-1,1.075433057E1
4.841794458E0,8.668174438E0,-6.255940704E0,1.848655701E-1,1.069150211E1
4.851802458E0,8.607999573E0,-6.180198212E0,2.802172852E-1,1.060052019E1
4.861811458E0,8.525072021E0,-6.108946381E0,3.004252625E-1,1.049220350E1
4.871819458E0,8.455466766E0,-6.069727936E0,3.013233948E-1,1.041284357E1
4.881827458E0,8.407416687E0,-5.983956299E0,3.174897766E-1,1.032439771E1
4.891835458E0,8.330177307E0,-5.916446686E0,3.350033569E-1,1.022293610E1
4.901844458E0,8.241860962E0,-5.885161743E0,3.499722290E-1,1.013340424E1
4.911852458E0,8.134234772E0,-5.764362946E0,3.129991150E-1,9.974548809E0
4.921860458E0,8.061186676E0,-5.595065002E0,2.059716797E-1,9.814780045E0
4.931868458E0,7.955805817E0,-5.514532471E0,1.836680603E-1,9.681872160E0
4.941876458E0,7.871381378E0,-5.426216125E0,1.700463867E-1,9.561975843E0
4.951885458E0,7.821684723E0,-5.333708496E0,3.427871704E-2,9.467226270E0
4.961893458E0,7.687713318E0,-5.263055420E0,-2.050735474E-2,9.316711274E0
4.971901458E0,7.498207397E0,-5.169350281E0,1.571731567E-2,9.107444402E0
4.981909458E0,7.376959534E0,-5.089715881E0,-2.948867798E-2,8.962455539E0
4.991917458E0,7.242988129E0,-4.977748718E0,-1.197509766E-1,8.789379934E0
5.001926458E0,7.047494659E0,-4.828059998E0,-1.152603149E-1,8.543455346E0
5.011934458E0,6.830446014E0,-4.685256958E0,-7.185058594E-2,8.283223287E0
5.021942458E0,6.623725891E0,-4.552033997E0,-9.490264893E-2,8.037646714E0
5.031950458E0,6.446494446E0,-4.431983643E0,-1.297801208E-1,7.824104583E0
5.041958458E0,6.301446075E0,-4.359534302E0,-2.218386841E-1,7.665701166E0
5.051967458E0,6.213728485E0,-4.296515350E0,-2.631527710E-1,7.559081639E0
5.061975458E0,6.110592957E0,-4.269421692E0,-2.270777893E-1,7.457806124E0
5.071983458E0,5.964646454E0,-4.276457062E0,-2.044747925E-1,7.342131997E0
5.081991458E0,5.805377655E0,-4.333937531E0,-1.875599670E-1,7.247109974E0
5.092000458E0,5.695206757E0,-4.440366211E0,-1.278341675E-1,7.222781574E0
5.102008458E0,5.632487183E0,-4.595443726E0,-5.553451538E-2,7.269532239E0
5.112016458E0,5.549859009E0,-4.768334198E0,8.816665649E-2,7.317494066E0
5.122024458E0,5.478906555E0,-4.900209961E0,2.981799316E-1,7.356587930E0
5.132032458E0,5.466632080E0,-5.054089966E0,4.282594299E-1,7.457298292E0
5.142041458E0,5.575904846E0,-5.332361298E0,6.339317322E-1,7.741231252E0
5.152049458E0,5.715265045E0,-5.666765900E0,8.593629456E-1,8.094133367E0
5.162057458E0,5.931864624E0,-6.110143890E0,1.083896027E0,8.584620369E0
5.172065458E0,6.164929962E0,-6.643035736E0,1.263073425E0,9.150499424E0
5.182073458E0,6.405928802E0,-7.300917664E0,1.424138489E0,9.816694606E0
5.192082458E0,6.590045929E0,-7.985893250E0,1.477277985E0,1.045875454E1
5.202090458E0,6.761589203E0,-8.466543732E0,1.573976898E0,1.094892025E1
5.212098458E0,7.041656799E0,-8.997938690E0,1.755549316E0,1.155983497E1
5.222106458E0,7.238198090E0,-9.233099670E0,1.932481384E0,1.189016928E1
5.232114458E0,7.390581207E0,-9.246871033E0,1.988764343E0,1.200335362E1
5.242123458E0,7.520061951E0,-9.078620911E0,2.078727264E0,1.197053869E1
5.252131458E0,7.706274719E0,-8.785231018E0,2.148781586E0,1.188209646E1
5.262139458E0,8.062683563E0,-8.481811981E0,2.098186798E0,1.188908695E1
5.272147458E0,8.480165405E0,-8.150401154E0,1.867965546E0,1.190930475E1
5.282156458E0,8.929530945E0,-7.878716125E0,1.385219421E0,1.198872485E1
5.292164458E0,9.322613525E0,-7.606132965E0,8.060737610E-1,1.205877840E1
5.302172458E0,9.731563110E0,-7.422015839E0,2.245330811E-1,1.224091724E1
5.312180458E0,1.013317795E1,-7.223378906E0,-2.689906311E-1,1.244712232E1
5.322188458E0,1.048913773E1,-6.931934967E0,-7.087760925E-1,1.259270011E1
5.332197458E0,1.066352509E1,-6.510710907E0,-1.109792175E0,1.254319586E1
5.342205458E0,1.075678116E1,-6.033652954E0,-1.513652344E0,1.242595881E1
5.352213458E0,1.067130890E1,-5.625900879E0,-1.802701263E0,1.219743113E1
5.362221458E0,1.042791504E1,-5.322332153E0,-1.847009125E0,1.185242905E1
5.372229458E0,1.001672012E1,-5.142556000E0,-1.834285583E0,1.140811851E1
5.382238458E0,9.541009369E0,-5.035977631E0,-1.737137604E0,1.092746894E1
5.392246458E0,9.165440369E0,-5.034331055E0,-1.678010559E0,1.059082177E1
5.402254458E0,8.854985962E0,-5.091961212E0,-1.690584412E0,1.035359459E1
5.412262458E0,8.543483734E0,-5.178630981E0,-1.656156006E0,1.012680531E1
5.422270458E0,8.315507812E0,-5.370082855E0,-1.548978882E0,1.001922131E1
5.432279458E0,8.185128937E0,-5.617218933E0,-1.411265259E0,1.002702119E1
5.442287458E0,7.970924377E0,-5.871540070E0,-1.234482880E0,9.976701168E0
5.452291083E0,7.880811768E0,-6.014193420E0,-1.131796417E0,9.977909588E0
5.462299083E0,7.709867249E0,-6.241271210E0,-9.081614685E-1,9.960937534E0
5.472308083E0,7.546556854E0,-6.387217712E0,-6.065386963E-1,9.905299574E0
5.482316083E0,7.413034515E0,-6.377637634E0,-3.227288818E-1,9.784247363E0
5.492324083E0,7.470664673E0,-6.377787323E0,-3.053649902E-1,9.827525099E0
5.502332083E0,7.564818878E0,-6.444099426E0,-1.356179810E-1,9.938374833E0
5.512340083E0,7.674391022E0,-6.478827209E0,-2.709365845E-2,1.004351600E1
5.522349083E0,7.830965424E0,-6.541546783E0,-1.137634277E-2,1.020372399E1
5.532357083E0,7.985294495E0,-6.563700714E0,2.903961182E-2,1.033672765E1
5.542365083E0,8.117769012E0,-6.510860596E0,3.936813354E-2,1.040629758E1
5.552373083E0,8.202343140E0,-6.462660828E0,-7.933502197E-3,1.044243654E1
5.562381083E0,8.271199951E0,-6.372847595E0,-8.831634521E-3,1.044155224E1
5.572390083E0,8.326584778E0,-6.222560120E0,2.784210205E-2,1.039485660E1
5.582398083E0,8.400531006E0,-6.126909027E0,4.490661621E-4,1.039749660E1
5.592406083E0,8.453969879E0,-5.983357544E0,5.029541016E-2,1.035725368E1
5.602414083E0,8.516689453E0,-5.804928589E0,4.490661621E-3,1.030685283E1
5.612422083E0,8.655750275E0,-5.680537262E0,-1.185534668E-1,1.035396404E1
5.622431083E0,8.773854675E0,-5.594615936E0,-2.531236267E-1,1.040885800E1
5.632439083E0,8.845106506E0,-5.550457764E0,-3.218307495E-1,1.044734730E1
5.642447083E0,8.903784485E0,-5.520520020E0,-3.177891541E-1,1.048115019E1
5.652455083E0,8.979377289E0,-5.457351379E0,-3.574566650E-1,1.051378504E1
5.662464083E0,9.059610443E0,-5.378914490E0,-4.499642944E-1,1.054569724E1
5.672472083E0,9.114396515E0,-5.272934875E0,-5.384303284E-1,1.054352755E1
5.682480083E0,9.151219940E0,-5.188360748E0,-5.601351929E-1,1.053459373E1
5.692488083E0,9.194779358E0,-5.172942810E0,-5.358856201E-1,1.056363944E1
5.702496083E0,9.215586090E0,-5.176535339E0,-5.156776428E-1,1.058250767E1
5.712505083E0,9.194779358E0,-5.214556274E0,-5.532495117E-1,1.058497282E1
5.722513083E0,9.263935547E0,-5.233716431E0,-4.471202087E-1,1.064951670E1
5.732521083E0,9.356143799E0,-5.411995697E0,-1.936972046E-1,1.081039513E1
5.742529083E0,9.389225006E0,-5.592819672E0,1.571731567E-2,1.092874307E1
5.752537083E0,9.336983643E0,-5.746250610E0,1.502874756E-1,1.096454495E1
5.762546083E0,9.287137299E0,-5.897735596E0,3.183879089E-1,1.100616078E1
5.772554083E0,9.407636719E0,-6.274352417E0,4.998106384E-1,1.131905197E1
5.782562083E0,9.669741669E0,-6.844367065E0,6.884184265E-1,1.186689447E1
5.792570083E0,1.008827133E1,-7.492968292E0,9.042695618E-1,1.259902757E1
5.802579083E0,1.082369202E1,-8.581504669E0,1.027014313E0,1.385096710E1
5.812587083E0,1.175969559E1,-9.870174866E0,1.004111938E0,1.538567623E1
5.822595083E0,1.254211853E1,-1.069376221E1,7.933502197E-1,1.650123304E1
5.832603083E0,1.308848236E1,-1.086246140E1,6.445596313E-1,1.702107209E1
5.842611083E0,1.330717758E1,-1.054033127E1,6.851252747E-1,1.698967201E1
5.852620083E0,1.305225769E1,-9.586215363E0,9.641450500E-1,1.622302473E1
5.862628083E0,1.221684494E1,-8.439001007E0,1.515448608E0,1.492530143E1
5.872636083E0,1.125644211E1,-7.598199463E0,2.119143219E0,1.374521342E1
5.882644083E0,1.069885162E1,-6.833439789E0,2.429897003E0,1.292539070E1
5.892652083E0,1.040576111E1,-6.396498413E0,2.306553497E0,1.243041613E1
5.902661083E0,1.020787262E1,-6.250102844E0,2.116598511E0,1.215501700E1
5.912669083E0,9.968969421E0,-6.191424866E0,1.933529205E0,1.189338591E1
5.922677083E0,9.740843811E0,-6.253994751E0,1.776356049E0,1.171118821E1
5.932685083E0,9.362730103E0,-6.501130829E0,1.589394836E0,1.150876157E1
5.942694083E0,9.063053284E0,-6.820566559E0,1.287772064E0,1.141566555E1
5.952702083E0,8.961264954E0,-7.173083496E0,1.088835754E0,1.153008932E1
5.962710083E0,8.785380707E0,-7.516319733E0,9.301657104E-1,1.159927518E1
5.972718083E0,8.592132568E0,-7.852819977E0,6.804849243E-1,1.165995641E1
5.982726083E0,8.368048553E0,-8.115523682E0,5.786965942E-1,1.167136886E1
5.992735083E0,8.148904266E0,-8.315208435E0,6.294410706E-1,1.165948233E1
6.002743083E0,7.862400055E0,-8.423433380E0,7.436535645E-1,1.154662657E1
6.012751083E0,7.604187012E0,-8.349487152E0,8.319699097E-1,1.132385843E1
6.022759083E0,7.441175995E0,-8.288863220E0,9.397457886E-1,1.117852744E1
6.032767083E0,7.378755798E0,-8.242010651E0,1.055305481E0,1.111262554E1
6.042776083E0,7.387737122E0,-8.142317963E0,1.045276337E0,1.104393970E1
6.052784083E0,7.455097046E0,-8.009843445E0,1.015787659E0,1.098944441E1
6.062792083E0,7.501051483E0,-7.926616516E0,9.575587463E-1,1.095508747E1
6.072800083E0,7.482190704E0,-7.841892700E0,8.408015442E-1,1.087131115E1
6.082809083E0,7.494465179E0,-7.773335266E0,7.125183105E-1,1.082124909E1
6.092817083E0,7.555687866E0,-7.726033630E0,5.755531311E-1,1.082179635E1
6.102825083E0,7.587721252E0,-7.677235107E0,4.382885742E-1,1.080303428E1
6.112833083E0,7.587571564E0,-7.621999969E0,3.585044861E-1,1.076079231E1
6.122841083E0,7.606731720E0,-7.580386505E0,3.381468201E-1,1.074425290E1
6.132850083E0,7.614066467E0,-7.535629578E0,3.456312561E-1,1.071817066E1
6.142858083E0,7.604785767E0,-7.471562805E0,4.098477173E-1,1.066887963E1
6.152866083E0,7.616311798E0,-7.409441986E0,4.975653076E-1,1.063746244E1
6.162874083E0,7.602390747E0,-7.320676575E0,6.197113037E-1,1.057226053E1
6.172882083E0,7.485034790E0,-7.210655365E0,6.759942627E-1,1.041519394E1
6.182891083E0,7.306905212E0,-7.076833649E0,7.500901794E-1,1.019975850E1
6.192899083E0,7.149133301E0,-6.942562866E0,8.611592102E-1,1.000254374E1
6.202907083E0,6.981931000E0,-6.885082397E0,8.666976929E-1,9.843926300E0
6.212915083E0,6.870113525E0,-6.906038818E0,9.051676941E-1,9.783208092E0
6.222924083E0,6.726412354E0,-6.942562866E0,9.189390564E-1,9.710213761E0
6.232932083E0,6.613397369E0,-7.051835632E0,8.857081604E-1,9.708238228E0
6.242940083E0,6.465654602E0,-7.136110382E0,8.641529846E-1,9.668273951E0
6.252948083E0,6.317163391E0,-7.201973419E0,7.846682739E-1,9.612007009E0
6.262956083E0,6.164929962E0,-7.292535095E0,7.622149658E-1,9.579582517E0
6.272965083E0,6.000721436E0,-7.294031982E0,7.402107239E-1,9.474147572E0
6.282973083E0,5.727539520E0,-7.441625061E0,5.514532471E-1,9.406731270E0
6.292981083E0,5.467530212E0,-7.463928680E0,4.809498596E-1,9.264741267E0
6.302989083E0,5.265600128E0,-7.417076111E0,4.324507141E-1,9.106403042E0
6.312997083E0,5.084027710E0,-7.378007355E0,3.770658875E-1,8.967971285E0
6.323006083E0,4.947212219E0,-7.354655914E0,2.264790344E-1,8.866632118E0
6.333014083E0,4.914131012E0,-7.375462646E0,1.691482544E-2,8.862641760E0
6.343022083E0,4.917873230E0,-7.497309265E0,-9.909393311E-2,8.966880334E0
6.353030083E0,4.981341248E0,-7.773335266E0,-2.576142883E-1,9.236063388E0
6.363039083E0,5.214256897E0,-8.230035553E0,-5.069956970E-1,9.755972777E0
6.373047083E0,5.497467957E0,-8.718469849E0,-6.833290100E-1,1.032960836E1
6.383055083E0,5.628894653E0,-8.991651764E0,-8.161029053E-1,1.063956204E1
6.393063083E0,5.636828156E0,-9.049880676E0,-8.225395203E-1,1.069349069E1
6.403071083E0,5.637277222E0,-9.045090637E0,-7.997868347E-1,1.068794733E1
6.413080083E0,5.583538971E0,-9.034762115E0,-6.273454285E-1,1.063937950E1
6.423088083E0,5.529501343E0,-8.846753082E0,-2.725831604E-1,1.043622186E1
6.433096083E0,5.560187531E0,-8.510701904E0,2.395019531E-3,1.016600895E1
6.443104458E0,5.834716644E0,-8.300988007E0,9.819580078E-2,1.014691887E1
6.453112458E0,6.258335724E0,-8.228239288E0,2.101629639E-1,1.033996404E1
6.463121458E0,6.675368500E0,-8.082143097E0,2.918930054E-1,1.048650481E1
6.473129458E0,7.046895905E0,-8.099656677E0,6.256988525E-2,1.073625145E1
6.483137458E0,7.558981018E0,-8.137976990E0,-1.514849854E-1,1.110800663E1
6.493145458E0,8.137677612E0,-8.121062164E0,-4.294569397E-1,1.150468952E1
6.503154458E0,8.690627747E0,-8.225544891E0,-7.164102173E-1,1.198748693E1
6.513162458E0,9.242380371E0,-8.339607697E0,-9.922865295E-1,1.248820580E1
6.523170458E0,9.909093933E0,-8.384664001E0,-1.271455994E0,1.304259688E1
6.533178458E0,1.034932846E1,-8.277786255E0,-1.573827209E0,1.334568383E1
6.543186458E0,1.060155396E1,-8.018525391E0,-1.763033752E0,1.340887705E1
6.553195458E0,1.054766602E1,-7.565267944E0,-1.750160522E0,1.309769443E1
6.563203458E0,1.032283356E1,-7.028933258E0,-1.684447174E0,1.260175217E1
6.573211458E0,1.003947281E1,-6.623725891E0,-1.583407288E0,1.213144417E1
6.583219458E0,9.702673187E0,-6.193969574E0,-1.422491913E0,1.159873309E1
6.593228458E0,9.416468353E0,-5.843697968E0,-1.243763580E0,1.115193391E1
6.603236458E0,9.227710876E0,-5.686524811E0,-9.395960999E-1,1.087980024E1
6.613244458E0,9.137448578E0,-5.644013214E0,-6.487509155E-1,1.075958779E1
6.623252458E0,9.130862274E0,-5.620961151E0,-5.189707947E-1,1.073485821E1
6.633260458E0,9.017996979E0,-5.702092438E0,-3.541635132E-1,1.067537163E1
6.643269458E0,8.839717712E0,-5.740562439E0,-1.005908203E-1,1.054062545E1
6.653277458E0,8.668473816E0,-5.768703918E0,-6.017486572E-2,1.041268477E1
6.663285458E0,8.367749176E0,-5.859265594E0,3.329077148E-1,1.022061873E1
6.673293458E0,8.177345123E0,-5.872288513E0,5.457650757E-1,1.008219248E1
6.683301458E0,8.212222595E0,-5.943540344E0,4.742138672E-1,1.014845558E1
6.693310458E0,8.239465942E0,-6.064488831E0,4.793032837E-1,1.024190194E1
6.703318458E0,8.200247498E0,-6.120023346E0,5.447172546E-1,1.024672932E1
6.713326458E0,8.118367767E0,-6.125112762E0,6.400689697E-1,1.018992590E1
6.723334458E0,8.066126404E0,-6.154152374E0,7.012916565E-1,1.016994575E1
6.733343458E0,8.238418121E0,-6.357130280E0,6.400689697E-1,1.042565714E1
6.743351458E0,8.219557343E0,-6.323899384E0,7.020401001E-1,1.039450271E1
6.753359458E0,8.173602905E0,-6.183641052E0,7.855664063E-1,1.027921766E1
6.763367458E0,8.180189209E0,-6.200555878E0,8.367599487E-1,1.029866768E1
6.773375458E0,8.200995941E0,-6.128405914E0,8.821156311E-1,1.027578812E1
6.783384458E0,8.245004425E0,-6.023773499E0,9.048683167E-1,1.025108442E1
6.793392458E0,8.267757111E0,-5.966742096E0,9.708810425E-1,1.024209104E1
6.803400458E0,8.335865479E0,-5.907165985E0,9.854008484E-1,1.026412578E1
6.813408458E0,8.493487701E0,-5.873486023E0,9.096583557E-1,1.036651579E1
6.823416458E0,8.764274597E0,-5.896089020E0,8.117619324E-1,1.059411782E1
6.833425458E0,8.975186005E0,-5.864205322E0,8.276289368E-1,1.075303853E1
6.843433458E0,9.188193054E0,-5.840404816E0,8.339158630E-1,1.091918659E1
6.853441458E0,9.436826019E0,-5.849086761E0,7.884104919E-1,1.113045787E1
6.863449458E0,9.651779022E0,-5.807622986E0,6.985972595E-1,1.128598074E1
6.873458458E0,9.873168640E0,-5.806275787E0,6.993457031E-1,1.147525084E1
6.883466458E0,1.010309052E1,-5.810467072E0,7.943980408E-1,1.168182493E1
6.893474458E0,1.030816406E1,-5.768703918E0,7.753875732E-1,1.183796508E1
6.903482458E0,1.051218979E1,-5.772745514E0,6.836283875E-1,1.201241328E1
6.913490458E0,1.073836945E1,-5.955365753E0,6.858737183E-1,1.229834877E1
6.923499458E0,1.114417557E1,-6.445596313E0,7.414082336E-1,1.289527228E1
6.933507458E0,1.178199921E1,-7.222480774E0,7.141648865E-1,1.383798270E1
6.943515458E0,1.257250534E1,-8.251590729E0,6.264472961E-1,1.505154731E1
6.953523458E0,1.332528992E1,-9.157955933E0,5.191204834E-1,1.617717510E1
6.963532458E0,1.390922562E1,-9.649683380E0,4.860392761E-1,1.693573679E1
6.973540458E0,1.424946808E1,-9.740394745E0,4.993615723E-1,1.726765741E1
6.983548458E0,1.430500259E1,-9.269623718E0,7.801776123E-1,1.706363678E1
6.993556458E0,1.385204453E1,-8.899892578E0,1.050365753E0,1.649819668E1
7.003564458E0,1.303279816E1,-8.364905090E0,1.387764130E0,1.554835535E1
7.013573458E0,1.240515335E1,-7.797435150E0,1.589394836E0,1.473818172E1
7.023581458E0,1.194246552E1,-7.451205139E0,1.567091217E0,1.416328759E1
7.033589458E0,1.146406036E1,-7.263794861E0,1.458267517E0,1.364968644E1
7.043597458E0,1.103669907E1,-7.258256378E0,1.355131989E0,1.327883258E1
7.053606458E0,1.067190765E1,-7.394323425E0,1.298250275E0,1.304802995E1
7.063614458E0,1.039663010E1,-7.584577789E0,1.079555054E0,1.291437868E1
7.073622458E0,1.013467484E1,-7.771988068E0,7.864645386E-1,1.279585710E1
7.083630458E0,9.814640350E0,-7.977510681E0,6.610253906E-1,1.266510152E1
7.093638458E0,9.439520416E0,-8.113577728E0,6.044430542E-1,1.246194369E1
7.103647458E0,9.098379822E0,-8.248447266E0,5.653742981E-1,1.229378078E1
7.113655458E0,8.813073120E0,-8.383616180E0,5.760021973E-1,1.217731730E1
7.123663458E0,8.566236420E0,-8.474477234E0,6.412664795E-1,1.206683030E1
7.133671458E0,8.309370575E0,-8.504265289E0,7.258406067E-1,1.191196928E1
7.143679458E0,8.033344574E0,-8.531508636E0,7.619155884E-1,1.174315886E1
7.153688458E0,7.804470520E0,-8.426726532E0,8.141569519E-1,1.151444014E1
7.163696458E0,7.623047791E0,-8.384214935E0,8.066725159E-1,1.136030978E1
7.173704458E0,7.522307281E0,-8.337661743E0,8.307723999E-1,1.126019063E1
7.183712458E0,7.461683350E0,-8.257727966E0,7.686515808E-1,1.115605732E1
7.193721458E0,7.428452454E0,-8.194559326E0,6.613247681E-1,1.108016511E1
7.203729458E0,7.376211090E0,-8.089328156E0,5.289999390E-1,1.096018070E1
7.213737458E0,7.364984436E0,-8.005053406E0,4.556524658E-1,1.088721704E1
7.223745458E0,7.421716461E0,-7.947872314E0,3.640429688E-1,1.088039874E1
7.233753458E0,7.511529694E0,-7.908204803E0,2.050735474E-1,1.090893380E1
7.243762458E0,7.604037323E0,-7.844287720E0,6.855743408E-2,1.092515142E1
7.253770458E0,7.660320282E0,-7.765401764E0,-1.257385254E-2,1.090789299E1
7.263778458E0,7.716902618E0,-7.665858765E0,-2.829116821E-2,1.087735156E1
7.273786458E0,7.770042114E0,-7.589517517E0,-7.708969116E-2,1.086187246E1
7.283795458E0,7.799830170E0,-7.534132690E0,-1.131646729E-1,1.084496714E1
7.293803458E0,7.798183594E0,-7.466772766E0,-6.721023560E-2,1.079670691E1
7.303811458E0,7.761659546E0,-7.372019806E0,-1.990859985E-2,1.070469202E1
7.313819458E0,7.682623901E0,-7.242688751E0,1.736389160E-2,1.055838775E1
7.323827458E0,7.533384247E0,-7.061266022E0,8.637039185E-2,1.032573561E1
7.333836458E0,7.286098480E0,-6.862180023E0,1.692979431E-1,1.001026511E1
7.343844458E0,7.037764893E0,-6.677913208E0,2.463876343E-1,9.704914547E0
7.353852458E0,6.787635040E0,-6.535259857E0,3.107537842E-1,9.427522408E0
7.363860458E0,6.594536591E0,-6.454577637E0,3.767665100E-1,9.235336394E0
7.373869458E0,6.411916351E0,-6.374344482E0,4.526586914E-1,9.052615024E0
7.383877458E0,6.206543427E0,-6.325845337E0,4.544549561E-1,8.873783288E0
7.393885458E0,6.035299530E0,-6.346502380E0,5.057981873E-1,8.772614473E0
7.403893458E0,5.909710693E0,-6.388115845E0,5.800437927E-1,8.721763315E0
7.413901458E0,5.828130341E0,-6.481222229E0,5.677693176E-1,8.734741373E0
7.423910458E0,5.750591583E0,-6.615642700E0,5.020559692E-1,8.779982465E0
7.433918458E0,5.609285431E0,-6.706653442E0,4.363426208E-1,8.754066388E0
7.443926458E0,5.490282898E0,-6.801705780E0,4.415817261E-1,8.752222703E0
7.453938208E0,5.375771027E0,-6.880442047E0,3.882925415E-1,8.740146909E0
7.463946208E0,5.259612579E0,-6.878047028E0,2.526745605E-1,8.662268746E0
7.473955208E0,5.155878296E0,-6.821165314E0,1.366658020E-1,8.551611239E0
7.483963208E0,5.088967438E0,-6.760092316E0,1.031355286E-1,8.462096350E0
7.493971208E0,5.115013275E0,-6.791676636E0,-2.260299683E-2,8.502396323E0
7.503979208E0,5.259462891E0,-6.948400726E0,-2.417472839E-1,8.717835987E0
7.513988208E0,5.481451263E0,-7.222331085E0,-4.764591980E-1,9.079393571E0
7.523996208E0,5.765410767E0,-7.644453278E0,-6.764433289E-1,9.598708392E0
7.534004208E0,5.975274353E0,-8.021369476E0,-8.743318176E-1,1.004045457E1
7.544012208E0,6.045628052E0,-8.168663177E0,-9.756710815E-1,1.020924144E1
7.554020208E0,6.065836029E0,-8.150850220E0,-8.909472656E-1,1.019924081E1
7.564029208E0,6.028114471E0,-8.008945312E0,-7.740403748E-1,1.005388023E1
7.574037208E0,5.985453186E0,-7.770940247E0,-5.514532471E-1,9.824319968E0
7.584045208E0,6.027366028E0,-7.521109772E0,-2.860551453E-1,9.642513209E0
7.594053208E0,6.260281677E0,-7.385940857E0,-1.838177490E-1,9.683854500E0
7.604062208E0,6.545887756E0,-7.286248169E0,-2.013313293E-1,9.796866499E0
7.614070208E0,6.833739166E0,-7.253017273E0,-2.065704346E-1,9.967392934E0
7.624078208E0,7.104675751E0,-7.307204590E0,-2.263293457E-1,1.019425728E1
7.634086208E0,7.404502258E0,-7.408843231E0,-2.746788025E-1,1.047821837E1
7.644094208E0,7.757019196E0,-7.541617126E0,-3.365002441E-1,1.082407354E1
7.654103208E0,8.116122437E0,-7.728578339E0,-5.174739075E-1,1.121918650E1
7.664111208E0,8.598120117E0,-7.983797607E0,-6.701564026E-1,1.175235310E1
7.674119208E0,9.100475464E0,-8.193661194E0,-8.020321655E-1,1.227183739E1
7.684127208E0,9.606722717E0,-8.361162872E0,-8.997789001E-1,1.276744955E1
7.694136208E0,1.010683273E1,-8.454718323E0,-1.008303223E0,1.321540787E1
7.704144208E0,1.066487228E1,-8.454269257E0,-1.173110504E0,1.365980812E1
7.714152208E0,1.100586319E1,-8.231083374E0,-1.293160858E0,1.380405821E1
7.724160208E0,1.112995514E1,-7.748636627E0,-1.179547119E0,1.361281023E1
7.734168208E0,1.110136459E1,-7.330855408E0,-1.052910461E0,1.334504992E1
7.744177208E0,1.094209579E1,-6.974446564E0,-9.174421692E-1,1.300823068E1
7.754185208E0,1.074001602E1,-6.588998108E0,-7.680528259E-1,1.262349973E1
7.764193208E0,1.056532928E1,-6.242768097E0,-6.399192810E-1,1.228852445E1
7.774201208E0,1.047985703E1,-6.045478363E0,-4.799020386E-1,1.210807656E1
7.784210208E0,1.042911255E1,-5.872737579E0,-3.721261597E-1,1.197471975E1
7.794218208E0,1.038465500E1,-5.672753448E0,-2.966830444E-1,1.183677371E1
7.804226208E0,1.020622604E1,-5.626649323E0,-3.664379883E-1,1.166021052E1
7.814234208E0,9.804611206E0,-5.692961426E0,7.918533325E-2,1.133783405E1
7.824242208E0,9.527088318E0,-5.528154144E0,3.441343689E-1,1.102017824E1
7.834251208E0,9.369466095E0,-5.549260254E0,3.932322693E-1,1.089659653E1
7.844259208E0,9.232201538E0,-5.707032166E0,4.851411438E-1,1.086458114E1
7.854267208E0,9.066346436E0,-5.764961700E0,6.032455444E-1,1.076091661E1
7.864275208E0,8.936865692E0,-5.842949524E0,6.047424316E-1,1.069454725E1
7.874284208E0,8.837622070E0,-5.944438477E0,5.858816528E-1,1.066691942E1
7.884292208E0,8.687035217E0,-5.919440460E0,6.018983459E-1,1.052932276E1
7.894300208E0,8.549770660E0,-5.818101196E0,6.246510315E-1,1.036045698E1
7.904308208E0,8.447682953E0,-5.799689484E0,6.554869080E-1,1.026788237E1
7.914316208E0,8.325836334E0,-5.756728821E0,7.720944214E-1,1.015163076E1
7.924325208E0,8.225694580E0,-5.617667999E0,8.523275757E-1,9.997335013E0
7.934333208E0,8.143814850E0,-5.472020874E0,9.199868774E-1,9.854496872E0
7.944341208E0,8.127648468E0,-5.380860443E0,9.327104187E-1,9.791949625E0
7.954349208E0,8.143814850E0,-5.272635498E0,9.110055542E-1,9.744348953E0
7.964358208E0,8.233179016E0,-5.178780670E0,9.096583557E-1,9.768955127E0
7.974366208E0,8.346044312E0,-5.082830200E0,8.405021667E-1,9.808061092E0
7.984374208E0,8.458460541E0,-4.975204010E0,7.129673767E-1,9.839031057E0
7.994382208E0,8.608897705E0,-4.864434357E0,6.089337158E-1,9.906898686E0
8.004390208E0,8.777447205E0,-4.770429840E0,5.294490051E-1,1.000404401E1
8.014399208E0,8.904383240E0,-4.679269409E0,4.248165894E-1,1.006797260E1
8.024407208E0,9.065148926E0,-4.642745361E0,3.409909058E-1,1.019059784E1
8.034415208E0,9.287586365E0,-4.724176025E0,2.823129272E-1,1.042385726E1
8.044423208E0,9.559421082E0,-4.870421906E0,1.984872437E-1,1.073046775E1
8.054432208E0,9.849368134E0,-5.065915375E0,1.457968140E-1,1.107676884E1
8.064440208E0,1.014051270E1,-5.298831024E0,1.868115234E-1,1.144301125E1
8.074448208E0,1.042177780E1,-5.588628387E0,1.821711731E-1,1.182706245E1
8.084456208E0,1.075842773E1,-5.981411591E0,2.291734314E-1,1.231152194E1
8.094464208E0,1.120899078E1,-6.532864838E0,3.312611389E-1,1.297804035E1
8.104473208E0,1.173065598E1,-7.286547546E0,3.742218018E-1,1.381456140E1
8.114481208E0,1.233899094E1,-8.186027069E0,3.957769775E-1,1.481277745E1
8.124489208E0,1.301199142E1,-9.048683167E0,4.177812195E-1,1.585449870E1
8.134497208E0,1.360011841E1,-9.722282410E0,2.883004761E-1,1.672032037E1
8.144506208E0,1.403406601E1,-9.875114594E0,3.068618774E-1,1.716295607E1
8.154514208E0,1.434422104E1,-9.651180267E0,4.611909485E-1,1.729493148E1
8.164522208E0,1.420441177E1,-9.348659363E0,6.538403320E-1,1.701735152E1
8.174530208E0,1.362796051E1,-8.936716003E0,9.144483948E-1,1.632245130E1
8.184538208E0,1.294687683E1,-8.384813690E0,1.145717468E0,1.546736528E1
8.194547208E0,1.242551102E1,-7.922724609E0,1.195264435E0,1.478484178E1
8.204555208E0,1.198452805E1,-7.612719269E0,1.016536102E0,1.423431603E1
8.214563208E0,1.147154480E1,-7.373666382E0,8.626560974E-1,1.366424061E1
8.224571208E0,1.093341385E1,-7.205565948E0,8.178991699E-1,1.311978194E1
8.234580208E0,1.038929535E1,-7.135960693E0,7.400610352E-1,1.262565179E1
8.244588208E0,9.942773895E0,-7.131769409E0,4.998106384E-1,1.224625242E1
8.254596208E0,9.598789215E0,-7.176825714E0,3.597019958E-1,1.199053657E1
8.264604208E0,9.198671265E0,-7.314389648E0,3.902384949E-1,1.175874717E1
8.274612208E0,8.795709229E0,-7.406597900E0,3.098556519E-1,1.150296500E1
8.284621208E0,8.400830383E0,-7.565417633E0,2.386038208E-1,1.130780380E1
8.294629208E0,8.006101227E0,-7.764204254E0,3.643423462E-1,1.115855142E1
8.304637208E0,7.613767090E0,-7.916737061E0,5.358856201E-1,1.099687903E1
8.314645208E0,7.304659882E0,-8.092770996E0,6.367758179E-1,1.092046161E1
8.324654208E0,7.054230652E0,-8.243657227E0,7.161108398E-1,1.087349389E1
8.334662208E0,6.801556091E0,-8.321645050E0,7.460485840E-1,1.077346416E1
8.344670208E0,6.586154022E0,-8.333171082E0,8.087681580E-1,1.065238335E1
8.354678208E0,6.425837402E0,-8.333320770E0,7.994874573E-1,1.055342606E1
8.364686208E0,6.323150940E0,-8.271499329E0,7.795788574E-1,1.044067441E1
8.374695208E0,6.251899109E0,-8.121660919E0,7.617658997E-1,1.027754376E1
8.384703208E0,6.259084167E0,-7.992629242E0,6.640191650E-1,1.017345459E1
8.394711208E0,6.285429382E0,-7.863298187E0,5.197192383E-1,1.008008874E1
8.404719208E0,6.329437866E0,-7.640411682E0,4.833448792E-1,9.933342672E0
8.414728208E0,6.391858063E0,-7.393275604E0,4.176315308E-1,9.782166925E0
8.424736208E0,6.488856354E0,-7.225474548E0,3.264710999E-1,9.716960564E0
8.434744208E0,6.609206085E0,-7.040608978E0,3.147953796E-1,9.661825707E0
8.444752208E0,6.778953094E0,-6.817722473E0,2.761756897E-1,9.618306389E0
8.454756958E0,6.973698120E0,-6.654561768E0,2.077679443E-1,9.641515716E0
8.464765958E0,7.090904388E0,-6.503675537E0,2.258802795E-1,9.624434656E0
8.474773958E0,7.191046143E0,-6.380781097E0,2.454895020E-1,9.616952591E0
8.484781958E0,7.280859375E0,-6.288423157E0,3.522175598E-1,9.627005570E0
8.494789958E0,7.326514435E0,-6.177054749E0,4.457730103E-1,9.593358781E0
8.504798958E0,7.345524902E0,-6.048023071E0,5.084925842E-1,9.528582469E0
8.514806958E0,7.301965485E0,-5.897735596E0,5.754034424E-1,9.403886123E0
8.524814958E0,7.222331085E0,-5.774990845E0,6.924600220E-1,9.273191815E0
8.534822958E0,7.095395050E0,-5.666466522E0,8.367599487E-1,9.118861825E0
8.544831958E0,6.995103607E0,-5.611680450E0,8.975335693E-1,9.012657680E0
8.554839958E0,6.907386017E0,-5.659730530E0,9.271719360E-1,8.977983017E0
8.564847958E0,6.794520721E0,-5.722599792E0,1.017134857E0,8.941377049E0
8.574855958E0,6.727160797E0,-5.839806061E0,1.096619568E0,8.975555788E0
8.584863958E0,6.702611847E0,-5.983357544E0,1.061143341E0,9.047187312E0
8.594872958E0,6.674470367E0,-6.116430817E0,9.599537659E-1,9.103888831E0
8.604880958E0,6.662046204E0,-6.305637360E0,9.228309631E-1,9.219302529E0
8.614888958E0,6.661597137E0,-6.508016510E0,8.768765259E-1,9.354147089E0
8.624896958E0,6.670728149E0,-6.739884338E0,7.298822021E-1,9.510908630E0
8.634905958E0,6.659052429E0,-6.973698120E0,5.770500183E-1,9.659628950E0
8.644913958E0,6.635251923E0,-7.192243652E0,4.968168640E-1,9.798048981E0
8.654921958E0,6.573879547E0,-7.343279572E0,4.159849548E-1,9.864719492E0
8.664929958E0,6.481371918E0,-7.435038757E0,2.511776733E-1,9.866664760E0
8.674937958E0,6.374793549E0,-7.513924713E0,9.370513916E-2,9.854229449E0
8.684946958E0,6.249204712E0,-7.557933197E0,1.945953369E-2,9.806900245E0
8.694954958E0,6.143524475E0,-7.731871490E0,-9.699829102E-2,9.875937342E0
8.704962958E0,6.138435059E0,-8.040230255E0,-2.227368164E-1,1.011806796E1
8.714970958E0,6.171815643E0,-8.375832367E0,-3.794609070E-1,1.041104542E1
8.724979958E0,6.195017395E0,-8.605005798E0,-5.266049194E-1,1.061610466E1
8.734987958E0,6.112389221E0,-8.603209534E0,-5.292993164E-1,1.056677217E1
8.744995958E0,5.919739838E0,-8.417296143E0,-4.384382629E-1,1.029982632E1
8.755003958E0,5.705385590E0,-8.129145355E0,-2.689906311E-1,9.935128831E0
8.765012958E0,5.591322784E0,-7.850724335E0,-3.577560425E-2,9.638363085E0
8.775020958E0,5.614973602E0,-7.557184753E0,8.966354370E-2,9.415254086E0
8.785028958E0,5.680537262E0,-7.243886261E0,1.776805115E-1,9.207277671E0
8.795036958E0,5.834417267E0,-7.074738007E0,3.293151855E-1,9.176098910E0
8.805044958E0,5.992488556E0,-6.963369598E0,3.417393494E-1,9.193216034E0
8.815053958E0,6.222859497E0,-6.987619171E0,2.775228882E-1,9.360973291E0
8.825061958E0,6.568041687E0,-7.138206024E0,1.339714050E-1,9.701087835E0
8.835069958E0,6.972051544E0,-7.337292023E0,-1.212478638E-1,1.012225558E1
8.845077958E0,7.472610626E0,-7.634274445E0,-3.977229309E-1,1.069019361E1
8.855086958E0,8.099357300E0,-7.924371185E0,-6.111790466E-1,1.134763355E1
8.865094958E0,8.747659149E0,-8.185278625E0,-8.734336853E-1,1.201179475E1
8.875102958E0,9.347611542E0,-8.438701630E0,-1.181942139E0,1.264857755E1
8.885110958E0,1.002210892E1,-8.608748016E0,-1.380579071E0,1.328379494E1
8.895118958E0,1.049003586E1,-8.581205292E0,-1.635648651E0,1.365112754E1
8.905127958E0,1.075543396E1,-8.450227661E0,-1.823657684E0,1.379896498E1
8.915135958E0,1.084464844E1,-8.019124146E0,-1.773511963E0,1.360360601E1
8.925143958E0,1.079091019E1,-7.597600708E0,-1.715133362E0,1.330822909E1
8.935151958E0,1.059826080E1,-7.153623962E0,-1.555714874E0,1.288090512E1
8.945160958E0,1.035381912E1,-6.603667603E0,-1.356628876E0,1.235517860E1
8.955168958E0,1.016640884E1,-6.252647552E0,-1.112636261E0,1.198705258E1
8.965176958E0,9.987979889E0,-5.952521667E0,-8.361611938E-1,1.165724762E1
8.975184958E0,9.815089417E0,-5.664670258E0,-7.072792053E-1,1.135450189E1
8.985192958E0,9.736652527E0,-5.604345703E0,-6.526428223E-1,1.125331222E1
8.995201958E0,9.535770264E0,-5.652844849E0,-4.614903259E-1,1.109497827E1
9.005209958E0,9.240135040E0,-5.758974152E0,-1.877096558E-1,1.088949557E1
9.015217958E0,8.929980011E0,-5.877527618E0,3.023712158E-2,1.069068698E1
9.025225958E0,8.673563232E0,-6.043083344E0,1.658551025E-1,1.057246723E1
9.035234958E0,8.424331512E0,-6.229745178E0,2.550695801E-1,1.048065584E1
9.045242958E0,8.184380493E0,-6.351591797E0,3.794609070E-1,1.036681209E1
9.055250958E0,7.984096985E0,-6.413562927E0,4.745132446E-1,1.025206111E1
9.065258958E0,7.811356201E0,-6.484365692E0,5.484594727E-1,1.016686244E1
9.075267958E0,7.633825378E0,-6.502627716E0,6.264472961E-1,1.004748194E1
9.085275958E0,7.575446777E0,-6.515500946E0,7.523355103E-1,1.002023728E1
9.095283958E0,7.507787476E0,-6.534511414E0,7.752378845E-1,9.983371473E0
9.105291958E0,7.397616577E0,-6.495143280E0,9.044192505E-1,9.885827807E0
9.115299958E0,7.317533112E0,-6.481371918E0,1.043180695E0,9.830701844E0
9.125308958E0,7.272925873E0,-6.480773163E0,1.103954315E0,9.803804704E0
9.135316958E0,7.243137817E0,-6.453230438E0,1.186283112E0,9.773151802E0
9.145324958E0,7.293283539E0,-6.445147247E0,1.211730194E0,9.808169956E0
9.155332958E0,7.380102997E0,-6.411167908E0,1.218915253E0,9.851636848E0
9.165341958E0,7.429200897E0,-6.327940979E0,1.272653503E0,9.841519697E0
9.175349958E0,7.525450745E0,-6.238576813E0,1.348994751E0,9.867727013E0
9.185357958E0,7.678282928E0,-6.071973267E0,1.340462494E0,9.880370832E0
9.195365958E0,7.816295929E0,-5.870492249E0,1.263522491E0,9.856655131E0
9.205373958E0,7.982450409E0,-5.731880493E0,1.181193695E0,9.897938526E0
9.215382958E0,8.208630066E0,-5.598657532E0,1.150507507E0,1.000251175E1
9.225390958E0,8.469387817E0,-5.512885895E0,1.044527893E0,1.015940350E1
9.235398958E0,8.794960785E0,-5.490582275E0,8.779243469E-1,1.040521889E1
9.245406958E0,9.176816711E0,-5.500312042E0,7.101232910E-1,1.072248444E1
9.255415958E0,9.524992676E0,-5.498815155E0,6.373745728E-1,1.101674634E1
9.265423958E0,9.742490387E0,-5.472919006E0,6.450086975E-1,1.119307811E1
9.275431958E0,9.919871521E0,-5.445675659E0,6.497987366E-1,1.133496682E1
9.285439958E0,1.011835876E1,-5.417983246E0,6.638694763E-1,1.149680170E1
9.295448958E0,1.029903305E1,-5.477559357E0,7.250921631E-1,1.168757875E1
9.305456958E0,1.050994446E1,-5.770799561E0,8.116122437E-1,1.201747788E1
9.315464958E0,1.082833237E1,-6.283483429E0,8.749305725E-1,1.254991830E1
9.325472958E0,1.133113678E1,-7.061864777E0,9.508227539E-1,1.338538975E1
9.335480958E0,1.189022415E1,-8.041577454E0,9.755213928E-1,1.438735696E1
9.345489958E0,1.237132370E1,-8.861123199E0,8.755293274E-1,1.524256232E1
9.355497958E0,1.274973679E1,-9.074130249E0,8.436456299E-1,1.567186542E1
9.365505958E0,1.290735901E1,-8.986412659E0,8.890013123E-1,1.575264589E1
9.375513958E0,1.277263916E1,-8.905131683E0,1.074615326E0,1.560757763E1
9.385522958E0,1.226609253E1,-8.542136536E0,1.396895142E0,1.501254271E1
9.395530958E0,1.164697998E1,-8.003706207E0,1.661694489E0,1.422928966E1
9.405538958E0,1.114387619E1,-7.534282379E0,1.753154297E0,1.356557914E1
9.415546958E0,1.080004120E1,-7.263495483E0,1.685794373E0,1.312406794E1
9.425555958E0,1.042132874E1,-7.142696686E0,1.557062073E0,1.272975455E1
9.435563958E0,1.008752289E1,-7.222181396E0,1.449735260E0,1.249078678E1
9.445571958E0,9.799372101E0,-7.406448212E0,1.221759338E0,1.234406192E1
9.455579375E0,9.599986725E0,-7.648195496E0,9.045689392E-1,1.230743208E1
9.465587375E0,9.443112946E0,-7.964487762E0,7.315287781E-1,1.237499825E1
9.475596375E0,9.263935547E0,-8.287965088E0,6.969506836E-1,1.244976335E1
9.485604375E0,9.040150909E0,-8.550369415E0,5.560935974E-1,1.245561663E1
9.495612375E0,8.833580475E0,-8.823251953E0,5.143304443E-1,1.249585751E1
9.505620375E0,8.584947510E0,-8.995094604E0,6.433621216E-1,1.245098251E1
9.515629375E0,8.278534698E0,-9.112300873E0,8.199948120E-1,1.233857996E1
9.525637375E0,7.986641693E0,-9.160650330E0,9.970765686E-1,1.219418393E1
9.535645375E0,7.763755188E0,-9.100625153E0,1.174757080E0,1.201987217E1
9.545653375E0,7.543862457E0,-9.079219666E0,1.263672180E0,1.187177147E1
9.555662375E0,7.410938873E0,-8.875044250E0,1.381028137E0,1.164455513E1
9.565670375E0,7.377408600E0,-8.657247162E0,1.340761871E0,1.145302268E1
9.575678375E0,7.353757782E0,-8.531808014E0,1.218765564E0,1.132938176E1
9.585686375E0,7.307953033E0,-8.383616180E0,1.131946106E0,1.117910997E1
9.595694375E0,7.301666107E0,-8.241112518E0,1.023870850E0,1.105796432E1
9.605703375E0,7.317982178E0,-8.115224304E0,8.887019348E-1,1.096355416E1
9.615711375E0,7.329358521E0,-8.005951538E0,7.613168335E-1,1.088091723E1
9.625719375E0,7.329059143E0,-7.907905426E0,6.038442993E-1,1.079882883E1
9.635727375E0,7.349416809E0,-7.829917603E0,4.857398987E-1,1.074976653E1
9.645736375E0,7.393425293E0,-7.740254059E0,4.297563171E-1,1.071256090E1
9.655744375E0,7.426805878E0,-7.628436584E0,3.350033569E-1,1.065188798E1
9.665752375E0,7.479645996E0,-7.517666931E0,3.324586487E-1,1.060994576E1
9.675760375E0,7.525450745E0,-7.368576965E0,3.302133179E-1,1.053742740E1
9.685768375E0,7.537575531E0,-7.215146027E0,3.336561584E-1,1.043957391E1
9.695777375E0,7.503446503E0,-7.049141235E0,3.932322693E-1,1.030275367E1
9.705785375E0,7.431296539E0,-6.881340179E0,5.072950745E-1,1.014072775E1
9.715793375E0,7.331005096E0,-6.685697021E0,6.144721985E-1,9.940812666E0
9.725801375E0,7.194788361E0,-6.482569427E0,6.942562866E-1,9.709308818E0
9.735810375E0,7.037615204E0,-6.317013702E0,7.610174561E-1,9.487456848E0
9.745818375E0,6.854396210E0,-6.202651520E0,8.818162537E-1,9.286185071E0
9.755826375E0,6.644981689E0,-6.085744629E0,9.801617432E-1,9.063817429E0
9.765834375E0,6.469247131E0,-6.036946106E0,1.018482056E0,8.906917673E0
9.775843375E0,6.291566620E0,-6.047723694E0,1.124761047E0,8.799082897E0
9.785851375E0,6.097570038E0,-6.064039764E0,1.173858948E0,8.679336579E0
9.795859375E0,5.914201355E0,-6.134692841E0,1.175655212E0,8.601999715E0
9.805867375E0,5.736371155E0,-6.197262726E0,1.262025604E0,8.538426550E0
9.815875375E0,5.547613678E0,-6.257587280E0,1.337019653E0,8.468827407E0
9.825884375E0,5.364244995E0,-6.333928528E0,1.305435333E0,8.402257814E0
9.835892375E0,5.226830750E0,-6.403384094E0,1.325194244E0,8.371333665E0
9.845900375E0,5.083279266E0,-6.440357208E0,1.400637360E0,8.323443643E0
9.855908375E0,4.947212219E0,-6.459367676E0,1.456022186E0,8.265490918E0
9.865917375E0,4.795278168E0,-6.461163940E0,1.487606506E0,8.182561047E0
9.875925375E0,4.713697815E0,-6.415508881E0,1.520837402E0,8.104976724E0
9.885933375E0,4.509073334E0,-6.553821259E0,1.461111603E0,8.088211331E0
9.895941375E0,4.429888000E0,-6.544989624E0,1.512754211E0,8.046690138E0
9.905950375E0,4.484823761E0,-6.554120636E0,1.410666504E0,8.065985461E0
9.915958375E0,4.658312988E0,-6.873556366E0,1.207688599E0,8.390719204E0
9.925966375E0,5.072501678E0,-7.405550079E0,8.099656677E-1,9.012684930E0
9.935974375E0,5.517376556E0,-7.856861572E0,3.873944092E-1,9.608422985E0
9.945982375E0,5.904022522E0,-8.211623840E0,-6.286926270E-3,1.011376723E1
9.955991375E0,6.196963348E0,-8.291856995E0,-3.427871704E-1,1.035735247E1
9.965999375E0,6.237379303E0,-8.083190918E0,-5.369334412E-1,1.022404878E1
9.976007375E0,6.227350159E0,-7.851772156E0,-5.454656982E-1,1.003632148E1
9.986015375E0,6.444698181E0,-7.483687592E0,-4.779560852E-1,9.887778144E0
9.996024375E0,6.599027252E0,-7.107669525E0,-6.878196716E-1,9.723128234E0
1.000603237E1,6.721023560E0,-6.731801147E0,-7.391629028E-1,9.541261247E0
1.001604037E1,6.975943451E0,-6.476581879E0,-8.048762512E-1,9.552890957E0
1.002604837E1,7.281009064E0,-6.386469269E0,-9.644444275E-1,9.732945893E0
1.003605638E1,7.674391022E0,-6.484066315E0,-1.255738678E0,1.012503201E1
1.004606537E1,8.117469635E0,-6.625821533E0,-1.672172699E0,1.061088996E1
1.005607337E1,8.698710938E0,-6.869963837E0,-2.069147186E0,1.127587447E1
1.006608138E1,9.243577881E0,-7.149282990E0,-2.401156769E0,1.192985889E1
1.007608937E1,9.818083191E0,-7.390730896E0,-2.762205963E0,1.259553264E1
1.008609837E1,1.045426025E1,-7.557334442E0,-3.128344574E0,1.327371090E1
1.009610638E1,1.099029556E1,-7.619155884E0,-3.312910767E0,1.377728241E1
1.010611437E1,1.140912460E1,-7.619155884E0,-3.352428589E0,1.412297554E1
1.011612237E1,1.171523804E1,-7.506589966E0,-3.309168549E0,1.430196810E1
1.012613138E1,1.191761719E1,-7.331454163E0,-3.149600372E0,1.434223839E1
1.013613937E1,1.213825836E1,-7.180567932E0,-2.936743011E0,1.440563540E1
1.014614737E1,1.213092361E1,-6.914271698E0,-2.661914520E0,1.421450843E1
1.015615537E1,1.199171310E1,-6.627767487E0,-2.415975952E0,1.391277919E1
1.016616437E1,1.174547516E1,-6.277046814E0,-2.188149719E0,1.349612917E1
1.017617237E1,1.142020157E1,-5.917943573E0,-1.987566833E0,1.301512512E1
1.018618037E1,1.107457031E1,-5.530698853E0,-2.050885162E0,1.254754428E1
1.019618837E1,1.048180298E1,-5.449417877E0,-1.732946320E0,1.194016130E1
1.020619638E1,1.000504440E1,-5.170098724E0,-1.656904449E0,1.138315276E1
1.021620537E1,9.666598206E0,-4.983287201E0,-1.709744568E0,1.100906439E1
1.022621337E1,9.247918854E0,-4.993316345E0,-1.661544800E0,1.064039202E1
1.023622138E1,8.776698761E0,-5.104834442E0,-1.404828644E0,1.025003997E1
1.024622937E1,8.421337738E0,-5.202132111E0,-1.394051056E0,9.996223594E0
1.025623837E1,8.177644501E0,-5.356012115E0,-1.220711517E0,9.851440096E0
1.026624637E1,8.006550293E0,-5.561983795E0,-1.036744080E0,9.803843615E0
1.027625437E1,7.828420715E0,-5.755980377E0,-9.120533752E-1,9.759473467E0
1.028626237E1,7.605234833E0,-5.871989136E0,-7.846682739E-1,9.640308998E0
1.029627137E1,7.437583466E0,-5.983207855E0,-6.521937561E-1,9.567746900E0
1.030627937E1,7.249275055E0,-6.045777740E0,-5.641767883E-1,9.456305450E0
1.031628737E1,7.136110382E0,-6.073170776E0,-4.891827393E-1,9.383324273E0
1.032629537E1,7.111262054E0,-6.066734161E0,-5.010081482E-1,9.360893149E0
1.033630337E1,7.138505402E0,-6.130351868E0,-5.375321960E-1,9.424882718E0
1.034631237E1,7.248526611E0,-6.181096344E0,-6.213578796E-1,9.546369764E0
1.035632037E1,7.431446228E0,-6.161487122E0,-7.191046143E-1,9.680259709E0
1.036632837E1,7.693700867E0,-6.130501556E0,-9.096583557E-1,9.879451436E0
1.037633637E1,7.902816010E0,-6.151158600E0,-1.119821320E0,1.007696645E1
1.038634538E1,8.151448975E0,-6.197113037E0,-1.272653503E0,1.031842901E1
1.039635337E1,8.446635132E0,-6.249055023E0,-1.413360901E0,1.060160001E1
1.040636137E1,8.747659149E0,-6.332581329E0,-1.598675537E0,1.091690846E1
1.041636937E1,9.030720520E0,-6.467151489E0,-1.759291534E0,1.124602455E1
1.042637837E1,9.239386597E0,-6.589147797E0,-1.824106750E0,1.149393313E1
1.043638637E1,9.351353760E0,-6.707252197E0,-1.824256439E0,1.165173638E1
1.044639437E1,9.404792633E0,-6.841672668E0,-1.699715424E0,1.175362250E1
1.045640262E1,9.397308197E0,-6.932384033E0,-1.630559235E0,1.179093182E1
1.046641162E1,9.345964966E0,-6.997798004E0,-1.686093750E0,1.179657366E1
1.047641962E1,9.217232666E0,-6.932683411E0,-1.686991882E0,1.165613224E1
1.048642762E1,9.022038574E0,-6.862928467E0,-1.538350983E0,1.143955816E1
1.049643563E1,8.899593201E0,-6.998247070E0,-1.365759888E0,1.140366263E1
1.050644362E1,8.761729889E0,-7.214547272E0,-1.289867706E0,1.142284385E1
1.051645262E1,8.653804321E0,-7.525151367E0,-1.231489105E0,1.153398447E1
1.052646063E1,8.483907623E0,-7.832013245E0,-1.135987701E0,1.160205103E1
1.053646862E1,8.189170532E0,-8.037685547E0,-9.042695618E-1,1.151019576E1
1.054647662E1,7.840994568E0,-8.349786530E0,-4.589456177E-1,1.146345332E1
1.055648562E1,7.481292572E0,-8.660390625E0,1.303788757E-1,1.144504709E1
1.056649362E1,7.296427002E0,-8.862320709E0,6.060896301E-1,1.149547389E1
1.057650162E1,7.106322327E0,-9.030720520E0,9.310638428E-1,1.152912009E1
1.058650962E1,6.744225311E0,-8.992699585E0,1.194515991E0,1.130398555E1
1.059651862E1,6.369404755E0,-8.744066620E0,1.332528992E0,1.089970878E1
1.060652662E1,5.996081085E0,-8.420738983E0,1.366658020E0,1.042734806E1
1.061653462E1,5.641917572E0,-8.112080841E0,1.484612732E0,9.992055065E0
1.062654262E1,5.388045502E0,-7.847281494E0,1.604214020E0,9.653204846E0
1.063655062E1,5.379213867E0,-7.720195770E0,1.640438690E0,9.551356116E0
1.064655963E1,5.520070953E0,-7.754773865E0,1.798659668E0,9.687253358E0
1.065656762E1,5.781128082E0,-7.942483521E0,2.142943726E0,1.005468519E1
1.066657562E1,6.164780273E0,-8.267757111E0,2.400558014E0,1.058881496E1
1.067658362E1,6.494245148E0,-8.600515137E0,2.770139465E0,1.112734260E1
1.068659262E1,6.735393677E0,-8.908724213E0,3.179388428E0,1.161203711E1
1.069660062E1,6.975644073E0,-9.116641846E0,3.464844818E0,1.199074303E1
1.070660862E1,7.170838165E0,-9.265881500E0,3.811673584E0,1.232097137E1
1.071661662E1,7.332801361E0,-9.266779633E0,4.124073944E0,1.251603637E1
1.072662562E1,7.641309814E0,-9.147627411E0,4.277504883E0,1.266355996E1
1.073663362E1,8.013585663E0,-8.913514252E0,4.357438660E0,1.275364901E1
1.074664162E1,8.369994507E0,-8.618926849E0,4.455035706E0,1.281366658E1
1.075664963E1,8.681496735E0,-8.308173065E0,4.664599915E0,1.289002008E1
1.076665762E1,8.963360596E0,-7.973618774E0,4.884792023E0,1.295305457E1
1.077666662E1,9.172326050E0,-7.666607208E0,5.018464050E0,1.296508437E1
1.078667463E1,9.354048157E0,-7.342231750E0,5.116510162E0,1.294547258E1
1.079668262E1,9.532327423E0,-7.138056335E0,5.180427246E0,1.298668321E1
1.080669062E1,9.637708282E0,-7.042554932E0,5.232518921E0,1.303312147E1
1.081669963E1,9.671537933E0,-6.990163879E0,5.193001099E0,1.301415758E1
1.082670762E1,9.621841278E0,-7.034471741E0,5.105283508E0,1.296640050E1
1.083671562E1,9.436975708E0,-7.101532288E0,5.054389343E0,1.284659967E1
1.084672362E1,9.129365387E0,-7.216193848E0,4.981191559E0,1.265823982E1
1.085673262E1,8.779243469E0,-7.390281830E0,4.842430115E0,1.245554137E1
1.086674062E1,8.478818207E0,-7.516619110E0,4.694986725E0,1.226510584E1
1.087674862E1,8.200097809E0,-7.592511292E0,4.558320923E0,1.206922207E1
1.088675662E1,7.956254883E0,-7.690856781E0,4.363276520E0,1.189493387E1
1.089676562E1,7.712861023E0,-7.775430908E0,4.132306824E0,1.170561876E1
1.090677362E1,7.564818878E0,-7.911947021E0,3.975283356E0,1.164595501E1
1.091678162E1,7.397915955E0,-8.019273834E0,3.879781952E0,1.157975048E1
1.092678962E1,7.237599335E0,-8.059240723E0,3.745511169E0,1.146137248E1
1.093679762E1,7.119345245E0,-8.050409088E0,3.594774628E0,1.133210342E1
1.094680662E1,6.988816681E0,-8.005053406E0,3.470233612E0,1.117886219E1
1.095681462E1,6.864275665E0,-7.951165466E0,3.312012634E0,1.101402471E1
1.096682262E1,6.803801422E0,-7.908953247E0,3.162473602E0,1.090158220E1
1.097683062E1,6.792125702E0,-7.796387329E0,2.964585114E0,1.075664408E1
1.098683962E1,6.906338196E0,-7.726033630E0,2.730471954E0,1.071655635E1
1.099684762E1,7.068002014E0,-7.789052582E0,2.488125916E0,1.080818038E1
1.100685562E1,7.270231476E0,-7.917784882E0,2.245480499E0,1.098133716E1
1.101686363E1,7.520960083E0,-8.045469360E0,2.052531738E0,1.120300425E1
1.102687262E1,7.712262268E0,-8.231682129E0,1.836381226E0,1.142855529E1
1.103688062E1,7.950417023E0,-8.434360657E0,1.650617523E0,1.170777984E1
1.104688863E1,8.198750610E0,-8.616082764E0,1.563348999E0,1.199585153E1
1.105689662E1,8.429869995E0,-8.803043976E0,1.526076508E0,1.228353373E1
1.106690562E1,8.641679535E0,-8.988807678E0,1.509011993E0,1.256003208E1
1.107691363E1,8.795709229E0,-9.095386047E0,1.565594330E0,1.274918169E1
1.108692162E1,8.918453979E0,-9.220525818E0,1.662592621E0,1.293526698E1
1.109692962E1,9.018595734E0,-9.340875549E0,1.755249939E0,1.310221078E1
1.110693762E1,9.129365387E0,-9.430988159E0,1.904489594E0,1.326333030E1
1.111694662E1,9.199868774E0,-9.460027771E0,2.010918274E0,1.334816479E1
1.112695462E1,9.275760956E0,-9.498198395E0,2.058219910E0,1.343472304E1
1.113696262E1,9.314530334E0,-9.492510223E0,2.045346680E0,1.345554416E1
1.114697062E1,9.338031464E0,-9.497599640E0,1.977986755E0,1.346535043E1
1.115697962E1,9.289532318E0,-9.504934387E0,1.892215118E0,1.342459185E1
1.116698762E1,9.208999786E0,-9.494007111E0,1.796863403E0,1.334805477E1
1.117699562E1,9.145831146E0,-9.491462402E0,1.654808807E0,1.328429441E1
1.118700363E1,9.038504333E0,-9.470805359E0,1.478475494E0,1.317484742E1
1.119701262E1,8.910221100E0,-9.451495514E0,1.326092377E0,1.305684987E1
1.120702062E1,8.781339111E0,-9.429790649E0,1.211580505E0,1.294220984E1
1.121702863E1,8.584199066E0,-9.384135590E0,1.124012604E0,1.276768886E1
1.122703662E1,8.359965363E0,-9.346713409E0,1.070573730E0,1.258555523E1
1.123704562E1,8.150850220E0,-9.313632202E0,1.020278320E0,1.241857769E1
1.124705362E1,7.968080292E0,-9.301507416E0,9.636959839E-1,1.228564421E1
1.125706162E1,7.766000519E0,-9.245823212E0,9.030720520E-1,1.210832565E1
1.126706962E1,7.517816620E0,-9.083410950E0,8.252339172E-1,1.181976870E1
1.127707762E1,7.241191864E0,-8.966653748E0,7.548802185E-1,1.155013347E1
1.128708662E1,7.025490417E0,-8.878337402E0,7.012916565E-1,1.134346511E1
1.129709462E1,6.845714264E0,-8.850495300E0,5.647755432E-1,1.120330497E1
1.130710262E1,6.727909241E0,-8.911717987E0,3.849993896E-1,1.117281096E1
1.131711062E1,6.606062622E0,-8.871152344E0,1.942959595E-1,1.106233059E1
1.132711962E1,6.422095184E0,-8.774902496E0,-3.592529297E-2,1.087398322E1
1.133712762E1,6.135740662E0,-8.580307159E0,-2.198927307E-1,1.055070316E1
1.134713562E1,5.742957458E0,-8.146658936E0,-2.585124207E-1,9.970779350E0
1.135714362E1,5.304070129E0,-7.623945923E0,-2.580633545E-1,9.291087561E0
1.136715263E1,4.902604980E0,-7.093748474E0,-2.754272461E-1,8.627436652E0
1.137716062E1,4.571792908E0,-6.537654877E0,-2.439926147E-1,7.981337862E0
1.138716862E1,4.300706635E0,-6.094127197E0,-2.624043274E-1,7.463465675E0
1.139717662E1,4.233047333E0,-5.887407074E0,-2.646496582E-1,7.256052041E0
1.140718562E1,4.360282745E0,-5.835614777E0,-3.531156921E-1,7.293226730E0
1.141719362E1,4.596790924E0,-5.929469604E0,-5.656736755E-1,7.523900803E0
1.142720162E1,4.872367859E0,-6.093528442E0,-7.572752380E-1,7.838655702E0
1.143720962E1,5.122946777E0,-6.275250549E0,-8.993298340E-1,8.150591837E0
1.144721862E1,5.387446747E0,-6.486161957E0,-1.062340851E0,8.498437943E0
1.145722633E1,5.632187805E0,-6.658453674E0,-1.203647003E0,8.803710065E0
1.146723433E1,5.904172211E0,-6.691385193E0,-1.228944397E0,9.008006973E0
1.147724233E1,6.148314514E0,-6.779102783E0,-1.309626617E0,9.245167807E0
1.148725033E1,6.420448608E0,-6.843468933E0,-1.333277435E0,9.478019629E0
1.149725933E1,6.574777679E0,-6.803202667E0,-1.362766113E0,9.558681894E0
1.150726733E1,6.819818115E0,-6.856042786E0,-1.300645294E0,9.757403342E0
1.151727533E1,6.841073914E0,-6.754703522E0,-1.333277435E0,9.705871454E0
1.152728333E1,6.828050995E0,-6.658453674E0,-1.281784515E0,9.622902746E0
1.153729233E1,6.741530914E0,-6.550528107E0,-1.200054474E0,9.476169494E0
1.154730033E1,6.651567993E0,-6.477779388E0,-1.121168518E0,9.352112137E0
1.155730833E1,6.576573944E0,-6.433770905E0,-1.137185211E0,9.270270929E0
1.156731633E1,6.543343048E0,-6.467899933E0,-1.104553070E0,9.266558437E0
1.157732533E1,6.533313904E0,-6.527925110E0,-9.897418213E-1,9.288572855E0
1.158733333E1,6.560706940E0,-6.633006592E0,-9.199868774E-1,9.374754815E0
1.159734133E1,6.640640717E0,-6.770720215E0,-8.904981995E-1,9.525426416E0
1.160734933E1,6.675967255E0,-6.869215393E0,-9.048683167E-1,9.621509527E0
1.161735833E1,6.707102509E0,-6.979685669E0,-8.367599487E-1,9.716038458E0
1.162736633E1,6.743177490E0,-7.014563141E0,-8.241860962E-1,9.764928133E0
1.163737433E1,6.750661926E0,-7.040908356E0,-9.138496399E-1,9.796986684E0
1.164738233E1,6.743925934E0,-7.033723297E0,-9.187893677E-1,9.787643962E0
1.165739133E1,6.737489319E0,-7.003336487E0,-8.800199890E-1,9.757813251E0
1.166739933E1,6.743027802E0,-6.993457031E0,-9.222322083E-1,9.758451590E0
1.167740733E1,6.787934418E0,-6.995253296E0,-8.716374207E-1,9.786182817E0
1.168741533E1,6.824757843E0,-6.972201233E0,-8.891510010E-1,9.796912736E0
1.169742333E1,6.862329712E0,-6.957082672E0,-9.530680847E-1,9.818396364E0
1.170743233E1,6.924600220E0,-6.978488159E0,-9.485774231E-1,9.876699060E0
1.171744033E1,7.013066254E0,-7.025939484E0,-9.482780457E-1,9.972269308E0
1.172744833E1,7.096592560E0,-7.057673492E0,-1.021775208E0,1.006063644E1
1.173745633E1,7.190297699E0,-7.109016724E0,-1.049916687E0,1.016566893E1
1.174746533E1,7.274123383E0,-7.141349487E0,-1.060694275E0,1.024874704E1
1.175747333E1,7.363487549E0,-7.202721863E0,-1.101708984E0,1.035924292E1
1.176748133E1,7.458539886E0,-7.221582642E0,-1.134191437E0,1.044353692E1
1.177748933E1,7.553292847E0,-7.233108673E0,-1.178050232E0,1.052415775E1
1.178749833E1,7.667505341E0,-7.264842682E0,-1.244362335E0,1.063564831E1
1.179750633E1,7.822882233E0,-7.345973969E0,-1.228495331E0,1.080138976E1
1.180751433E1,7.994575195E0,-7.411238251E0,-1.264869690E0,1.097449681E1
1.181752233E1,8.227490845E0,-7.444768524E0,-1.345851288E0,1.117709710E1
1.182753133E1,8.443341980E0,-7.484585724E0,-1.403930511E0,1.137013932E1
1.183753933E1,8.577163696E0,-7.517966309E0,-1.430724792E0,1.149497838E1
1.184754733E1,8.684191132E0,-7.506290588E0,-1.385967865E0,1.156202754E1
1.185755533E1,8.775800629E0,-7.473957825E0,-1.289718018E0,1.159905577E1
1.186756333E1,8.903485107E0,-7.353608093E0,-1.197060699E0,1.160950272E1
1.187757233E1,8.995393982E0,-7.326215057E0,-1.127455444E0,1.165597253E1
1.188758033E1,9.056766357E0,-7.262896729E0,-9.630972290E-1,1.164913053E1
1.189758833E1,9.171278229E0,-7.175328827E0,-8.083190918E-1,1.167266327E1
1.190759633E1,9.305698700E0,-7.117249603E0,-6.342311096E-1,1.173258366E1
1.191760533E1,9.446705475E0,-7.045399017E0,-3.839515686E-1,1.179089948E1
1.192761333E1,9.541159058E0,-6.978039093E0,-1.959425354E-1,1.182223072E1
1.193762133E1,9.618697815E0,-6.911128235E0,-3.847000122E-2,1.184417667E1
1.194762933E1,9.687404938E0,-6.817722473E0,2.029779053E-1,1.184771515E1
1.195763833E1,9.740095367E0,-6.713239746E0,4.929249573E-1,1.183976438E1
1.196764633E1,9.782606964E0,-6.608307953E0,6.984475708E-1,1.182611356E1
1.197765433E1,9.835746460E0,-6.533912659E0,8.810678101E-1,1.184103896E1
1.198766233E1,9.907896423E0,-6.469097443E0,1.088985443E0,1.188282469E1
1.199767133E1,9.985584869E0,-6.445895691E0,1.246907043E0,1.195057545E1
1.200767933E1,1.008063721E1,-6.555168457E0,1.310225372E0,1.209570876E1
1.201768733E1,1.026789780E1,-6.825356598E0,1.425785065E0,1.241161073E1
1.202769533E1,1.050844757E1,-7.214547272E0,1.493444366E0,1.283384349E1
1.203770433E1,1.084704346E1,-7.749235382E0,1.524579620E0,1.341765046E1
1.204771233E1,1.121497833E1,-8.427175598E0,1.520238647E0,1.411042711E1
1.205772033E1,1.162243103E1,-9.076974335E0,1.464255066E0,1.481946048E1
1.206772833E1,1.189681046E1,-9.312734070E0,1.382525024E0,1.517143666E1
1.207773733E1,1.202718933E1,-9.249565430E0,1.381028137E0,1.523532023E1
1.208774533E1,1.194680649E1,-8.894054718E0,1.491348724E0,1.496845067E1
1.209775333E1,1.163844772E1,-8.333320770E0,1.675765228E0,1.441200505E1
1.210776133E1,1.121288269E1,-7.736960907E0,1.901046753E0,1.375511836E1
1.211776933E1,1.090167984E1,-7.263046417E0,1.920206909E0,1.323954913E1
1.212777833E1,1.075333832E1,-7.012617188E0,1.766326904E0,1.295881922E1
1.213778633E1,1.058029816E1,-6.918912048E0,1.536105652E0,1.273474278E1
1.214779433E1,1.034004776E1,-6.954987030E0,1.272054749E0,1.252623469E1
1.215780233E1,1.007719437E1,-7.145540771E0,9.804611206E-1,1.239233244E1
1.216781133E1,9.905202026E0,-7.500602417E0,7.406597900E-1,1.244671204E1
1.217781933E1,9.736053772E0,-7.910899200E0,5.848338318E-1,1.255846726E1
1.218782733E1,9.582772522E0,-8.299940186E0,3.778143311E-1,1.268311003E1
1.219783533E1,9.493108978E0,-8.750652924E0,2.272274780E-1,1.291296546E1
1.220784433E1,9.387728119E0,-9.188642120E0,1.580712891E-1,1.313718272E1
1.221785233E1,9.252708893E0,-9.542955322E0,9.624984741E-2,1.329247464E1
1.222786033E1,9.081764374E0,-9.788594513E0,8.756790161E-2,1.335300321E1
1.223786833E1,8.899892578E0,-9.951006775E0,1.073268127E-1,1.335073566E1
1.224787733E1,8.675509186E0,-1.002959335E1,1.707948303E-1,1.326221600E1
1.225788533E1,8.499475250E0,-9.954150238E0,3.011737061E-1,1.309262739E1
1.226789333E1,8.300688629E0,-9.883946228E0,3.855981445E-1,1.291288158E1
1.227790133E1,8.131839752E0,-9.775721283E0,4.005670166E-1,1.272210668E1
1.228790933E1,8.023614807E0,-9.651180267E0,4.022135925E-1,1.255728677E1
1.229791833E1,7.834258575E0,-9.522747345E0,3.855981445E-1,1.233722053E1
1.230792633E1,7.492519226E0,-9.286388855E0,4.215234375E-1,1.193953702E1
1.231793433E1,7.131020966E0,-8.950786743E0,4.333488464E-1,1.145232878E1
1.232794233E1,6.789431305E0,-8.612490234E0,3.872447205E-1,1.097366502E1
1.233795133E1,6.535559235E0,-8.290809174E0,3.603007507E-1,1.056318455E1
1.234795933E1,6.357279968E0,-8.020171967E0,2.541714478E-1,1.023732241E1
1.235796733E1,6.332880707E0,-7.874824219E0,7.978408813E-2,1.010567168E1
1.236797533E1,6.416856079E0,-7.808212738E0,-9.669891357E-2,1.010710536E1
1.237798433E1,6.533313904E0,-7.726183319E0,-2.933898926E-1,1.012245903E1
1.238799233E1,6.565047913E0,-7.550299072E0,-4.394860840E-1,1.001498968E1
1.239800033E1,6.503675537E0,-7.374863892E0,-4.944218445E-1,9.845347423E0
1.240800833E1,6.432723083E0,-7.199279022E0,-5.011578369E-1,9.667507636E0
1.241801733E1,6.380182343E0,-7.044949951E0,-5.183720398E-1,9.518758118E0
1.242802533E1,6.392307129E0,-6.918013916E0,-5.676196289E-1,9.436243904E0
1.243803333E1,6.391109619E0,-6.760990448E0,-5.349874878E-1,9.318985224E0
1.244804133E1,6.367009735E0,-6.607709198E0,-4.459226990E-1,9.186919008E0
1.245805433E1,6.330186310E0,-6.559808807E0,-4.351451111E-1,9.126428742E0
1.246806233E1,6.260880432E0,-6.439010010E0,-3.555107117E-1,8.988095547E0
1.247807033E1,6.191275177E0,-6.313271484E0,-2.966830444E-1,8.847446297E0
1.248807833E1,6.047274628E0,-6.308780823E0,-3.180885315E-1,8.744794235E0
1.249808733E1,5.851481781E0,-6.191275177E0,-2.628533936E-1,8.522958363E0
1.250809533E1,5.726791077E0,-6.111640778E0,-1.660047913E-1,8.377102519E0
1.251810333E1,5.632487183E0,-6.062243500E0,-1.368154907E-1,8.276135970E0
1.252811133E1,5.522915039E0,-6.030808868E0,-1.990859985E-1,8.180029424E0
1.253811933E1,5.420228577E0,-6.040688324E0,-1.663041687E-1,8.117662861E0
1.254812833E1,5.335504761E0,-6.146967316E0,-1.799258423E-1,8.141571810E0
1.255813633E1,5.303621063E0,-6.397246857E0,-2.612068176E-1,8.313927636E0
1.256814433E1,5.374124451E0,-6.652615814E0,-3.327580261E-1,8.558576908E0
1.257815233E1,5.460195465E0,-6.922953644E0,-3.981719971E-1,8.826072887E0
1.258816133E1,5.499264221E0,-7.255412292E0,-4.879852295E-1,9.117074316E0
1.259816933E1,5.641917572E0,-7.665260010E0,-5.171745300E-1,9.531784429E0
1.260817733E1,5.881419525E0,-8.167765045E0,-5.478607178E-1,1.007986274E1
1.261818533E1,6.181096344E0,-8.778345337E0,-6.087840271E-1,1.075341420E1
1.262819433E1,6.403683472E0,-9.285341034E0,-5.915698242E-1,1.129489597E1
1.263820233E1,6.486760712E0,-9.514813843E0,-5.059478760E-1,1.152673979E1
1.264821033E1,6.422693939E0,-9.501641235E0,-3.652404785E-1,1.147456248E1
1.265821833E1,6.288423157E0,-9.384734344E0,-1.335223389E-1,1.129758084E1
1.266822733E1,6.246061249E0,-9.239536285E0,1.628613281E-1,1.115387088E1
1.267823533E1,6.309978333E0,-8.952433319E0,4.153862000E-1,1.096058550E1
1.268824333E1,6.506819000E0,-8.668773193E0,5.586383057E-1,1.085349708E1
1.269825133E1,6.751260681E0,-8.394244080E0,6.376739502E-1,1.079117614E1
1.270826033E1,7.049440613E0,-8.224347382E0,6.466552734E-1,1.085139004E1
1.271826833E1,7.393425293E0,-8.078849945E0,6.195616150E-1,1.096879258E1
1.272827633E1,7.857759705E0,-8.066725159E0,4.260140991E-1,1.126933584E1
1.273828433E1,8.406368866E0,-8.140521698E0,1.740879822E-1,1.170322339E1
1.274829333E1,9.038803711E0,-8.155490570E0,-1.011895752E-1,1.217465557E1
1.275830133E1,9.617649994E0,-8.102800140E0,-4.941224670E-1,1.258565527E1
1.276830933E1,9.896819458E0,-8.031847687E0,-8.774752808E-1,1.277605477E1
1.277831733E1,1.024334885E1,-7.979905701E0,-1.140927429E0,1.303483049E1
1.278832633E1,1.043584854E1,-7.497908020E0,-1.316212921E0,1.291735174E1
1.279833433E1,1.054467224E1,-7.215445404E0,-1.562001801E0,1.287216434E1
1.280834233E1,1.043435165E1,-6.929689636E0,-1.817370758E0,1.265697947E1
1.281835033E1,1.014784744E1,-6.565047913E0,-1.905836792E0,1.223563957E1
1.282835833E1,9.785151672E0,-6.260431366E0,-1.864822083E0,1.176519254E1
1.283836733E1,9.533075867E0,-6.053711243E0,-1.748513947E0,1.142734686E1
1.284837533E1,9.385931854E0,-5.902974701E0,-1.579216003E0,1.119976563E1
1.285838333E1,9.271719360E0,-5.868995361E0,-1.402283936E0,1.106238160E1
1.286839133E1,9.159303131E0,-5.930517426E0,-1.219364319E0,1.097955920E1
1.287840033E1,9.037157135E0,-6.060147858E0,-1.002764740E0,1.092708279E1
1.288840833E1,8.853189697E0,-6.234385529E0,-7.330256653E-1,1.085282716E1
1.289841633E1,8.613987122E0,-6.414311371E0,-4.769082642E-1,1.075042353E1
1.290842433E1,8.279283142E0,-6.566245422E0,-2.583627319E-1,1.057018730E1
1.291843333E1,8.034991150E0,-6.745871887E0,-1.098715210E-1,1.049189888E1
1.292844133E1,7.833510132E0,-6.883884888E0,5.089416504E-2,1.042853500E1
1.293844933E1,7.651338959E0,-6.923552399E0,2.336640930E-1,1.032149042E1
1.294845733E1,7.480693817E0,-6.936725006E0,3.727249146E-1,1.020871479E1
1.295846633E1,7.332951050E0,-6.904990997E0,5.188211060E-1,1.008564560E1
1.296847433E1,7.235503693E0,-6.823859711E0,6.783892822E-1,9.968840808E0
1.297848233E1,7.189549255E0,-6.737189941E0,8.080197144E-1,9.885961899E0
1.298849033E1,7.157665558E0,-6.600973206E0,8.761280823E-1,9.776125199E0
1.299849933E1,7.168742523E0,-6.486611023E0,8.994795227E-1,9.709585745E0
1.300850733E1,7.154671783E0,-6.336173859E0,9.265731812E-1,9.601820940E0
1.301851533E1,7.154671783E0,-6.166576538E0,1.011895752E0,9.499469856E0
1.302852333E1,7.175628204E0,-6.031407623E0,1.033301239E0,9.430547677E0
1.303853233E1,7.171885986E0,-5.887107697E0,1.037193146E0,9.336474455E0
1.304854033E1,7.172035675E0,-5.794450378E0,1.065783691E0,9.281683349E0
1.305854833E1,7.278614044E0,-5.810317383E0,1.115180969E0,9.379852829E0
1.306855633E1,7.435487823E0,-5.845194855E0,1.109941864E0,9.522854247E0
1.307856533E1,7.607031097E0,-5.903573456E0,1.056053925E0,9.686813282E0
1.308857333E1,7.773035889E0,-5.942043457E0,1.063388672E0,9.841684959E0
1.309858133E1,7.900420990E0,-5.926026764E0,1.080303497E0,9.934862891E0
1.310858933E1,8.021219788E0,-5.932313690E0,1.072369995E0,1.003405651E1
1.311859733E1,8.169561310E0,-5.903423767E0,1.037642212E0,1.013256362E1
1.312860633E1,8.320597229E0,-5.876928864E0,1.020428009E0,1.023776853E1
1.313861433E1,8.504864044E0,-5.876928864E0,9.819580078E-1,1.038437513E1
1.314862233E1,8.739575958E0,-5.906866608E0,9.211843872E-1,1.058866572E1
1.315863033E1,9.039851532E0,-5.966293030E0,8.655001831E-1,1.086575625E1
1.316863933E1,9.263486481E0,-5.985902252E0,7.604187012E-1,1.105538078E1
1.317864733E1,9.430838470E0,-5.949827271E0,7.140151978E-1,1.117367337E1
1.318865533E1,9.561067657E0,-5.876928864E0,7.502398682E-1,1.124789614E1
1.319866333E1,9.615853729E0,-5.817053375E0,8.208929443E-1,1.126839022E1
1.320867233E1,9.799970856E0,-5.915099487E0,9.036708069E-1,1.148235392E1
1.321868033E1,1.015742752E1,-6.244863739E0,9.190887451E-1,1.195894565E1
1.322868833E1,1.069166656E1,-6.922654266E0,8.867559814E-1,1.276797604E1
1.323869633E1,1.132619705E1,-7.864346008E0,8.948391724E-1,1.381779342E1
1.324870533E1,1.199291061E1,-8.820108490E0,8.619076538E-1,1.491197853E1
1.325871333E1,1.260528717E1,-9.474996643E0,7.453001404E-1,1.578683940E1
1.326872133E1,1.287861877E1,-9.582772522E0,7.328759766E-1,1.606939507E1
1.327872933E1,1.284164566E1,-9.317973175E0,9.223818970E-1,1.589286871E1
1.328873833E1,1.248793121E1,-8.814120941E0,1.345851288E0,1.534433021E1
1.329874633E1,1.188453598E1,-8.458460541E0,1.659449158E0,1.468133242E1
1.330875433E1,1.130883316E1,-8.007897491E0,1.850152588E0,1.397995688E1
1.331876233E1,1.106499023E1,-7.714058533E0,1.901944885E0,1.362197131E1
1.332877133E1,1.085183350E1,-7.630083160E0,1.793719940E0,1.338648163E1
1.333877933E1,1.051727921E1,-7.677534485E0,1.579066315E0,1.311682691E1
1.334878733E1,1.017703674E1,-7.828720093E0,1.348096619E0,1.291039502E1
1.335879533E1,9.883497162E0,-8.027806091E0,1.057850189E0,1.277686322E1
1.336880433E1,9.645192719E0,-8.267607422E0,8.659492493E-1,1.273314349E1
1.337881233E1,9.380243683E0,-8.502918091E0,8.164022827E-1,1.268680812E1
1.338882033E1,9.145831146E0,-8.731941833E0,7.629634094E-1,1.266787862E1
1.339882833E1,8.992250519E0,-9.014404449E0,7.466473389E-1,1.275451054E1
1.340883733E1,8.814869385E0,-9.231303406E0,7.146139526E-1,1.278395705E1
1.341884533E1,8.610843658E0,-9.332193604E0,7.888595581E-1,1.272237263E1
1.342885333E1,8.384214935E0,-9.361233215E0,8.945397949E-1,1.259872806E1
1.343886133E1,8.138426056E0,-9.297465820E0,8.943901062E-1,1.238857470E1
1.344887033E1,7.932005310E0,-9.153165894E0,9.357041931E-1,1.214795030E1
1.345887446E1,7.757019196E0,-8.985364838E0,9.247769165E-1,1.190644113E1
1.346888246E1,7.589367828E0,-8.783434753E0,8.422984314E-1,1.163858654E1
1.347889046E1,7.457342377E0,-8.575367432E0,7.346722412E-1,1.138809138E1
1.348889946E1,7.370672607E0,-8.343649292E0,6.164181519E-1,1.115003451E1
1.349890746E1,7.304959259E0,-8.137827301E0,4.596940613E-1,1.094522643E1
1.350891546E1,7.254214783E0,-7.974067841E0,3.576063538E-1,1.078597573E1
1.351892346E1,7.197782135E0,-7.839347992E0,2.335144043E-1,1.064509153E1
1.352893246E1,7.134613495E0,-7.742948456E0,1.387614441E-1,1.052973007E1
1.353894046E1,7.059769135E0,-7.669301605E0,9.669891357E-2,1.042438862E1
1.354894846E1,6.976691895E0,-7.603737946E0,6.750961304E-2,1.031967141E1
1.355895646E1,6.904541931E0,-7.520361328E0,1.086740112E-1,1.020981605E1
1.356896546E1,6.827302551E0,-7.416776733E0,1.706451416E-1,1.008215042E1
1.357897346E1,6.743327179E0,-7.333100739E0,2.514770508E-1,9.965443723E0
1.358898146E1,6.659202118E0,-7.269183655E0,3.546125793E-1,9.864672014E0
1.359898946E1,6.587650909E0,-7.222480774E0,4.237687683E-1,9.784730605E0
1.360899846E1,6.529571686E0,-7.202123108E0,5.535488892E-1,9.737160779E0
1.361900646E1,6.443949738E0,-7.158713379E0,6.245013428E-1,9.652029185E0
1.362901446E1,6.346203003E0,-7.096891937E0,6.795867920E-1,9.544737080E0
1.363902246E1,6.268514557E0,-6.995103607E0,8.069718933E-1,9.427457391E0
1.364903146E1,6.189029846E0,-6.900650024E0,8.178991699E-1,9.305483343E0
1.365903946E1,6.102210388E0,-6.846911774E0,8.652008057E-1,9.212260574E0
1.366904746E1,6.027515717E0,-6.790479126E0,9.285191345E-1,9.127086077E0
1.367905546E1,5.973777466E0,-6.751260681E0,8.933422852E-1,9.058896094E0
1.368906446E1,5.904172211E0,-6.747817841E0,8.494834900E-1,9.006326515E0
1.369907246E1,5.833818512E0,-6.749614105E0,8.650511169E-1,8.963204920E0
1.370908046E1,5.809119873E0,-6.809639282E0,8.577163696E-1,8.991815068E0
1.371908846E1,5.807173920E0,-6.912325745E0,7.860154724E-1,9.062082347E0
1.372909746E1,5.848488007E0,-7.019802246E0,7.150630188E-1,9.164810454E0
1.373910546E1,5.854475555E0,-7.107370148E0,6.068380737E-1,9.228100936E0
1.374911346E1,5.847889252E0,-7.228019257E0,5.459147644E-1,9.313436208E0
1.375912146E1,5.831273804E0,-7.335495758E0,4.240681458E-1,9.380462994E0
1.376913046E1,5.740562439E0,-7.376061401E0,3.137475586E-1,9.351939716E0
1.377913846E1,5.650599518E0,-7.434889069E0,2.647993469E-1,9.342214356E0
1.378914646E1,5.625451813E0,-7.637268219E0,1.781295776E-1,9.487112527E0
1.379915446E1,5.754633179E0,-7.990982666E0,1.182540894E-2,9.847423360E0
1.380916346E1,6.007307739E0,-8.497379608E0,-1.704954529E-1,1.040779877E1
1.381917146E1,6.213578796E0,-9.055419159E0,-3.418890381E-1,1.098754139E1
1.382917946E1,6.268963623E0,-9.317075043E0,-4.658312988E-1,1.123943019E1
1.383918746E1,6.239175568E0,-9.256900177E0,-3.731739807E-1,1.116945708E1
1.384919646E1,6.069129181E0,-9.014404449E0,-2.927911377E-1,1.087104150E1
1.385920446E1,5.820795593E0,-8.664132843E0,-1.806742859E-1,1.043942060E1
1.386921246E1,5.721402283E0,-8.293653259E0,-1.601669312E-2,1.007568286E1
1.387922046E1,5.754483490E0,-7.904163208E0,6.960525513E-2,9.777255297E0
1.388922946E1,5.883964233E0,-7.564369812E0,9.430389404E-3,9.583361346E0
1.389923746E1,6.158044281E0,-7.429051208E0,-6.840774536E-2,9.649714547E0
1.390924546E1,6.504873047E0,-7.445516968E0,-1.899549866E-1,9.888638894E0
1.391925346E1,6.774911499E0,-7.541317749E0,-4.337979126E-1,1.014687537E1
1.392926246E1,7.159761200E0,-7.731422424E0,-6.978488159E-1,1.056049554E1
1.393927046E1,7.646548920E0,-7.918084259E0,-9.716294861E-1,1.105033179E1
1.394927846E1,8.125702515E0,-8.083041229E0,-1.223106537E0,1.152642991E1
1.395928646E1,8.540489960E0,-8.170459442E0,-1.421294403E0,1.190447202E1
1.396929546E1,8.909023590E0,-8.149203644E0,-1.575174408E0,1.217626362E1
1.397930346E1,9.168434143E0,-8.057145081E0,-1.708097992E0,1.232458398E1
1.398931146E1,9.459878082E0,-7.854316864E0,-1.714384918E0,1.241445538E1
1.399931946E1,9.497899017E0,-7.561825104E0,-1.641037445E0,1.225088930E1
1.400932846E1,9.429940338E0,-7.317233734E0,-1.490749969E0,1.202863333E1
1.401933646E1,9.244476013E0,-6.996001740E0,-1.271006927E0,1.166275421E1
1.402934446E1,9.055419159E0,-6.724017334E0,-9.918374634E-1,1.132240111E1
1.403935246E1,8.904383240E0,-6.598278809E0,-7.171586609E-1,1.110583813E1
1.404936146E1,8.827742615E0,-6.587351532E0,-4.457730103E-1,1.102365427E1
1.405936946E1,8.776998138E0,-6.629863129E0,-3.147953796E-1,1.100408459E1
1.406937746E1,8.653654633E0,-6.738088074E0,-1.775308228E-1,1.096900572E1
1.407938546E1,8.455766144E0,-6.912475433E0,7.619155884E-2,1.092190930E1
1.408939446E1,8.205636292E0,-7.043003998E0,2.769241333E-1,1.081725747E1
1.409940246E1,8.218808899E0,-6.984625397E0,2.683918762E-1,1.078915408E1
1.410941046E1,8.037236481E0,-7.075187073E0,5.231620789E-1,1.072050096E1
1.411941846E1,7.834108887E0,-7.068002014E0,8.466394043E-1,1.058521199E1
1.412942746E1,7.802225189E0,-7.011868744E0,9.065148926E-1,1.052914006E1
1.413943546E1,7.750432892E0,-7.116650848E0,9.533674622E-1,1.056526568E1
1.414944346E1,7.685467987E0,-7.119494934E0,1.038240967E0,1.052765741E1
1.415945146E1,7.660919037E0,-7.121440887E0,1.062490540E0,1.051349071E1
1.416946046E1,7.683522034E0,-7.125033417E0,1.050665131E0,1.053121594E1
1.417946846E1,7.713010712E0,-7.076384583E0,1.069974976E0,1.052191045E1
1.418947646E1,7.741002502E0,-6.993457031E0,1.079555054E0,1.048794547E1
1.419948546E1,7.733817444E0,-6.875202942E0,1.032852173E0,1.039938130E1
1.420949346E1,7.745942230E0,-6.747967529E0,1.080153809E0,1.032963790E1
1.421950146E1,7.808961182E0,-6.625671844E0,1.129551086E0,1.030316882E1
1.422950946E1,7.905510406E0,-6.484216003E0,1.102756805E0,1.028388178E1
1.423951846E1,8.031548309E0,-6.330635376E0,1.024768982E0,1.027778497E1
1.424952646E1,8.189918976E0,-6.193071442E0,9.325607300E-1,1.031012009E1
1.425953446E1,8.442144470E0,-6.168821869E0,8.213420105E-1,1.048802981E1
1.426954246E1,8.671168213E0,-6.146817627E0,6.813830566E-1,1.065067172E1
1.427955146E1,8.891959076E0,-6.073470154E0,5.860313416E-1,1.078412763E1
1.428955946E1,9.102571106E0,-5.979615326E0,5.065466309E-1,1.090271478E1
1.429956746E1,9.324260101E0,-5.938151550E0,4.456233215E-1,1.106354601E1
1.430957546E1,9.533075867E0,-5.942941589E0,4.266128540E-1,1.124188991E1
1.431958446E1,9.748178558E0,-5.970933380E0,4.694238281E-1,1.144112710E1
1.432959246E1,9.991422729E0,-6.028862915E0,5.099894714E-1,1.168057385E1
1.433960046E1,1.023346939E1,-6.087391205E0,5.584886169E-1,1.192024064E1
1.434960846E1,1.040291702E1,-6.122268677E0,6.978488159E-1,1.209089944E1
1.435961746E1,1.052027298E1,-6.210884399E0,8.966354370E-1,1.224970137E1
1.436962546E1,1.065903442E1,-6.487808533E0,1.019829254E0,1.251985328E1
1.437963346E1,1.094688583E1,-7.041207733E0,1.167122955E0,1.306809442E1
1.438964146E1,1.139699982E1,-7.807164917E0,1.226848755E0,1.386897930E1
1.439965046E1,1.199725159E1,-8.803043976E0,1.189875641E0,1.492794135E1
1.440965846E1,1.258208542E1,-9.734107819E0,1.055754547E0,1.594290896E1
1.441966646E1,1.303459442E1,-1.016057098E1,8.984317017E-1,1.655128496E1
1.442967546E1,1.327619202E1,-1.019679565E1,9.174421692E-1,1.676525026E1
1.443968346E1,1.315689011E1,-9.953102417E0,1.078058167E0,1.653270136E1
1.444969146E1,1.262729141E1,-9.473350067E0,1.458417206E0,1.585307007E1
1.445969946E1,1.191986252E1,-8.844807129E0,1.686243439E0,1.493844545E1
1.446970846E1,1.142334503E1,-8.302784271E0,1.663341064E0,1.421955491E1
1.447971646E1,1.103101089E1,-7.885003052E0,1.616787872E0,1.365541935E1
1.448972446E1,1.055395294E1,-7.655230865E0,1.507664795E0,1.312484421E1
1.449973246E1,1.011267059E1,-7.671397247E0,1.332678680E0,1.276293363E1
1.450974146E1,9.748178558E0,-7.842341766E0,1.128353577E0,1.256194616E1
1.451974946E1,9.530980225E0,-8.042924652E0,9.021739197E-1,1.250368501E1
1.452975746E1,9.338779907E0,-8.325237579E0,7.237449646E-1,1.253180744E1
1.453976546E1,9.140292664E0,-8.607700195E0,6.129753113E-1,1.257032980E1
1.454977446E1,8.933273163E0,-8.852141876E0,5.388793945E-1,1.258785828E1
1.455978246E1,8.723708954E0,-9.108558655E0,5.400769043E-1,1.262381170E1
1.456979046E1,8.511600037E0,-9.254654846E0,6.069877625E-1,1.258826460E1
1.457979846E1,8.290210419E0,-9.347461853E0,6.502478027E-1,1.251101331E1
1.458980746E1,8.042924652E0,-9.371112671E0,7.542814636E-1,1.237236154E1
1.459981546E1,7.800279236E0,-9.328002319E0,8.214916992E-1,1.218732260E1
1.460982346E1,7.599247284E0,-9.221274261E0,8.898994446E-1,1.198216922E1
1.461983246E1,7.450307007E0,-9.065747681E0,9.270222473E-1,1.177090590E1
1.462984046E1,7.328909454E0,-8.969348145E0,9.096583557E-1,1.161850241E1
1.463984846E1,7.215146027E0,-8.887618103E0,8.354127502E-1,1.147806613E1
1.464985646E1,7.159461823E0,-8.793763275E0,7.649093628E-1,1.136544115E1
1.465986546E1,7.140301666E0,-8.710386658E0,6.547384644E-1,1.128199566E1
1.466987346E1,7.171586609E0,-8.628506927E0,5.158273315E-1,1.123160114E1
1.467988146E1,7.216044159E0,-8.545729065E0,3.903881836E-1,1.119165678E1
1.468988946E1,7.242389374E0,-8.496032410E0,2.926414490E-1,1.116782922E1
1.469989846E1,7.292535095E0,-8.421038361E0,2.339634705E-1,1.114224816E1
1.470990646E1,7.341183929E0,-8.326285400E0,2.031275940E-1,1.110230926E1
1.471991446E1,7.376809845E0,-8.204588470E0,2.302212524E-1,1.103565119E1
1.472992246E1,7.410938873E0,-8.092172241E0,2.757266235E-1,1.097639703E1
1.473993146E1,7.423662415E0,-8.000113678E0,3.436853027E-1,1.091928121E1
1.474993946E1,7.397317200E0,-7.869435425E0,4.713697815E-1,1.081066627E1
1.475994746E1,7.322622528E0,-7.674091644E0,5.673202515E-1,1.062235075E1
1.476995546E1,7.212601318E0,-7.484585724E0,6.451583862E-1,1.041426284E1
1.477996446E1,7.050787811E0,-7.281458130E0,7.512876892E-1,1.016354635E1
1.478997246E1,6.890471191E0,-7.115153961E0,8.687933350E-1,9.942776825E0
1.479998046E1,6.738088074E0,-7.015610962E0,9.627978516E-1,9.774845664E0
1.480998946E1,6.580765228E0,-6.949298859E0,1.041683807E0,9.627270162E0
1.481999746E1,6.412664795E0,-6.892566833E0,1.094374237E0,9.477731917E0
1.483000546E1,6.223158875E0,-6.849306793E0,1.136736145E0,9.323780295E0
1.484001346E1,6.043981476E0,-6.931186523E0,1.170715485E0,9.270471048E0
1.485002246E1,5.869145050E0,-6.988966370E0,1.172212372E0,9.201445342E0
1.486003046E1,5.727240143E0,-7.068750458E0,1.134640503E0,9.168201664E0
1.487003846E1,5.605243835E0,-7.209308167E0,1.070424042E0,9.194492391E0
1.488004646E1,5.503904572E0,-7.362739105E0,1.013991394E0,9.248300991E0
1.489005546E1,5.455704803E0,-7.524253235E0,9.382489014E-1,9.341274680E0
1.490006346E1,5.414241028E0,-7.683971100E0,7.958949280E-1,9.433497045E0
1.491007146E1,5.344635773E0,-7.801476746E0,6.500981140E-1,9.478966110E0
1.492007946E1,5.265300751E0,-7.849826202E0,5.028044128E-1,9.465515077E0
1.493008846E1,5.148543549E0,-7.743397522E0,3.242257690E-1,9.304452064E0
1.494009646E1,4.964127045E0,-7.594307556E0,1.451980591E-1,9.073981874E0
1.495010446E1,4.820276184E0,-7.531138916E0,6.735992432E-3,8.941653160E0
1.496011346E1,4.807402954E0,-7.627239075E0,-1.649569702E-1,9.017378215E0
1.497012146E1,4.924010468E0,-7.933502197E0,-4.415817261E-1,9.347798170E0
1.498012946E1,5.090164948E0,-8.354576569E0,-6.342311096E-1,9.803620654E0
1.499013746E1,5.193150787E0,-8.690627747E0,-7.779322815E-1,1.015386647E1
1.500014646E1,5.211412811E0,-8.824299774E0,-8.750802612E-1,1.028556539E1
1.501015446E1,5.193150787E0,-8.843609619E0,-8.181985474E-1,1.028823090E1
1.502016246E1,5.152136078E0,-8.765621796E0,-7.044351196E-1,1.019199983E1
1.503017046E1,5.128335571E0,-8.495433655E0,-4.360432434E-1,9.932892450E0
1.504017946E1,5.165158997E0,-8.078101501E0,-1.969903564E-1,9.590276145E0
1.505018746E1,5.329666901E0,-7.606582031E0,7.484436035E-3,9.287922022E0
1.506019546E1,5.513035583E0,-7.224576416E0,9.849517822E-2,9.088331367E0
1.507020346E1,5.777834930E0,-7.020401001E0,1.044827271E-1,9.092872117E0
1.508021246E1,6.080655212E0,-6.907835083E0,7.963439941E-2,9.203200258E0
1.509022046E1,6.422544250E0,-6.951244812E0,-1.127156067E-1,9.464754825E0
1.510022846E1,6.793921967E0,-7.125482483E0,-3.418890381E-1,9.851231619E0
1.511023746E1,7.234156494E0,-7.444319458E0,-5.566923523E-1,1.039523058E1
1.512024546E1,7.769742737E0,-7.834258575E0,-8.107141113E-1,1.106353321E1
1.513025346E1,8.342302094E0,-8.238567810E0,-1.062041473E0,1.177267751E1
1.514026146E1,8.889264679E0,-8.614286499E0,-1.293609924E0,1.244581797E1
1.515027046E1,9.335337067E0,-8.873098297E0,-1.491797791E0,1.296556409E1
1.516027846E1,9.698781281E0,-8.958570557E0,-1.553020477E0,1.329414222E1
1.517028646E1,9.892029419E0,-8.902437286E0,-1.518143005E0,1.339441652E1
1.518029446E1,9.878407745E0,-8.697513428E0,-1.371298370E0,1.323291875E1
1.519030346E1,9.783355408E0,-8.401578827E0,-1.089584198E0,1.294170636E1
1.520031146E1,9.648785248E0,-8.081095276E0,-7.680528259E-1,1.260924513E1
1.521031946E1,9.535620575E0,-7.818092194E0,-4.131408691E-1,1.233780007E1
1.522032846E1,9.466314697E0,-7.639513550E0,-9.610015869E-2,1.216480647E1
1.523033646E1,9.443112946E0,-7.567812653E0,6.780899048E-2,1.210160190E1
1.524034446E1,9.402098236E0,-7.628137207E0,2.317181396E-1,1.210956737E1
1.525035246E1,9.298513641E0,-7.711214447E0,4.239184570E-1,1.208738562E1
1.526036146E1,9.136849823E0,-7.781418457E0,5.099894714E-1,1.201218494E1
1.527036946E1,9.021589508E0,-7.861501923E0,6.134243774E-1,1.198201065E1
1.528037746E1,8.912316742E0,-7.946076050E0,7.093748474E-1,1.196130122E1
1.529038546E1,8.839418335E0,-7.995024261E0,7.613168335E-1,1.194300351E1
1.530039446E1,8.754245453E0,-8.036787415E0,8.068222046E-1,1.191124374E1
1.531040246E1,8.685987396E0,-8.036637726E0,7.804769897E-1,1.185930299E1
1.532041046E1,8.630303192E0,-7.935897217E0,6.795867920E-1,1.174403832E1
1.533041946E1,8.492888947E0,-7.794441376E0,7.069798279E-1,1.154912549E1
1.534042746E1,8.434959412E0,-7.569159851E0,6.927593994E-1,1.135432238E1
1.535043546E1,8.424930267E0,-7.449857941E0,6.331832886E-1,1.126413576E1
1.536044346E1,8.436156921E0,-7.279512177E0,5.665718079E-1,1.115710736E1
1.537045246E1,8.467292175E0,-7.058272247E0,5.408253479E-1,1.103660890E1
1.538046046E1,8.461454315E0,-6.838229828E0,4.793032837E-1,1.088978090E1
1.539046846E1,8.475375366E0,-6.672973480E0,4.507127380E-1,1.079646723E1
1.540047646E1,8.505163422E0,-6.506819000E0,3.954776001E-1,1.071601143E1
1.541048546E1,8.519832916E0,-6.330785065E0,3.582051086E-1,1.062048508E1
1.542049346E1,8.561446381E0,-6.195017395E0,3.676354980E-1,1.057410802E1
1.543050146E1,8.682544556E0,-6.092929688E0,3.427871704E-1,1.061262810E1
1.544051046E1,8.795409851E0,-5.991291046E0,2.773731995E-1,1.064573806E1
1.545051846E1,8.906329193E0,-5.900429993E0,2.823129272E-1,1.068725757E1
1.546052658E1,9.060957642E0,-5.876330109E0,2.445913696E-1,1.080240871E1
1.547053458E1,9.292226715E0,-5.896238708E0,2.200424194E-1,1.100724883E1
1.548054358E1,9.493258667E0,-5.893843689E0,2.131567383E-1,1.117608113E1
1.549055158E1,9.700727234E0,-5.904172211E0,1.793270874E-1,1.135761932E1
1.550055958E1,9.948162689E0,-5.911057892E0,2.204914856E-1,1.157390007E1
1.551056758E1,1.013766861E1,-5.886808319E0,2.745291138E-1,1.172613335E1
1.552057658E1,1.031624725E1,-5.857768707E0,4.324507141E-1,1.187120151E1
1.553058458E1,1.052521271E1,-5.942193146E0,5.652246094E-1,1.209996863E1
1.554059258E1,1.085348007E1,-6.271358643E0,6.286926270E-1,1.255082560E1
1.555060158E1,1.136586456E1,-6.919810181E0,7.188052368E-1,1.332603959E1
1.556060958E1,1.204590042E1,-7.913593597E0,7.499404907E-1,1.443229335E1
1.557061758E1,1.273851013E1,-8.856782227E0,6.382727051E-1,1.552802704E1
1.558062558E1,1.333457062E1,-9.305998077E0,5.337899780E-1,1.626952075E1
1.559063458E1,1.369322479E1,-9.350006561E0,4.987628174E-1,1.658842344E1
1.560064258E1,1.373049728E1,-9.161847839E0,6.824308777E-1,1.652064537E1
1.561065058E1,1.339085358E1,-8.788224792E0,1.007854156E0,1.604878888E1
1.562065958E1,1.286709274E1,-8.434061279E0,1.307980042E0,1.544041052E1
1.563066758E1,1.244003082E1,-8.161328430E0,1.436113586E0,1.494737672E1
1.564067558E1,1.207434128E1,-8.004304962E0,1.418150940E0,1.455574688E1
1.565068358E1,1.167557053E1,-8.015381927E0,1.317410431E0,1.422325085E1
1.566069258E1,1.125494522E1,-8.209977264E0,1.190025330E0,1.398190541E1
1.567070058E1,1.088506439E1,-8.538544006E0,1.065484314E0,1.387539612E1
1.568070858E1,1.061427750E1,-8.876990204E0,8.963360596E-1,1.386604703E1
1.569071658E1,1.037267990E1,-9.277557220E0,6.331832886E-1,1.393077447E1
1.570072558E1,1.016850449E1,-9.669442291E0,5.319937134E-1,1.404206591E1
1.571073358E1,9.920470276E0,-1.000010468E1,4.549040222E-1,1.409342973E1
1.572074158E1,9.638307037E0,-1.032283356E1,4.077520752E-1,1.412883990E1
1.573075058E1,9.337881775E0,-1.059466827E1,4.936734009E-1,1.413105606E1
1.574075858E1,9.009764099E0,-1.076441528E1,6.535409546E-1,1.405260123E1
1.575076658E1,8.688083038E0,-1.084330124E1,7.964936829E-1,1.391741250E1
1.576077458E1,8.403225403E0,-1.082563797E1,8.786727905E-1,1.373246884E1
1.577078358E1,8.153095551E0,-1.072699310E1,9.460327148E-1,1.350689920E1
1.578079158E1,7.896978149E0,-1.053554123E1,1.000818787E0,1.320460265E1
1.579079958E1,7.650440826E0,-1.029933243E1,9.951306152E-1,1.286840232E1
1.580080858E1,7.464377747E0,-1.003543121E1,1.001118164E0,1.254707346E1
1.581081658E1,7.411387939E0,-9.782606964E0,8.619076538E-1,1.230329041E1
1.582082458E1,7.354506226E0,-9.572144623E0,7.179071045E-1,1.209256404E1
1.583083258E1,7.204967194E0,-9.367220764E0,7.170089722E-1,1.183936143E1
1.584084158E1,7.147636414E0,-9.147328033E0,6.541397095E-1,1.162713272E1
1.585084958E1,7.169341278E0,-8.960516510E0,4.731660461E-1,1.148539057E1
1.586085758E1,7.173233185E0,-8.785081329E0,3.326083374E-1,1.134652178E1
1.587086658E1,7.175328827E0,-8.600515137E0,2.504292297E-1,1.120343337E1
1.588087458E1,7.210954742E0,-8.447982330E0,1.697470093E-1,1.110833416E1
1.589088258E1,7.275769958E0,-8.289761353E0,1.553768921E-1,1.103091627E1
1.590089058E1,7.300917664E0,-8.153394928E0,1.305285645E-1,1.094524030E1
1.591089958E1,7.329208832E0,-8.055498505E0,1.333726501E-1,1.089156309E1
1.592090758E1,7.309749298E0,-7.885152740E0,1.743873596E-1,1.075353335E1
1.593091558E1,7.207811279E0,-7.730075226E0,2.724334717E-1,1.057264520E1
1.594092458E1,7.051685944E0,-7.519313507E0,3.803590393E-1,1.031557188E1
1.595093258E1,6.843917999E0,-7.283853149E0,4.481680298E-1,1.000472813E1
1.596094058E1,6.633904724E0,-7.101232910E0,5.896238708E-1,9.735700131E0
1.597094858E1,6.402635651E0,-6.930887146E0,6.981481934E-1,9.461413785E0
1.598095758E1,6.219416656E0,-6.819668427E0,8.156538391E-1,9.265760205E0
1.599096558E1,6.029162292E0,-6.741680603E0,9.229806519E-1,9.091366706E0
1.600097358E1,5.866750031E0,-6.724167023E0,1.020278320E0,8.981878752E0
1.601098258E1,5.716911621E0,-6.733597412E0,1.085542603E0,8.899596358E0
1.602099058E1,5.536985779E0,-6.769672394E0,1.080453186E0,8.812153819E0
1.603099858E1,5.353467407E0,-6.827152863E0,1.072369995E0,8.741830866E0
1.604100658E1,5.159770203E0,-6.878645782E0,1.049766998E0,8.662621260E0
1.605101558E1,4.957091675E0,-6.929689636E0,1.098415833E0,8.590685285E0
1.606102358E1,4.794529724E0,-6.970404968E0,1.121318207E0,8.534132365E0
1.607103158E1,4.652624817E0,-7.002438354E0,1.069525909E0,8.474959957E0
1.608104058E1,4.521796875E0,-6.986571350E0,1.074016571E0,8.391205980E0
1.609104858E1,4.359833679E0,-6.911876678E0,1.044677582E0,8.238539930E0
1.610105658E1,4.217180328E0,-6.826404419E0,9.333091736E-1,8.078085988E0
1.611106458E1,4.157604218E0,-6.734794922E0,8.291258240E-1,7.958051590E0
1.612107358E1,4.053869934E0,-6.678362274E0,5.932164001E-1,7.834940319E0
1.613108158E1,4.012406158E0,-6.807244263E0,3.814068604E-1,7.910970157E0
1.614108958E1,4.147425385E0,-7.193740540E0,1.176553345E-1,8.304509802E0
1.615109858E1,4.401147766E0,-7.760761414E0,-2.095642090E-1,8.924317147E0
1.616110658E1,4.578678589E0,-8.189020844E0,-5.111869812E-1,9.396045558E0
1.617111458E1,4.678071899E0,-8.414152679E0,-5.794450378E-1,9.644588045E0
1.618112358E1,4.730462952E0,-8.519982605E0,-5.547463989E-1,9.760897853E0
1.619113158E1,4.815635834E0,-8.524024200E0,-4.562512207E-1,9.800892930E0
1.620113958E1,4.950505371E0,-8.428522797E0,-3.260220337E-1,9.780275575E0
1.621114758E1,5.174888763E0,-8.253087616E0,-2.266287231E-1,9.743936037E0
1.622115658E1,5.406756592E0,-7.999065857E0,-1.907034302E-1,9.656833810E0
1.623116458E1,5.706283722E0,-7.811056824E0,-1.992356873E-1,9.675431643E0
1.624117258E1,6.102958832E0,-7.702382813E0,-2.140548706E-1,9.829477452E0
1.625118158E1,6.485862579E0,-7.670648804E0,-4.150868225E-1,1.005373381E1
1.626118958E1,6.911277924E0,-7.835007019E0,-6.560856628E-1,1.046821599E1
1.627119758E1,7.434440002E0,-8.157586212E0,-9.413923645E-1,1.107715354E1
1.628120558E1,8.065976715E0,-8.509354706E0,-1.264570312E0,1.179271962E1
1.629121458E1,8.741222534E0,-8.864416351E0,-1.546434174E0,1.254505111E1
1.630122258E1,9.415869598E0,-9.201365662E0,-1.808688812E0,1.328890837E1
1.631123058E1,1.012479538E1,-9.470655670E0,-2.090402985E0,1.402050587E1
1.632123958E1,1.067220703E1,-9.629475403E0,-2.340682526E0,1.456370812E1
1.633124758E1,1.121108643E1,-9.565558319E0,-2.450254669E0,1.493961555E1
1.634125558E1,1.148351990E1,-9.253157959E0,-2.438129883E0,1.494779712E1
1.635126458E1,1.147064667E1,-8.946146393E0,-2.383792877E0,1.474081879E1
1.636127258E1,1.146196472E1,-8.578211517E0,-2.119891663E0,1.447260477E1
1.637128058E1,1.132290390E1,-8.250093842E0,-1.703008575E0,1.411284661E1
1.638128858E1,1.118399277E1,-7.944878540E0,-1.256038055E0,1.377608148E1
1.639129758E1,1.107636658E1,-7.691006470E0,-1.049168243E0,1.352546602E1
1.640130558E1,1.084659439E1,-7.747588806E0,-9.312135315E-1,1.336191980E1
1.641131358E1,1.055559952E1,-7.641908569E0,-6.727011108E-1,1.304883039E1
1.642132258E1,1.019679565E1,-7.542365570E0,-5.545967102E-1,1.269525492E1
1.643133058E1,9.851613464E0,-7.541467438E0,-5.288502502E-1,1.241803936E1
1.644133858E1,9.512568512E0,-7.400161285E0,-4.342469788E-1,1.205984731E1
1.645134758E1,9.097182312E0,-7.334747314E0,-2.688409424E-1,1.168886306E1
1.646135533E1,8.821006622E0,-7.363936615E0,-3.393443298E-1,1.149577639E1
1.647136333E1,8.534352722E0,-7.399562531E0,-3.466790771E-1,1.130083574E1
1.648137133E1,8.287216644E0,-7.391329651E0,-3.631448364E-1,1.111042699E1
1.649138033E1,8.064479828E0,-7.319029999E0,-2.665956116E-1,1.089381055E1
1.650138833E1,7.887697449E0,-7.275171204E0,-2.686912537E-1,1.073387545E1
1.651139633E1,7.692802734E0,-7.167245636E0,-1.712438965E-1,1.051560499E1
1.652140533E1,7.454049225E0,-6.968309326E0,-3.113525391E-2,1.020397737E1
1.653141333E1,7.201075287E0,-6.743626556E0,1.657054138E-1,9.867088867E0
1.654142133E1,7.029981079E0,-6.531218262E0,3.873944092E-1,9.603516043E0
1.655143033E1,6.947352905E0,-6.337521057E0,5.463638306E-1,9.419575308E0
1.656143833E1,6.948550415E0,-6.180048523E0,6.574328613E-1,9.322423000E0
1.657144633E1,7.003785553E0,-6.080206146E0,7.455995178E-1,9.304721248E0
1.658145433E1,7.094796295E0,-6.000272369E0,8.607101440E-1,9.331678570E0
1.659146333E1,7.224875793E0,-5.916446686E0,8.837622070E-1,9.379989726E0
1.660147133E1,7.373816071E0,-5.872438202E0,8.628057861E-1,9.465892863E0
1.661147933E1,7.555687866E0,-5.845344543E0,8.716374207E-1,9.592508731E0
1.662148833E1,7.695796509E0,-5.772146759E0,8.672964478E-1,9.658942242E0
1.663149633E1,7.854915619E0,-5.704038391E0,8.509803772E-1,9.744738116E0
