"Time (s)","Acceleration x (m/s^2)","Acceleration y (m/s^2)","Acceleration z (m/s^2)","Absolute acceleration (m/s^2)"
-1.649499995E-3,1.634600830E0,5.957611084E-2,-4.433779907E-1,1.694713318E0
8.358500003E-3,1.118324432E0,4.035607910E-1,-3.695814514E-1,1.245030641E0
1.836650000E-2,4.260140991E-1,8.270301819E-1,-1.520837402E-1,9.426539123E-1
2.837450001E-2,-2.917433167E-1,1.236578522E0,2.155517578E-2,1.270710521E0
3.838250000E-2,-9.988728333E-1,1.536704407E0,6.795867920E-2,1.834073541E0
4.839050000E-2,-1.506766663E0,1.610500946E0,1.960922241E-2,2.205548366E0
5.839850000E-2,-1.768422546E0,1.457369385E0,-1.621128845E-1,2.297286315E0
6.840650000E-2,-2.001188507E0,1.062640228E0,-4.834945679E-1,2.316835491E0
7.841450000E-2,-2.303260345E0,6.209088135E-1,-6.313870239E-1,2.467627514E0
8.842250000E-2,-2.739602966E0,2.224374390E-1,-6.438111877E-1,2.823011809E0
9.843050000E-2,-3.275039520E0,-3.537144470E-1,-4.436773682E-1,3.323830227E0
1.084385000E-1,-3.842210083E0,-9.481283569E-1,-1.332229614E-2,3.957486979E0
1.184465000E-1,-4.561464386E0,-1.505868530E0,5.150788879E-1,4.831138958E0
1.284555000E-1,-5.531746674E0,-1.935325470E0,1.037492523E0,5.951646551E0
1.384635000E-1,-6.560257874E0,-2.149679718E0,1.434317322E0,7.050912880E0
1.484715000E-1,-7.765252075E0,-2.111060028E0,1.799857178E0,8.245920209E0
1.584795000E-1,-9.116641846E0,-1.751507721E0,1.679507446E0,9.434070336E0
1.684875000E-1,-1.031295410E1,-1.246757355E0,1.331331482E0,1.047300672E1
1.784955000E-1,-1.120674545E1,-9.277706909E-1,9.592053223E-1,1.128591941E1
1.885035000E-1,-1.219588852E1,-1.068328400E0,5.810916138E-1,1.225637344E1
1.985115000E-1,-1.314626221E1,-1.430275726E0,3.930825806E-1,1.322967923E1
2.085195000E-1,-1.446277451E1,-1.966760101E0,6.985972595E-1,1.461259833E1
2.185275000E-1,-1.648192566E1,-2.519710236E0,1.375489655E0,1.673005633E1
2.285355000E-1,-1.905717041E1,-3.059787140E0,2.385888519E0,1.944814915E1
2.385435000E-1,-2.178824112E1,-2.568209381E0,3.474275208E0,2.221246809E1
2.485515000E-1,-2.505444901E1,-1.287921753E0,3.847898254E0,2.538090775E1
2.585595000E-1,-2.953223740E1,1.154100037E0,3.627406769E0,2.977655239E1
2.685675000E-1,-3.413606369E1,5.417234802E0,3.236419830E0,3.471443058E1
2.785755000E-1,-3.661730392E1,1.155821457E1,4.795427856E0,3.869645202E1
2.885835000E-1,-3.616718994E1,1.807835587E1,7.633076935E0,4.114798224E1
2.985915000E-1,-3.514736069E1,2.348945343E1,1.098610428E1,4.367820822E1
3.085995000E-1,-3.414384750E1,2.588297607E1,1.363110397E1,4.496151430E1
3.186075000E-1,-3.360811157E1,2.521790909E1,1.546973053E1,4.477455377E1
3.286155000E-1,-3.324811020E1,2.298679871E1,1.640378815E1,4.362240264E1
3.386235000E-1,-3.184537720E1,2.061393311E1,1.501288055E1,4.079765765E1
3.486315000E-1,-2.940545105E1,1.835797440E1,1.176164154E1,3.660644734E1
3.586395000E-1,-2.680356171E1,1.602911728E1,8.659492493E0,3.240910877E1
3.686475000E-1,-2.463756592E1,1.366059265E1,6.494694214E0,2.891024903E1
3.786555000E-1,-2.283276901E1,1.163695084E1,5.434149628E0,2.619702173E1
3.886635000E-1,-2.150892197E1,1.010159363E1,5.501659241E0,2.439147745E1
3.986715000E-1,-2.068398743E1,8.966054993E0,6.521787872E0,2.346808887E1
4.086795000E-1,-2.034494247E1,7.864944763E0,7.932903442E0,2.321001933E1
4.186875000E-1,-2.039957886E1,6.811734924E0,9.238787842E0,2.340721579E1
4.286955000E-1,-2.042188248E1,5.594765625E0,1.020113663E1,2.350357153E1
4.387035000E-1,-2.034584061E1,4.207899628E0,1.061607376E1,2.333153813E1
4.487115000E-1,-2.008074188E1,3.041824493E0,1.060155396E1,2.291029980E1
4.587205000E-1,-1.950429062E1,2.031725006E0,1.016161880E1,2.208627981E1
4.687285000E-1,-1.848251541E1,9.993218994E-1,9.546847229E0,2.082652905E1
4.787365000E-1,-1.708502151E1,-1.100212097E-1,8.820108490E0,1.922769821E1
4.887445000E-1,-1.558094925E1,-1.090033264E0,8.186476135E0,1.763441361E1
4.987525000E-1,-1.419079010E1,-1.955533447E0,7.650291138E0,1.623975336E1
5.087605000E-1,-1.265184036E1,-2.682870941E0,6.838828583E0,1.462998419E1
5.187685000E-1,-1.090766739E1,-3.253933411E0,5.848787384E0,1.279740616E1
5.287765000E-1,-9.183852081E0,-3.588637390E0,4.818030853E0,1.097428260E1
5.387845000E-1,-7.602989502E0,-3.773053894E0,3.724405060E0,9.268903824E0
5.487925000E-1,-6.273753662E0,-3.860023041E0,2.877765656E0,7.908305638E0
5.588005000E-1,-5.133574677E0,-3.867357788E0,2.237397308E0,6.805585349E0
5.688085000E-1,-4.105961609E0,-3.959566040E0,1.637893982E0,5.934625570E0
5.788165000E-1,-3.033591614E0,-3.924987946E0,1.112037506E0,5.083781650E0
5.888245000E-1,-2.013762360E0,-3.850592651E0,5.451663208E-1,4.379441623E0
5.988325000E-1,-1.135089569E0,-3.824696503E0,1.960922241E-2,3.989626071E0
6.088405000E-1,-2.652484131E-1,-3.810176697E0,-3.779640198E-1,3.838054192E0
6.188485000E-1,5.087919617E-1,-3.752995605E0,-6.767427063E-1,3.847314124E0
6.288565000E-1,1.054257660E0,-3.593577118E0,-8.897497559E-1,3.849274002E0
6.388645000E-1,1.515598297E0,-3.269051971E0,-1.007255402E0,3.741430533E0
6.488721667E-1,1.767225037E0,-3.033591614E0,-1.478475494E0,3.809416254E0
6.588801667E-1,2.064806213E0,-2.818339233E0,-1.807491302E0,3.933635156E0
6.688881667E-1,2.444716187E0,-2.588716736E0,-1.959575043E0,4.064237434E0
6.788961667E-1,2.746788025E0,-2.459685059E0,-2.081721039E0,4.234200931E0
6.889041667E-1,2.924767914E0,-2.306553497E0,-2.144889679E0,4.298256405E0
6.989121667E-1,3.079845428E0,-2.158810730E0,-2.224673767E0,4.369792329E0
7.089201667E-1,3.211272125E0,-2.014211426E0,-2.238894196E0,4.402495150E0
7.189281667E-1,3.187770996E0,-1.937121735E0,-2.133812714E0,4.297380741E0
7.289361667E-1,3.085234222E0,-1.906285858E0,-1.877845001E0,4.083980635E0
7.389441667E-1,2.973865814E0,-1.880838776E0,-1.611249390E0,3.870084880E0
7.489521667E-1,2.832409973E0,-1.854942627E0,-1.441053314E0,3.679672956E0
7.589611667E-1,2.696642303E0,-1.755848694E0,-1.458566895E0,3.533030107E0
7.689691667E-1,2.544708252E0,-1.624421997E0,-1.546883240E0,3.392216778E0
7.789771667E-1,2.280058594E0,-1.570234680E0,-1.562001801E0,3.178703158E0
7.889851667E-1,1.800156555E0,-1.621128845E0,-1.490749969E0,2.844460903E0
7.989931667E-1,1.311722260E0,-1.594484253E0,-1.355880432E0,2.470102643E0
8.090011667E-1,8.520281982E-1,-1.621278534E0,-1.293909302E0,2.242475734E0
8.190091667E-1,2.887495422E-1,-1.780247955E0,-1.077908478E0,2.101082047E0
8.290171667E-1,-2.176473999E-1,-1.893412628E0,-7.521858215E-1,2.048942479E0
8.390251667E-1,-7.487429810E-1,-1.949396210E0,-6.369255066E-1,2.183216832E0
8.490331667E-1,-1.541644135E0,-1.841470642E0,-4.258644104E-1,2.439065653E0
8.590411667E-1,-2.630928955E0,-1.472338257E0,5.942642212E-2,3.015476514E0
8.690491667E-1,-3.870950317E0,-1.084794159E0,6.438111877E-1,4.071305389E0
8.790571667E-1,-5.147795105E0,-6.098318481E-1,1.644629974E0,5.438427813E0
8.890651667E-1,-6.616989899E0,-7.619155884E-2,3.090922394E0,7.303708765E0
8.990731667E-1,-8.184230804E0,6.676116943E-2,4.673730927E0,9.424958975E0
9.090811667E-1,-9.707163849E0,-1.646575928E-3,5.682183838E0,1.124794407E1
9.190891667E-1,-1.107247467E1,4.490661621E-1,6.056106262E0,1.262845116E1
9.290971667E-1,-1.259540771E1,1.750908966E0,6.262227631E0,1.417481826E1
9.391051667E-1,-1.500868927E1,3.790567474E0,6.853498077E0,1.692925253E1
9.491131667E-1,-1.805051376E1,6.855294342E0,8.463999023E0,2.108211059E1
9.591211667E-1,-2.056588303E1,1.051668045E1,1.114672028E1,2.564771891E1
9.691291667E-1,-2.220931549E1,1.315973419E1,1.565504517E1,3.019126923E1
9.791371667E-1,-2.355097549E1,1.469329514E1,2.087484055E1,3.473183463E1
9.891451667E-1,-2.475656845E1,1.657158920E1,2.430630478E1,3.844868921E1
9.991531667E-1,-2.502990005E1,1.963032852E1,2.551219711E1,4.077643800E1
1.009161167E0,-2.403716446E1,2.271855652E1,2.417442902E1,4.096731751E1
1.019169167E0,-2.245989441E1,2.464415222E1,2.114158585E1,3.948097957E1
1.029177167E0,-2.109503265E1,2.538615921E1,1.803958649E1,3.761494600E1
1.039185167E0,-1.984049149E1,2.536819656E1,1.547691559E1,3.573129462E1
1.049193167E0,-1.851125565E1,2.438219696E1,1.319042038E1,3.333384622E1
1.059201167E0,-1.720611969E1,2.281196228E1,1.103490280E1,3.063013643E1
1.069210167E0,-1.615590363E1,2.126627655E1,9.759105835E0,2.843427310E1
1.079218167E0,-1.525088562E1,1.952704330E1,9.066945190E0,2.638379100E1
1.089226167E0,-1.434886139E1,1.764665359E1,8.685837708E0,2.434621085E1
1.099234167E0,-1.341016342E1,1.576341980E1,8.361312561E0,2.232105362E1
1.109242167E0,-1.257624756E1,1.415052383E1,8.070617065E0,2.057994624E1
1.119250167E0,-1.188094345E1,1.270842270E1,7.896828461E0,1.910551555E1
1.129258167E0,-1.122919876E1,1.127575195E1,7.658673706E0,1.766048612E1
1.139266167E0,-1.075977493E1,9.879455566E0,7.661368103E0,1.649463428E1
1.149274167E0,-1.043360321E1,8.488547974E0,7.790699158E0,1.554382566E1
1.159282167E0,-1.000788849E1,7.070397034E0,7.698490906E0,1.447118200E1
1.169290167E0,-9.426497498E0,5.745053101E0,7.530240784E0,1.336297184E1
1.179298167E0,-8.741821289E0,4.627926178E0,7.266189880E0,1.227333107E1
1.189306167E0,-7.820187836E0,3.480262756E0,6.645580444E0,1.083657262E1
1.199314167E0,-6.710395660E0,2.352657623E0,5.843548279E0,9.203883110E0
1.209322167E0,-5.541775818E0,1.319206696E0,5.004842377E0,7.582877603E0
1.219330167E0,-4.474794617E0,4.249662781E-1,4.117787018E0,6.095945630E0
1.229338167E0,-3.492088165E0,-2.680924988E-1,3.283272400E0,4.800669848E0
1.239346167E0,-2.610870667E0,-6.245013428E-1,2.633024597E0,3.760248143E0
1.249354167E0,-1.917362823E0,-7.557783508E-1,2.089355164E0,2.934771901E0
1.259362167E0,-1.295705566E0,-7.512876892E-1,1.589394836E0,2.183909809E0
1.269370167E0,-8.346643066E-1,-6.418652344E-1,1.193019104E0,1.591210252E0
1.279378167E0,-5.246589661E-1,-4.999603271E-1,1.027613068E0,1.257464105E0
1.289386167E0,-3.623963928E-1,-3.489244080E-1,1.020278320E0,1.137561971E0
1.299394167E0,-1.429527283E-1,-2.508782959E-1,9.999206543E-1,1.040776977E0
1.309402167E0,2.257305908E-1,-1.719923401E-1,9.854008484E-1,1.025451362E0
1.319410167E0,6.375242615E-1,-8.607101440E-2,9.713301086E-1,1.165044026E0
1.329418167E0,9.265731812E-1,2.140548706E-2,9.150471497E-1,1.302423641E0
1.339426167E0,1.049168243E0,2.600093079E-1,9.014254761E-1,1.407453989E0
1.349434167E0,1.149609375E0,6.456074524E-1,8.469387817E-1,1.567072429E0
1.359442167E0,1.383872223E0,1.029259644E0,7.162605286E-1,1.867486784E0
1.369451167E0,1.526675262E0,1.356479187E0,5.191204834E-1,2.107192259E0
1.379459167E0,1.427880707E0,1.730401611E0,4.716691589E-1,2.292510599E0
1.389467167E0,1.394200745E0,2.100432129E0,4.203259277E-1,2.555833471E0
1.399475167E0,1.534758453E0,2.310445404E0,3.128494263E-1,2.791328759E0
1.409483167E0,1.629212036E0,2.343676300E0,1.826202393E-1,2.860157445E0
1.419491167E0,1.620829468E0,2.349963226E0,9.624984741E-2,2.856340204E0
1.429499167E0,1.549128571E0,2.388882294E0,1.122665405E-2,2.847223907E0
1.439507167E0,1.478475494E0,2.459984436E0,-4.685256958E-2,2.870471804E0
1.449515167E0,1.298849030E0,2.675685883E0,-1.686991882E-1,2.979054071E0
1.459523167E0,9.918374634E-1,2.994822235E0,-2.691403198E-1,3.166249877E0
1.469531167E0,7.203021240E-1,3.198249207E0,-2.728825378E-1,3.289695733E0
1.479539167E0,5.231620789E-1,3.208428040E0,-2.853067017E-1,3.263297253E0
1.489547167E0,2.667453003E-1,3.056943054E0,-2.863545227E-1,3.081891108E0
1.499555167E0,-7.229965210E-2,2.882256317E0,-2.588117981E-1,2.894755994E0
1.509563167E0,-4.225712585E-1,2.728376312E0,-2.577639771E-1,2.772912916E0
1.519571167E0,-5.977070618E-1,2.570454712E0,-3.198847961E-1,2.658348630E0
1.529579167E0,-8.964857483E-1,2.268682251E0,-3.061134338E-1,2.458518108E0
1.539587167E0,-1.344803467E0,1.768272858E0,-2.140548706E-2,2.221653316E0
1.549595167E0,-1.735191650E0,1.353635101E0,4.641847229E-1,2.249152175E0
1.559603167E0,-2.234852600E0,1.013242950E0,1.181493073E0,2.723445116E0
1.569611167E0,-2.910846863E0,7.518864441E-1,2.042053528E0,3.634328727E0
1.579619167E0,-3.474574585E0,5.233117676E-1,2.687361603E0,4.423622513E0
1.589627167E0,-3.695515137E0,4.942721558E-1,2.934647369E0,4.744817412E0
1.599635167E0,-4.048181763E0,8.053253174E-1,2.825973358E0,5.002244483E0
1.609643167E0,-4.793332214E0,1.308279419E0,2.714754639E0,5.661936197E0
1.619651167E0,-5.651048584E0,1.951641541E0,2.570155334E0,6.507607336E0
1.629659167E0,-6.560706940E0,2.597099304E0,2.809357910E0,7.594754256E0
1.639668167E0,-7.692653046E0,3.148702240E0,3.419339447E0,8.987942976E0
1.649677000E0,-8.774902496E0,3.593427429E0,4.406087494E0,1.045587115E1
1.659685000E0,-9.698930969E0,3.888613586E0,5.788013763E0,1.194536232E1
1.669693000E0,-1.049916687E1,4.085005188E0,7.040159912E0,1.328471392E1
1.679701000E0,-1.163440613E1,4.739593964E0,8.154592438E0,1.497733403E1
1.689709000E0,-1.319161789E1,6.165528717E0,9.373208313E0,1.731731968E1
1.699717000E0,-1.496977020E1,8.179291077E0,1.035172348E1,1.995377161E1
1.709725000E0,-1.722992020E1,1.094883179E1,1.130823441E1,2.333716420E1
1.719733000E0,-1.928933762E1,1.442879517E1,1.278386581E1,2.727078841E1
1.729741000E0,-2.056139236E1,1.756357635E1,1.471664658E1,3.078684389E1
1.739749000E0,-2.134366562E1,1.967882767E1,1.615380798E1,3.322279086E1
1.749757000E0,-2.192805038E1,2.143003601E1,1.712888031E1,3.512099625E1
1.759765000E0,-2.184437439E1,2.255030640E1,1.759695694E1,3.599091419E1
1.769773000E0,-2.098156860E1,2.283785843E1,1.703457642E1,3.538319930E1
1.779781000E0,-1.969170090E1,2.242651382E1,1.579335754E1,3.376598509E1
1.789789000E0,-1.802865921E1,2.121193954E1,1.431847458E1,3.130491409E1
1.799797000E0,-1.629092285E1,1.953437805E1,1.265004410E1,2.840791631E1
1.809805000E0,-1.471065903E1,1.781610123E1,1.094538895E1,2.556596353E1
1.819813000E0,-1.334070786E1,1.626323044E1,9.565708008E0,2.310778916E1
1.829821000E0,-1.233584747E1,1.494641876E1,8.742569733E0,2.126031731E1
1.839829000E0,-1.184007843E1,1.379441437E1,8.564440155E0,2.009534673E1
1.849837000E0,-1.175026520E1,1.272084686E1,8.902137909E0,1.947143386E1
1.859845000E0,-1.168754562E1,1.164039368E1,9.432335358E0,1.900174829E1
1.869853000E0,-1.156959091E1,1.043869263E1,9.774374084E0,1.839456785E1
1.879861000E0,-1.137349869E1,9.098230133E0,9.845625916E0,1.758040425E1
1.889869000E0,-1.094987961E1,7.815098419E0,9.674382019E0,1.657013259E1
1.899877000E0,-1.030786469E1,6.659501495E0,9.259744263E0,1.537348036E1
1.909885000E0,-9.596693573E0,5.589077454E0,8.657546539E0,1.408145683E1
1.919893000E0,-8.820108490E0,4.682562561E0,7.992030487E0,1.279035798E1
1.929901000E0,-8.011789398E0,3.800446930E0,7.349267120E0,1.151711307E1
1.939909000E0,-7.276967468E0,2.977608032E0,6.803052979E0,1.039720804E1
1.949917000E0,-6.526428223E0,2.255809021E0,6.176905060E0,9.264831127E0
1.959926000E0,-5.648503876E0,1.453028412E0,5.453758850E0,7.985009280E0
1.969934000E0,-4.740492096E0,6.963519287E-1,4.699627075E0,6.711457812E0
1.979942000E0,-3.780238953E0,2.263293457E-1,3.885619812E0,5.425815407E0
1.989950000E0,-2.843636627E0,3.023712158E-2,3.110830994E0,4.214789796E0
1.999958000E0,-2.053579559E0,-1.405577087E-1,2.453547821E0,3.202630542E0
2.009966000E0,-1.441053314E0,-2.197430420E-1,1.924847260E0,2.414530727E0
2.019974000E0,-9.476792908E-1,-1.493893433E-1,1.488654327E0,1.771018046E0
2.029982000E0,-5.046006775E-1,-1.002914429E-2,1.122066650E0,1.230347916E0
2.039990000E0,-1.733395386E-1,1.755848694E-1,8.999285889E-1,9.331388466E-1
2.049998000E0,4.116439819E-2,4.825964355E-1,7.822732544E-1,9.200789487E-1
2.060006000E0,2.692900085E-1,8.147557068E-1,6.054908752E-1,1.050220534E0
2.070014000E0,4.659809875E-1,1.065484314E0,4.523593140E-1,1.247807699E0
2.080022000E0,5.996530151E-1,1.244811401E0,3.362008667E-1,1.422030304E0
2.090030000E0,7.961943054E-1,1.459764404E0,2.495310974E-1,1.681399196E0
2.100038000E0,1.038240967E0,1.677561493E0,2.068698120E-1,1.983671340E0
2.110046000E0,1.214274902E0,1.924697571E0,2.083666992E-1,2.285244179E0
2.120054000E0,1.306183777E0,2.184257813E0,2.002835083E-1,2.552883024E0
2.130062000E0,1.369053040E0,2.436483307E0,2.020797729E-1,2.802069479E0
2.140070000E0,1.405726776E0,2.654280396E0,1.820214844E-1,3.009053673E0
2.150078000E0,1.441652069E0,2.864593048E0,1.595681763E-1,3.210874651E0
2.160086000E0,1.418600006E0,3.029849396E0,1.492396545E-1,3.348833500E0
2.170094000E0,1.321152649E0,3.294349365E0,1.721420288E-1,3.553563696E0
2.180102000E0,1.118025055E0,3.673361206E0,2.496807861E-1,3.847843951E0
2.190110000E0,7.843688965E-1,4.068838806E0,5.152285767E-1,4.175660940E0
2.200118000E0,3.721261597E-1,4.467010803E0,8.307723999E-1,4.558820700E0
2.210126000E0,-8.322692871E-2,4.943020935E0,1.107397156E0,5.066232441E0
2.220134000E0,-4.421804810E-1,5.309009857E0,1.311722260E0,5.486503853E0
2.230143000E0,-8.273295593E-1,5.626050568E0,1.525777130E0,5.887691826E0
2.240151000E0,-1.243464203E0,5.986201630E0,1.752705231E0,6.360250687E0
2.250159000E0,-1.619482269E0,6.305487671E0,1.971400452E0,6.802081838E0
2.260167000E0,-1.951791229E0,6.550827484E0,2.145189056E0,7.164123521E0
2.270175000E0,-2.135608978E0,6.714437256E0,2.161056061E0,7.369847805E0
2.280183000E0,-2.171534271E0,6.712790680E0,2.041754150E0,7.344785893E0
2.290191000E0,-2.063459015E0,6.469845886E0,1.703158264E0,7.001251100E0
2.300199000E0,-1.703757019E0,5.981561279E0,1.208886108E0,6.335871601E0
2.310207000E0,-1.329684906E0,5.376968536E0,7.834707642E-1,5.594075351E0
2.320215000E0,-1.182540894E0,4.871619415E0,5.132826233E-1,5.039299331E0
2.330223000E0,-1.248403931E0,4.485422516E0,3.647914124E-1,4.670182041E0
2.340231000E0,-1.400637360E0,4.021387482E0,4.137396240E-1,4.278378521E0
2.350239000E0,-1.607956238E0,3.554358673E0,6.665638733E-1,3.957688244E0
2.360247000E0,-1.831142120E0,3.120411072E0,9.675878906E-1,3.745166625E0
2.370255000E0,-2.000140686E0,2.593207397E0,1.226100311E0,3.496942857E0
2.380263000E0,-2.145338745E0,1.984273682E0,1.365161133E0,3.225443426E0
2.390271000E0,-2.437381439E0,1.416055298E0,1.506616974E0,3.196237725E0
2.400279000E0,-2.859353943E0,1.010099487E0,1.551523590E0,3.406380982E0
2.410287000E0,-3.310665436E0,7.012916565E-1,1.481469269E0,3.694193662E0
2.420295000E0,-3.869453430E0,4.825964355E-1,1.404978333E0,4.144820054E0
2.430303000E0,-4.565805359E0,2.950364685E-1,1.326840820E0,4.763835813E0
2.440311000E0,-5.263354797E0,-3.667373657E-2,1.301842804E0,5.422088470E0
2.450319000E0,-6.032006378E0,-4.215234375E-1,1.414408722E0,6.209938404E0
2.460327000E0,-7.072193298E0,-5.888754272E-1,1.826052704E0,7.327834659E0
2.470335000E0,-8.274942169E0,-4.561015320E-1,2.400857391E0,8.628256645E0
2.480343000E0,-9.711055756E0,-6.825805664E-1,3.033741302E0,1.019676941E1
2.490351000E0,-1.148546585E1,-9.351054382E-1,3.973187714E0,1.218919885E1
2.500360000E0,-1.358335327E1,-7.330256653E-1,5.352868652E0,1.461841358E1
2.510368000E0,-1.618509293E1,2.549198914E-1,6.927294617E0,1.760709027E1
2.520376000E0,-1.814436859E1,1.655557251E0,7.711364136E0,1.978444132E1
2.530384000E0,-1.909668823E1,3.286715240E0,8.315058746E0,2.108616135E1
2.540392000E0,-1.979034576E1,4.910388794E0,9.314530334E0,2.241718490E1
2.550400000E0,-2.043924637E1,6.368806000E0,1.037058426E1,2.378809576E1
2.560408000E0,-2.153466843E1,8.358318787E0,1.181238602E1,2.594486270E1
2.570416000E0,-2.268263123E1,1.078926361E1,1.348605560E1,2.850936099E1
2.580424000E0,-2.320848770E1,1.311632446E1,1.512873962E1,3.065209016E1
2.590432000E0,-2.327030914E1,1.456755661E1,1.646501083E1,3.201277206E1
2.600440000E0,-2.279699341E1,1.467368591E1,1.694655945E1,3.197195402E1
2.610448000E0,-2.234777756E1,1.441607162E1,1.691707077E1,3.151878117E1
2.620456000E0,-2.219569382E1,1.434556824E1,1.643163025E1,3.111981081E1
2.630464000E0,-2.191502747E1,1.437565567E1,1.536599625E1,3.038160209E1
2.640472000E0,-2.121223892E1,1.437849976E1,1.402418655E1,2.921263671E1
2.650479375E0,-2.046544189E1,1.401236115E1,1.266845581E1,2.785085904E1
2.660487375E0,-1.965397934E1,1.332618805E1,1.151270920E1,2.638955598E1
2.670495375E0,-1.898726578E1,1.266695892E1,1.103819595E1,2.535369559E1
2.680503375E0,-1.861753464E1,1.179876434E1,1.098670303E1,2.462785170E1
2.690511375E0,-1.846694778E1,1.091170898E1,1.121767273E1,2.420598552E1
2.700519375E0,-1.811952026E1,1.003109024E1,1.127350662E1,2.358032522E1
2.710527375E0,-1.765907776E1,9.030870209E0,1.113115265E1,2.274427847E1
2.720535375E0,-1.732227814E1,7.779322815E0,1.088820786E1,2.188908983E1
2.730543375E0,-1.683040100E1,6.488706665E0,1.055799454E1,2.090064498E1
2.740551375E0,-1.616623215E1,5.346881104E0,1.007554779E1,1.978516774E1
2.750559375E0,-1.538111481E1,4.445904694E0,9.353748779E0,1.854285246E1
2.760567375E0,-1.436906937E1,3.727249146E0,8.500074005E0,1.710595799E1
2.770575375E0,-1.313922684E1,3.104244690E0,7.754624176E0,1.556951551E1
2.780583375E0,-1.187974594E1,2.267634430E0,7.010820923E0,1.397934689E1
2.790591375E0,-1.073253159E1,1.393003235E0,6.250102844E0,1.249765889E1
2.800599375E0,-9.516460419E0,7.185058594E-1,5.624553680E0,1.107767456E1
2.810608375E0,-8.209977264E0,2.430944824E-1,4.857249298E0,9.542310640E0
2.820616375E0,-6.986122284E0,-1.532812500E-1,3.987557831E0,8.045496701E0
2.830624375E0,-5.867498474E0,-5.655239868E-1,3.262166290E0,6.737142171E0
2.840632375E0,-4.705015869E0,-8.952882385E-1,2.568209381E0,5.434557460E0
2.850640375E0,-3.638932800E0,-1.079704742E0,1.863325195E0,4.228424652E0
2.860648375E0,-2.735411682E0,-1.243464203E0,1.360071716E0,3.298253381E0
2.870656375E0,-1.830393677E0,-1.402882690E0,9.714797974E-1,2.502437582E0
2.880664375E0,-1.055904236E0,-1.514101410E0,6.008505249E-1,1.941251707E0
2.890672375E0,-4.337979126E-1,-1.510808258E0,2.981799316E-1,1.599885463E0
2.900680375E0,1.504371643E-1,-1.398242340E0,1.008901978E-1,1.409926173E0
2.910688375E0,6.156697083E-1,-1.213676147E0,-4.355941772E-2,1.361600677E0
2.920696375E0,9.590556335E-1,-9.800120544E-1,-2.534230042E-1,1.394429831E0
2.930704375E0,1.272653503E0,-7.256909180E-1,-3.586541748E-1,1.508279505E0
2.940712375E0,1.392853546E0,-2.803669739E-1,-1.965412903E-1,1.434320438E0
2.950720375E0,1.356030121E0,7.738906860E-2,7.918533325E-2,1.360542933E0
2.960728375E0,1.444795532E0,3.511697388E-1,3.050656128E-1,1.517833767E0
2.970736375E0,1.694476318E0,5.252577209E-1,2.782713318E-1,1.795711725E0
2.980744375E0,2.054028625E0,5.430706787E-1,9.699829102E-2,2.126821108E0
2.990752375E0,2.404300232E0,5.875282288E-1,-4.909790039E-2,2.475532191E0
3.000760375E0,2.573298798E0,7.729925537E-1,-1.793270874E-1,2.692868804E0
3.010768375E0,2.568658447E0,1.025517426E0,-1.802252197E-1,2.771673382E0
3.020776375E0,2.526895294E0,1.215622101E0,-1.017883301E-1,2.805939733E0
3.030784375E0,2.448907471E0,1.314266968E0,-9.924362183E-2,2.781060006E0
3.040792375E0,2.230811005E0,1.519041138E0,-1.434017944E-1,2.702696393E0
3.050800375E0,1.911075897E0,1.905687103E0,-2.460882568E-1,2.710057905E0
3.060808375E0,1.528022461E0,2.320773926E0,-4.113446045E-1,2.808923039E0
3.070816375E0,1.253942413E0,2.686164093E0,-5.748046875E-1,3.019643942E0
3.080825375E0,1.025218048E0,2.965932312E0,-6.228547668E-1,3.199339711E0
3.090833375E0,5.935157776E-1,3.357518005E0,-5.490582275E-1,3.453498671E0
3.100841375E0,2.829116821E-2,3.813918915E0,-3.890409851E-1,3.833814128E0
3.110849375E0,-5.906716919E-1,4.285139008E0,-1.974394226E-1,4.330160700E0
3.120857375E0,-1.229094086E0,4.765639801E0,7.349716187E-2,4.922133360E0
3.130865375E0,-1.677262115E0,5.092410278E0,2.475851440E-1,5.367229178E0
3.140873375E0,-2.054777069E0,5.356461182E0,2.655477905E-1,5.743196046E0
3.150881375E0,-2.418370972E0,5.628295898E0,1.284329224E-1,6.127212082E0
3.160889375E0,-2.779120789E0,6.067632294E0,-1.661544800E-2,6.673825746E0
3.170897375E0,-3.440146179E0,6.886279907E0,1.264869690E-1,7.698795727E0
3.180905375E0,-4.317471771E0,7.901319122E0,7.226971436E-1,9.032922978E0
3.190913375E0,-5.215454407E0,8.821605377E0,1.547332306E0,1.036416535E1
3.200921375E0,-5.967041473E0,9.460327148E0,2.251767426E0,1.140937466E1
3.210929375E0,-6.419251099E0,9.681866455E0,2.674188995E0,1.192042824E1
3.220937375E0,-6.380930786E0,9.645043030E0,2.720891876E0,1.188050442E1
3.230945375E0,-5.999074860E0,9.373956757E0,2.518512726E0,1.141064726E1
3.240953375E0,-5.825136566E0,9.273815002E0,2.097887421E0,1.115064986E1
3.250961375E0,-5.677543488E0,9.402547302E0,1.678160248E0,1.111119335E1
3.260969375E0,-5.554050293E0,9.529183960E0,1.447489929E0,1.112421003E1
3.270977375E0,-5.726491699E0,9.721384277E0,1.389410706E0,1.136787058E1
3.280985375E0,-6.105054474E0,9.975106659E0,1.728156281E0,1.182205427E1
3.290993375E0,-6.557563477E0,1.022927811E1,2.417023773E0,1.238877610E1
3.301001375E0,-7.005132751E0,1.040621017E1,2.929707642E0,1.288193626E1
3.311009375E0,-7.336244202E0,1.047701294E1,3.205883331E0,1.318582447E1
3.321017375E0,-7.449109497E0,1.052147049E1,3.409310303E0,1.333469048E1
3.331025375E0,-7.502698059E0,1.063074326E1,3.302731934E0,1.342427721E1
3.341033375E0,-7.675887909E0,1.098685272E1,2.944227448E0,1.372219600E1
3.351042375E0,-7.931107178E0,1.154129974E1,2.708916779E0,1.426331977E1
3.361050375E0,-8.402776337E0,1.220816299E1,2.694097595E0,1.506333481E1
3.371058375E0,-9.107211456E0,1.311767166E1,2.914589081E0,1.623297384E1
3.381066375E0,-9.811197510E0,1.417447403E1,3.454067230E0,1.758140754E1
3.391074375E0,-1.048958679E1,1.517723877E1,4.275109863E0,1.893823044E1
3.401082375E0,-1.136975647E1,1.622146729E1,5.122797089E0,2.046094849E1
3.411090375E0,-1.217777618E1,1.717229004E1,5.886359253E0,2.185943740E1
3.421098375E0,-1.271979904E1,1.791175232E1,6.390361176E0,2.287926736E1
3.431106375E0,-1.314296906E1,1.844644043E1,6.456972656E0,2.355209749E1
3.441114375E0,-1.323338104E1,1.869163055E1,6.416257324E0,2.378377146E1
3.451122375E0,-1.312545547E1,1.898502045E1,6.452481995E0,2.396545653E1
3.461130375E0,-1.301842804E1,1.921658890E1,6.336024170E0,2.406038154E1
3.471138375E0,-1.291499313E1,1.900058807E1,5.771398315E0,2.368814964E1
3.481146375E0,-1.271006927E1,1.867396729E1,5.878276062E0,2.334131626E1
3.491154375E0,-1.237446716E1,1.789573563E1,5.837411041E0,2.252687637E1
3.501162375E0,-1.206386307E1,1.692949493E1,5.953120422E0,2.162369611E1
3.511170375E0,-1.164233963E1,1.586131622E1,5.976022797E0,2.056303170E1
3.521178375E0,-1.110600494E1,1.448657501E1,5.594615936E0,1.909198599E1
3.531186375E0,-1.036624329E1,1.302276901E1,5.155429230E0,1.742498101E1
3.541194375E0,-9.361083527E0,1.159863052E1,4.735252991E0,1.563907720E1
3.551202375E0,-8.213270416E0,1.005533981E1,4.100123749E0,1.361538411E1
3.561210375E0,-7.031178589E0,8.553961945E0,3.346740417E0,1.156755846E1
3.571218375E0,-5.971382446E0,7.259453888E0,2.663261719E0,9.769853738E0
3.581226375E0,-5.153782654E0,6.202801208E0,2.269580383E0,8.377780947E0
3.591234375E0,-4.328997803E0,5.260810089E0,1.891017609E0,7.070522779E0
3.601242375E0,-3.503314819E0,4.376598816E0,1.437311096E0,5.787373766E0
3.611250375E0,-2.700234833E0,3.497626648E0,9.804611206E-1,4.526142323E0
3.621258375E0,-1.932182007E0,2.687361603E0,5.023553467E-1,3.347775468E0
3.631267375E0,-1.187330933E0,1.966161346E0,7.259902954E-2,2.298002568E0
3.641275375E0,-5.005590820E-1,1.347348175E0,-2.094145203E-1,1.452501615E0
3.651282875E0,1.092727661E-1,8.641529846E-1,-4.354444885E-1,9.738135452E-1
3.661290875E0,6.301895142E-1,4.516108704E-1,-5.954617310E-1,9.775816462E-1
3.671298875E0,1.107097778E0,9.684860229E-2,-6.994953918E-1,1.313140870E0
3.681306875E0,1.612297211E0,-2.085163879E-1,-8.669970703E-1,1.842461750E0
3.691314875E0,2.167492676E0,-4.718188477E-1,-1.079105988E0,2.466801017E0
3.701322875E0,2.699037323E0,-6.484515381E-1,-1.163530426E0,3.009833039E0
3.711330875E0,2.956352234E0,-6.996450806E-1,-1.105151825E0,3.232782443E0
3.721338875E0,2.917283478E0,-5.752537537E-1,-9.096583557E-1,3.109491614E0
3.731346875E0,2.851420441E0,-3.576063538E-1,-8.078700256E-1,2.985152393E0
3.741354875E0,2.744991760E0,-2.245330811E-2,-7.828720093E-1,2.854535426E0
3.751362875E0,2.564018097E0,3.191363525E-1,-8.123606873E-1,2.708498975E0
3.761370875E0,2.423161011E0,5.746549988E-1,-8.937913513E-1,2.645902612E0
3.771378875E0,2.442770233E0,6.873706055E-1,-1.062490540E0,2.751089040E0
3.781386875E0,2.410138092E0,8.051756287E-1,-1.187779999E0,2.804976781E0
3.791394875E0,2.217937775E0,9.921368408E-1,-1.137035522E0,2.682616868E0
3.801402875E0,1.883982239E0,1.252445526E0,-9.418414307E-1,2.450525281E0
3.811410875E0,1.442849579E0,1.595681763E0,-7.447013855E-1,2.276531429E0
3.821418875E0,8.842112732E-1,1.991309052E0,-4.293072510E-1,2.220685937E0
3.831426875E0,2.896476746E-1,2.346520386E0,9.430389404E-3,2.364348246E0
3.841434875E0,-3.028202820E-1,2.674338684E0,3.007246399E-1,2.708177031E0
3.851442875E0,-7.155120850E-1,2.923420715E0,2.305206299E-1,3.018523809E0
3.861450875E0,-8.963360596E-1,3.137026520E0,-7.664062500E-2,3.263468631E0
3.871458875E0,-1.066831512E0,3.241209869E0,-4.203259277E-1,3.438058286E0
3.881466875E0,-1.235231323E0,3.257825317E0,-6.484515381E-1,3.543968343E0
3.891475875E0,-1.569336548E0,3.348836060E0,-6.312373352E-1,3.751797000E0
3.901483875E0,-2.067350922E0,3.518583069E0,-3.466790771E-1,4.095674917E0
3.911491875E0,-2.648442535E0,3.676953735E0,1.862127686E-1,4.535296223E0
3.921499875E0,-3.206482086E0,3.712280273E0,8.487350464E-1,4.978243001E0
3.931507875E0,-3.712130585E0,3.605252838E0,1.540446625E0,5.399142275E0
3.941515875E0,-4.203708344E0,3.363804932E0,2.187401276E0,5.811288308E0
3.951523875E0,-4.648732910E0,3.047961731E0,2.806962891E0,6.227345265E0
3.961531875E0,-5.279820557E0,2.978356476E0,3.361709290E0,6.931681019E0
3.971539875E0,-6.117628326E0,3.616778870E0,3.949387207E0,8.130444332E0
3.981547875E0,-7.473658447E0,4.868925018E0,4.309987335E0,9.906462146E0
3.991555875E0,-8.790619812E0,6.352639618E0,4.747377777E0,1.183928303E1
4.001563875E0,-9.861193542E0,7.700287170E0,5.006488953E0,1.347599689E1
4.011571875E0,-1.082788330E1,8.923992462E0,4.873265991E0,1.485359955E1
4.021579875E0,-1.183259399E1,1.032822235E1,4.953648834E0,1.646879153E1
4.031587875E0,-1.293340485E1,1.201641174E1,5.639372864E0,1.853293389E1
4.041595875E0,-1.434721481E1,1.409274399E1,6.550228729E0,2.115073290E1
4.051603875E0,-1.584979019E1,1.638642426E1,7.807015228E0,2.409730765E1
4.061611875E0,-1.703278015E1,1.835483093E1,8.958420868E0,2.659452430E1
4.071619875E0,-1.800006866E1,1.984752686E1,9.779613190E0,2.852310692E1
4.081627875E0,-1.865495682E1,2.118858810E1,1.047297134E1,3.011057636E1
4.091635875E0,-1.868369705E1,2.232397705E1,1.084614532E1,3.106572638E1
4.101643875E0,-1.825094696E1,2.294638275E1,1.085377945E1,3.126400606E1
4.111651875E0,-1.738125549E1,2.256527527E1,1.042013123E1,3.032950420E1
4.121659875E0,-1.616727997E1,2.132944519E1,9.408834229E0,2.836991955E1
4.131667875E0,-1.498384094E1,2.032174072E1,8.412356415E0,2.661308655E1
4.141675875E0,-1.385473892E1,1.937600739E1,7.420069885E0,2.494876530E1
4.151683875E0,-1.280272659E1,1.831201996E1,6.618786163E0,2.330339489E1
4.161691875E0,-1.189636139E1,1.700374054E1,5.981411591E0,2.159694171E1
4.171700875E0,-1.118204681E1,1.557511139E1,5.461243286E0,1.993608397E1
4.181708875E0,-1.058209442E1,1.432760559E1,5.022355957E0,1.850635198E1
4.191716875E0,-1.014679962E1,1.324685303E1,4.840633850E0,1.737436024E1
4.201724875E0,-9.800868988E0,1.219693634E1,4.800666962E0,1.636669460E1
4.211732875E0,-9.342372437E0,1.121991806E1,4.582271118E0,1.530240807E1
4.221740875E0,-8.746311951E0,1.019889130E1,4.304598541E0,1.410832821E1
4.231748875E0,-8.115074615E0,9.124275970E0,4.021986237E0,1.285625223E1
4.241756875E0,-7.509883118E0,8.145162048E0,3.861220551E0,1.173247772E1
4.251764875E0,-6.686445465E0,7.149732056E0,3.472478943E0,1.038678639E1
4.261772875E0,-5.722001038E0,6.071224823E0,2.848426666E0,8.815588534E0
4.271780875E0,-4.706812134E0,4.949457550E0,2.220332794E0,7.181997509E0
4.281788875E0,-3.760779419E0,3.939657440E0,1.680555267E0,5.699879700E0
4.291796875E0,-2.865790558E0,3.156486053E0,1.239721985E0,4.439940352E0
4.301804875E0,-2.012564850E0,2.523602142E0,8.625064087E-1,3.341092988E0
4.311812875E0,-1.263672180E0,1.972597961E0,5.376818848E-1,2.403562337E0
4.321820875E0,-6.207591248E-1,1.498384094E0,2.621049500E-1,1.642922941E0
4.331828875E0,-4.610412598E-2,1.120270386E0,1.796264648E-3,1.121220119E0
4.341836875E0,4.525090027E-1,8.547225952E-1,-1.612147522E-1,9.804617833E-1
4.351844875E0,7.783813477E-1,7.247927856E-1,-1.865121460E-1,1.079809652E0
4.361852875E0,9.303153992E-1,7.095245361E-1,-9.759704590E-2,1.174068564E0
4.371860875E0,1.088386688E0,7.006929016E-1,4.834945679E-2,1.295335399E0
4.381868875E0,1.251098328E0,7.444020081E-1,1.835183716E-1,1.467331035E0
4.391876875E0,1.365310822E0,8.192463684E-1,2.395019531E-1,1.610155097E0
4.401884875E0,1.538650360E0,8.711883545E-1,1.580712891E-1,1.775218469E0
4.411892875E0,1.711241455E0,9.021739197E-1,4.595443726E-2,1.935039253E0
4.421900875E0,1.767374725E0,9.410929871E-1,-7.185058594E-2,2.003604736E0
4.431909875E0,1.704056396E0,1.079704742E0,-1.621128845E-1,2.023820921E0
4.441917875E0,1.619931335E0,1.293909302E0,-2.655477905E-1,2.090190049E0
4.451925875E0,1.544188843E0,1.483714600E0,-2.900967407E-1,2.161037786E0
4.461933875E0,1.432670746E0,1.607507172E0,-1.871109009E-1,2.161396600E0
4.471941875E0,1.307830353E0,1.694925385E0,-5.179229736E-2,2.141465557E0
4.481949875E0,1.146615601E0,1.706900482E0,1.549278259E-1,2.062095833E0
4.491957875E0,7.698490906E-1,1.767973480E0,4.755610657E-1,1.986090677E0
4.501965875E0,2.751278687E-1,1.943857727E0,8.795709229E-1,2.151260843E0
4.511973875E0,-2.112107849E-1,2.174827423E0,1.239272919E0,2.512027405E0
4.521981875E0,-6.825805664E-1,2.476150818E0,1.485660553E0,2.967225367E0
4.531989875E0,-1.199755096E0,2.754721527E0,1.573677521E0,3.391808356E0
4.541997875E0,-1.559606781E0,3.021017761E0,1.545086975E0,3.734463199E0
4.552005875E0,-1.814676361E0,3.229534149E0,1.469494171E0,3.985267147E0
4.562013875E0,-2.030976563E0,3.295696564E0,1.302591248E0,4.084510448E0
4.572021875E0,-2.096240845E0,3.296445007E0,1.122066650E0,4.064456782E0
4.582029875E0,-2.271676025E0,3.360511780E0,1.047222290E0,4.189298976E0
4.592037875E0,-2.734064484E0,3.435805206E0,1.186283112E0,4.548311075E0
4.602045875E0,-3.510200500E0,3.848497009E0,1.536405029E0,5.430743706E0
4.612053875E0,-4.521347809E0,4.538711700E0,2.065854034E0,6.731288346E0
4.622061875E0,-5.553601227E0,5.215753784E0,2.490670624E0,8.015610662E0
4.632069875E0,-6.396348724E0,5.898633728E0,2.847977600E0,9.155224370E0
4.642077875E0,-7.057074738E0,6.439608765E0,3.087778931E0,1.004018145E1
4.652085875E0,-7.522157593E0,6.883735199E0,3.257975006E0,1.070434801E1
4.662093875E0,-7.874375153E0,7.170239410E0,3.474574585E0,1.120226699E1
4.672101875E0,-8.373137970E0,7.535779266E0,3.809428253E0,1.189155802E1
4.682109875E0,-9.122928772E0,8.230334930E0,4.295018463E0,1.301589129E1
4.692117875E0,-1.021041733E1,9.223070526E0,4.977149963E0,1.463180350E1
4.702125875E0,-1.162677200E1,1.040216858E1,5.789959717E0,1.664063015E1
4.712134875E0,-1.328637085E1,1.186732178E1,6.728657684E0,1.904299900E1
4.722142875E0,-1.503189102E1,1.366463425E1,7.746840363E0,2.174151587E1
4.732150875E0,-1.632684814E1,1.537842041E1,8.611741791E0,2.402548400E1
4.742158875E0,-1.670496185E1,1.650437897E1,9.561965790E0,2.535510728E1
4.752166875E0,-1.640902725E1,1.655826691E1,1.035381912E1,2.550752730E1
4.762174875E0,-1.604782837E1,1.537333099E1,1.022882904E1,2.446428100E1
4.772182875E0,-1.525223282E1,1.640079437E1,1.078103073E1,2.485653406E1
4.782190875E0,-1.424842026E1,1.721929230E1,1.012988480E1,2.453846110E1
4.792198875E0,-1.334370163E1,1.699790268E1,9.217831421E0,2.349364775E1
4.802206875E0,-1.290436523E1,1.716705093E1,8.247698822E0,2.300553881E1
4.812214875E0,-1.268686752E1,1.793944473E1,7.599097595E0,2.324922728E1
4.822222875E0,-1.270991959E1,1.833312607E1,7.229067078E0,2.345005284E1
4.832230875E0,-1.304073166E1,1.838985809E1,7.325466614E0,2.370464140E1
4.842238875E0,-1.316527267E1,1.815484680E1,7.918533325E0,2.378289379E1
4.852246875E0,-1.294358368E1,1.732123032E1,8.381370850E0,2.319070407E1
4.862254875E0,-1.261741196E1,1.600082611E1,8.557404785E0,2.210101123E1
4.872262875E0,-1.225217148E1,1.467218903E1,8.503965912E0,2.092143095E1
4.882270875E0,-1.165910477E1,1.341330688E1,8.218659210E0,1.958054863E1
4.892278875E0,-1.099014587E1,1.231099915E1,7.778873749E0,1.824431098E1
4.902286875E0,-1.032552795E1,1.127694946E1,7.328161011E0,1.695547288E1
4.912294875E0,-9.503437500E0,1.023616379E1,6.881639557E0,1.557084893E1
4.922302875E0,-8.602461090E0,9.032367096E0,6.198609924E0,1.392870264E1
4.932310875E0,-7.626340942E0,7.709717560E0,5.324577484E0,1.208105734E1
4.942318875E0,-6.662345581E0,6.476581879E0,4.413721619E0,1.028658836E1
4.952326875E0,-5.704188080E0,5.393733673E0,3.549269257E0,8.615534623E0
4.962334875E0,-4.795876923E0,4.440515900E0,2.724933472E0,7.081234309E0
4.972342875E0,-3.966002655E0,3.558699646E0,1.926793213E0,5.666220285E0
4.982350875E0,-3.165916443E0,2.723735962E0,1.261426849E0,4.362678330E0
4.992359875E0,-2.370320892E0,1.992356873E0,7.072792053E-1,3.176184962E0
5.002367875E0,-1.669927368E0,1.377884674E0,2.489323425E-1,2.179263844E0
5.012375875E0,-1.094972992E0,9.322613525E-1,-3.188369751E-2,1.438434445E0
5.022383875E0,-5.372328186E-1,6.378236389E-1,-2.957849121E-1,8.848315150E-1
5.032391875E0,-1.347198486E-2,4.962181091E-1,-5.418731689E-1,7.348744365E-1
5.042399875E0,3.847000122E-1,4.367916870E-1,-5.944139099E-1,8.319308706E-1
5.052407875E0,6.204597473E-1,4.614903259E-1,-5.182223511E-1,9.308587563E-1
5.062415875E0,6.896159363E-1,5.536985779E-1,-3.677851868E-1,9.578195020E-1
5.072423875E0,7.232958984E-1,7.044351196E-1,-2.261796570E-1,1.034670494E0
5.082431875E0,7.370672607E-1,9.942324829E-1,-3.308120728E-2,1.238087535E0
5.092439875E0,8.259823608E-1,1.278191986E0,-3.742218018E-3,1.521852693E0
5.102447875E0,1.005159760E0,1.534459076E0,-6.885681152E-2,1.835661205E0
5.112455875E0,1.150357819E0,1.704505463E0,-3.936813354E-2,2.056747878E0
5.122463875E0,1.200503540E0,1.881287842E0,4.056564331E-2,2.232061438E0
5.132471875E0,1.338516541E0,2.011067963E0,1.901046753E-2,2.415860567E0
5.142479875E0,1.526076508E0,2.068398743E0,-1.276844788E-1,2.573613450E0
5.152487875E0,1.618733826E0,2.216590576E0,-3.125500488E-1,2.762473622E0
5.162495875E0,1.576371918E0,2.361788635E0,-4.351451111E-1,2.872689550E0
5.172503875E0,1.509461060E0,2.455194397E0,-5.466632080E-1,2.933477950E0
5.182511875E0,1.390757904E0,2.591111755E0,-7.491920471E-1,3.034692143E0
5.192519875E0,1.190474396E0,2.815345459E0,-9.113049316E-1,3.189651395E0
5.202527875E0,8.557704163E-1,3.162623291E0,-9.804611206E-1,3.419917118E0
5.212535875E0,4.510121155E-1,3.551215210E0,-8.270301819E-1,3.674033249E0
5.222543875E0,7.319778442E-2,3.794758759E0,-6.659651184E-1,3.853448000E0
5.232551875E0,-1.908531189E-1,3.811673584E0,-6.399192810E-1,3.869725715E0
5.242559875E0,-3.224295044E-1,3.732488251E0,-6.858737183E-1,3.808654892E0
5.252568875E0,-2.709365845E-1,3.690575409E0,-8.294252014E-1,3.792321142E0
5.262576875E0,-2.598596191E-1,3.570525055E0,-9.741741943E-1,3.710147106E0
5.272584875E0,-4.611909485E-1,3.307372284E0,-9.313632202E-1,3.466820728E0
5.282592875E0,-7.683522034E-1,3.165617065E0,-8.108638000E-1,3.356932620E0
5.292600875E0,-1.229992218E0,3.340004425E0,-5.165757751E-1,3.596576281E0
5.302608875E0,-2.065704346E0,3.624862061E0,1.999841309E-1,4.176931057E0
5.312616875E0,-3.030747528E0,3.979025574E0,9.898915100E-1,5.098819500E0
5.322624875E0,-3.761827240E0,4.267775116E0,1.614093475E0,5.913589973E0
5.332632875E0,-4.289779358E0,4.359534302E0,2.046244812E0,6.449408042E0
5.342640875E0,-4.680466919E0,4.404291229E0,2.538571014E0,6.910057497E0
5.352648875E0,-5.048701172E0,4.574936371E0,3.109184418E0,7.489089001E0
5.362656875E0,-5.376369781E0,4.864733734E0,3.490441589E0,8.046997503E0
5.372664875E0,-5.850883026E0,5.180427246E0,3.523073730E0,8.572147173E0
5.382672875E0,-6.516099701E0,5.830675049E0,3.358865204E0,9.366872599E0
5.392680875E0,-7.460934906E0,6.896009674E0,3.185825043E0,1.064753400E1
5.402688875E0,-8.643026733E0,8.119415588E0,3.460054779E0,1.235308867E1
5.412696875E0,-9.748927002E0,9.264683990E0,3.993994446E0,1.402953808E1
5.422704875E0,-1.091470276E1,1.046009811E1,4.633165283E0,1.581172380E1
5.432712875E0,-1.224633362E1,1.193348419E1,5.515729980E0,1.796674732E1
5.442720875E0,-1.379366592E1,1.375369904E1,6.512656860E0,2.053884505E1
5.452728875E0,-1.506078094E1,1.543874496E1,7.421117706E0,2.280909811E1
5.462736875E0,-1.608165802E1,1.691826828E1,8.124355316E0,2.471543395E1
5.472744875E0,-1.672966049E1,1.825558731E1,8.785680084E0,2.627424942E1
5.482752875E0,-1.712364120E1,1.956940521E1,9.401499481E0,2.765083906E1
5.492760875E0,-1.756297760E1,2.089085724E1,9.914782104E0,2.903771690E1
5.502768875E0,-1.756462418E1,2.156595337E1,1.049976562E1,2.972963917E1
5.512776875E0,-1.688339081E1,2.127256348E1,1.074450668E1,2.920642508E1
5.522784875E0,-1.573273361E1,2.005185196E1,1.035816010E1,2.751158219E1
5.532793875E0,-1.425979660E1,1.843715973E1,9.538314972E0,2.518432271E1
5.542801875E0,-1.271291336E1,1.714295105E1,8.633446655E0,2.302249635E1
5.552809875E0,-1.147573608E1,1.610156662E1,7.648644562E0,2.120034740E1
5.562817875E0,-1.069466034E1,1.526420792E1,6.967261505E0,1.989760126E1
5.572825875E0,-1.029259644E1,1.458327393E1,6.702761536E0,1.906663137E1
5.582833875E0,-1.019919067E1,1.390967468E1,6.876400452E0,1.856845237E1
5.592841875E0,-9.986782379E0,1.300241135E1,7.257058868E0,1.792940118E1
5.602849875E0,-9.531279602E0,1.185145477E1,7.190896454E0,1.682293859E1
5.612857875E0,-8.983418884E0,1.064226929E1,6.851701813E0,1.552113166E1
5.622865875E0,-8.323890381E0,9.524543610E0,6.267017670E0,1.411664240E1
5.632873875E0,-7.506889343E0,8.475225677E0,5.520370331E0,1.259592500E1
5.642881875E0,-6.624624023E0,7.434589691E0,4.725373535E0,1.102215598E1
5.652890250E0,-5.759273529E0,6.496939545E0,3.979025574E0,9.550502581E0
5.662898250E0,-4.987927551E0,5.708079987E0,3.281027069E0,8.259947761E0
5.672906250E0,-4.295766907E0,5.026247864E0,2.772983551E0,7.169813016E0
5.682914250E0,-3.820954285E0,4.581372986E0,2.481838989E0,6.461284303E0
5.692922250E0,-3.479364624E0,4.293371887E0,2.394271088E0,6.022587018E0
5.702930250E0,-3.133134613E0,4.034410400E0,2.406994629E0,5.646824145E0
5.712938250E0,-2.707270203E0,3.631148987E0,2.321522369E0,5.089599299E0
5.722946250E0,-2.281854858E0,3.187920685E0,2.173330536E0,4.482528919E0
5.732954250E0,-1.851200409E0,2.840792542E0,1.999242554E0,3.936243896E0
5.742962250E0,-1.388213196E0,2.567011871E0,1.784888306E0,3.420893463E0
5.752970250E0,-9.198371887E-1,2.277813263E0,1.524729309E0,2.891251144E0
5.762978250E0,-4.314028931E-1,1.926344147E0,1.157692566E0,2.288484718E0
5.772986250E0,6.346801758E-2,1.659149780E0,7.981402588E-1,1.842236156E0
5.782994250E0,5.212161255E-1,1.550026703E0,5.020559692E-1,1.710645850E0
5.793002250E0,8.656498718E-1,1.511856079E0,3.382965088E-1,1.774683925E0
5.803011250E0,1.067579956E0,1.570683746E0,2.914439392E-1,1.921383346E0
5.813019250E0,1.055754547E0,1.855541382E0,3.507206726E-1,2.163482487E0
5.823027250E0,9.514215088E-1,2.246678009E0,5.673202515E-1,2.504918608E0
5.833035250E0,8.631051636E-1,2.553988953E0,8.146060181E-1,2.816272902E0
5.843043250E0,8.256829834E-1,2.697540436E0,8.824150085E-1,2.955864178E0
5.853051250E0,9.572593689E-1,2.728675690E0,7.545808411E-1,2.988546263E0
5.863059250E0,1.165626068E0,2.759810944E0,5.426216125E-1,3.044614719E0
5.873067250E0,1.209035797E0,2.850971375E0,3.332070923E-1,3.114615916E0
5.883075250E0,1.194366302E0,3.022364960E0,8.292755127E-2,3.250858009E0
5.893083250E0,1.190923462E0,3.144810333E0,-1.637594604E-1,3.366741434E0
5.903091250E0,1.135388947E0,3.233126678E0,-3.619473267E-1,3.445754206E0
5.913099250E0,1.009650421E0,3.341950378E0,-5.289999390E-1,3.530986723E0
5.923107250E0,7.336244202E-1,3.562890930E0,-6.233038330E-1,3.690650923E0
5.933115250E0,3.805087280E-1,3.790268097E0,-5.987548828E-1,3.856089541E0
5.943123250E0,-4.191284180E-2,3.936963043E0,-4.969665527E-1,3.968426696E0
5.953131250E0,-5.020559692E-1,4.033661957E0,-3.646417236E-1,4.081109232E0
5.963139250E0,-8.333171082E-1,4.093387756E0,-2.438429260E-1,4.184459356E0
5.973147250E0,-1.063538361E0,4.051774292E0,-1.740879822E-1,4.192647777E0
5.983155250E0,-1.288221130E0,3.936364288E0,-7.334747314E-2,4.142445817E0
5.993163250E0,-1.534908142E0,3.803440704E0,5.837860107E-3,4.101480011E0
6.003171250E0,-1.708097992E0,3.614234161E0,-8.681945801E-3,3.997544584E0
6.013179250E0,-1.914668427E0,3.391647034E0,-4.790039062E-3,3.894771846E0
6.023187250E0,-2.289638672E0,3.266058197E0,2.844085693E-3,3.988682675E0
6.033195250E0,-2.956501923E0,3.397784271E0,2.448907471E-1,4.510633331E0
6.043203250E0,-3.864962769E0,3.614533539E0,8.508306885E-1,5.359729729E0
6.053211250E0,-4.978197784E0,3.957769775E0,1.641785889E0,6.568246012E0
6.063220250E0,-6.244414673E0,4.624333649E0,2.452799377E0,8.148214595E0
6.073228250E0,-7.332052917E0,5.577850800E0,3.064128113E0,9.708774414E0
6.083236250E0,-8.200397186E0,6.585704956E0,3.452121277E0,1.106956029E1
6.093244250E0,-8.831933899E0,7.503596191E0,3.642675018E0,1.214809012E1
6.103252250E0,-9.338630219E0,8.344248047E0,3.786376190E0,1.308331512E1
6.113260250E0,-9.903106384E0,9.112600250E0,4.138144684E0,1.407960372E1
6.123268250E0,-1.051383636E1,9.795929260E0,4.527185669E0,1.506639955E1
6.133276250E0,-1.119297409E1,1.065484314E1,5.035827942E0,1.625324320E1
6.143284250E0,-1.183648590E1,1.176747940E1,5.701194305E0,1.763744841E1
6.153292250E0,-1.254256760E1,1.268746628E1,6.331084442E0,1.893067439E1
6.163300250E0,-1.337783066E1,1.352766907E1,6.974895630E0,2.026359673E1
6.173308250E0,-1.428898590E1,1.467488342E1,7.696544952E0,2.188067928E1
6.183316250E0,-1.506721756E1,1.604663086E1,8.382418671E0,2.355377570E1
6.193324250E0,-1.539039551E1,1.711510895E1,8.723559265E0,2.461486775E1
6.203332250E0,-1.523157578E1,1.775532761E1,8.750652924E0,2.497651868E1
6.213340250E0,-1.483774475E1,1.810245575E1,8.462502136E0,2.488918472E1
6.223348250E0,-1.439586365E1,1.826531708E1,7.982749786E0,2.458835074E1
6.233356250E0,-1.387539597E1,1.828088470E1,7.673941956E0,2.419931288E1
6.243364250E0,-1.332663712E1,1.799003952E1,7.373367004E0,2.357132410E1
6.253372250E0,-1.277742920E1,1.744277756E1,7.000642090E0,2.272712422E1
6.263380250E0,-1.228615082E1,1.689162369E1,6.624174957E0,2.191246555E1
6.273388250E0,-1.187839874E1,1.639510620E1,6.449039154E0,2.124819922E1
6.283396250E0,-1.163784897E1,1.582688782E1,6.390211487E0,2.065828428E1
6.293404250E0,-1.175340866E1,1.528426620E1,6.577023010E0,2.037176085E1
6.303412250E0,-1.193767548E1,1.474658432E1,7.063810730E0,2.024517886E1
6.313420250E0,-1.182376236E1,1.390503433E1,7.482340393E0,1.972654947E1
6.323428250E0,-1.133233429E1,1.265797760E1,7.552095337E0,1.859248077E1
6.333436250E0,-1.051623138E1,1.118623810E1,7.374863892E0,1.703266458E1
6.343445250E0,-9.545200653E0,9.785301361E0,7.030579834E0,1.537179336E1
6.353453250E0,-8.537795563E0,8.546178131E0,6.462511139E0,1.370018846E1
6.363461250E0,-7.508984985E0,7.459887085E0,5.928571472E0,1.213188899E1
6.373469250E0,-6.497238922E0,6.346203003E0,5.301974487E0,1.051662206E1
6.383477250E0,-5.570366364E0,5.327720947E0,4.597539368E0,8.975018671E0
6.393485250E0,-4.598287811E0,4.418661346E0,3.877536621E0,7.463518549E0
6.403493250E0,-3.711382141E0,3.616479492E0,3.170706482E0,6.075085259E0
6.413501250E0,-2.933599548E0,2.999163208E0,2.620750122E0,4.946647093E0
6.423509250E0,-2.297272797E0,2.490520935E0,2.172432404E0,4.024875076E0
6.433517250E0,-1.769320679E0,2.071841583E0,1.731299744E0,3.228067845E0
6.443525250E0,-1.336570587E0,1.725312195E0,1.324445801E0,2.552896352E0
6.453533250E0,-9.126521301E-1,1.398841095E0,9.949809265E-1,1.944139235E0
6.463541250E0,-5.072950745E-1,1.169967041E0,7.107220459E-1,1.459896228E0
6.473549250E0,-1.681004333E-1,1.108894043E0,4.643344116E-1,1.213882284E0
6.483557250E0,1.495390320E-1,1.103355560E0,2.272274780E-1,1.136392424E0
6.493565250E0,4.249662781E-1,1.116079102E0,5.837860107E-3,1.194262525E0
6.503573250E0,5.930667114E-1,1.150657196E0,-1.634600830E-1,1.304783241E0
6.513581250E0,6.767427063E-1,1.237027588E0,-2.377056885E-1,1.429937739E0
6.523589250E0,7.212002563E-1,1.529070282E0,-2.299218750E-1,1.706179887E0
6.533597250E0,7.342231750E-1,1.781445465E0,-2.823129272E-1,1.947391128E0
6.543605250E0,6.270460510E-1,2.005529480E0,-3.233276367E-1,2.126000001E0
6.553613250E0,5.890251160E-1,2.274220734E0,-2.649490356E-1,2.364154928E0
6.563621250E0,7.412585449E-1,2.370171204E0,-3.055146790E-1,2.502102113E0
6.573629250E0,8.598120117E-1,2.386636963E0,-4.402345276E-1,2.574707581E0
6.583637250E0,8.782237244E-1,2.495011597E0,-5.075944519E-1,2.693327293E0
6.593645250E0,8.485853577E-1,2.619402924E0,-4.701722717E-1,2.793283149E0
6.603653250E0,8.020321655E-1,2.707569580E0,-4.697232056E-1,2.862661090E0
6.613662250E0,7.000941467E-1,2.836750946E0,-5.201683044E-1,2.967804375E0
6.623670250E0,4.915777588E-1,2.986140289E0,-5.186714172E-1,3.070456409E0
6.633678250E0,1.200503540E-1,3.237467651E0,-4.620890808E-1,3.272481505E0
6.643686250E0,-2.853067017E-1,3.529360657E0,-3.519181824E-1,3.558318840E0
6.653693917E0,-5.974076843E-1,3.837420044E0,-3.785627747E-1,3.902050526E0
6.663701917E0,-7.873626709E-1,3.987557831E0,-5.028044128E-1,4.095530455E0
6.673709917E0,-9.292675781E-1,3.898942108E0,-6.015989685E-1,4.053049360E0
6.683717917E0,-9.833052063E-1,3.619772644E0,-7.801776123E-1,3.831229598E0
6.693725917E0,-9.680369568E-1,3.097658386E0,-9.791139221E-1,3.389874201E0
6.703733917E0,-9.416917419E-1,2.295925598E0,-9.607022095E-1,2.661016051E0
6.713741917E0,-1.097517700E0,1.405726776E0,-8.280780029E-1,1.966297549E0
6.723749917E0,-1.349593506E0,6.417155457E-1,-5.275030518E-1,1.584758954E0
6.733757917E0,-1.975292358E0,3.719764709E-1,-1.389111328E-1,2.014805871E0
6.743765917E0,-2.989583130E0,9.066645813E-1,4.589456177E-1,3.157574866E0
6.753773917E0,-4.511019287E0,2.055076447E0,1.406175842E0,5.152665787E0
6.763781917E0,-6.306236115E0,3.446283417E0,2.610421600E0,7.645899833E0
6.773789917E0,-7.910300446E0,4.885989532E0,3.483705597E0,9.928844421E0
6.783797917E0,-9.169332275E0,5.786367188E0,3.809428253E0,1.149219053E1
6.793805917E0,-9.799521790E0,6.047873383E0,3.577410736E0,1.205841065E1
6.803813917E0,-9.689799957E0,5.717061310E0,2.920277252E0,1.162346904E1
6.813821917E0,-9.303153992E0,5.280868378E0,2.307900696E0,1.094361232E1
6.823829917E0,-9.030121765E0,5.200635223E0,1.901495819E0,1.059270467E1
6.833837917E0,-9.211843872E0,5.786965942E0,1.807042236E0,1.102780323E1
6.843845917E0,-1.020353165E1,6.601571960E0,2.232457581E0,1.235624042E1
6.853853917E0,-1.149893784E1,7.451504517E0,3.041225739E0,1.403565264E1
6.863861917E0,-1.300555481E1,8.678802338E0,3.656296692E0,1.605722801E1
6.873869917E0,-1.450468735E1,1.027059219E1,3.996090088E0,1.821646934E1
6.883878917E0,-1.571462128E1,1.201745956E1,4.450245667E0,2.027740967E1
6.893886917E0,-1.670810532E1,1.370624771E1,4.991969147E0,2.217976027E1
6.903894917E0,-1.725072693E1,1.497411118E1,5.483995972E0,2.349224972E1
6.913902917E0,-1.732661911E1,1.593735809E1,5.846092987E0,2.425670868E1
6.923910917E0,-1.728320938E1,1.682755692E1,5.992787933E0,2.485537176E1
6.933918917E0,-1.707289673E1,1.760518982E1,6.015989685E0,2.525111172E1
6.943926917E0,-1.699595673E1,1.832579132E1,5.895190887E0,2.567976729E1
6.953934917E0,-1.701900879E1,1.894640076E1,5.800587616E0,2.612009913E1
6.963942917E0,-1.668056259E1,1.911450119E1,5.646108856E0,2.599007252E1
6.973950917E0,-1.588451797E1,1.862696503E1,5.410049744E0,2.507090696E1
6.983958917E0,-1.478774872E1,1.758228745E1,5.064119110E0,2.352572308E1
6.993966917E0,-1.369053040E1,1.655123154E1,4.599635010E0,2.196657757E1
7.003974917E0,-1.297456924E1,1.593795685E1,4.246519318E0,2.098549122E1
7.013982917E0,-1.280018188E1,1.576806015E1,4.310586090E0,2.076192500E1
7.023990917E0,-1.293026138E1,1.561178513E1,4.832700348E0,2.083925351E1
7.033998917E0,-1.304013290E1,1.520118896E1,5.401667175E0,2.074365494E1
7.044006917E0,-1.284868103E1,1.449510727E1,5.751489716E0,2.020584997E1
7.054014917E0,-1.247835114E1,1.342902420E1,5.720055084E0,1.920330618E1
7.064022917E0,-1.198782120E1,1.229992218E1,5.629044342E0,1.807434875E1
7.074030917E0,-1.139924515E1,1.113773895E1,5.485492859E0,1.685475158E1
7.084038917E0,-1.071322174E1,9.958790588E0,5.276078339E0,1.554952194E1
7.094046917E0,-9.943821716E0,8.752898254E0,4.831802216E0,1.410103297E1
7.104054917E0,-8.971892853E0,7.466623077E0,4.204606476E0,1.240661264E1
7.114062917E0,-7.819289703E0,6.187233582E0,3.516337738E0,1.057297413E1
7.124070917E0,-6.683152313E0,5.014272766E0,2.874771881E0,8.835823085E0
7.134078917E0,-5.592520294E0,4.043391724E0,2.297272797E0,7.273428502E0
7.144086917E0,-4.694986725E0,3.284020844E0,1.849104767E0,6.020538322E0
7.154094917E0,-3.996988220E0,2.672243042E0,1.508862305E0,5.039192709E0
7.164103917E0,-3.489094391E0,2.327360229E0,1.294358368E0,4.389276579E0
7.174111917E0,-3.133433990E0,2.221530304E0,1.132245483E0,4.004445692E0
7.184119917E0,-2.792592773E0,2.173180847E0,1.027164001E0,3.684610601E0
7.194127917E0,-2.492616577E0,2.137854309E0,9.931846619E-1,3.430739602E0
7.204135917E0,-2.217039642E0,2.061812439E0,1.006057892E0,3.190374240E0
7.214143917E0,-1.925895081E0,1.925446014E0,1.010099487E0,2.904602415E0
7.224151917E0,-1.673519897E0,1.785487061E0,1.046024780E0,2.661353177E0
7.234159917E0,-1.384171600E0,1.649719391E0,9.608518982E-1,2.358122443E0
7.244167917E0,-1.120270386E0,1.685045929E0,8.663983154E-1,2.201143240E0
7.254175917E0,-9.719288635E-1,1.906884613E0,8.018824768E-1,2.285578734E0
7.264183917E0,-9.395960999E-1,2.171384583E0,6.852749634E-1,2.463199872E0
7.274191917E0,-9.177415466E-1,2.432591400E0,4.248165894E-1,2.634429654E0
7.284199917E0,-7.286846924E-1,2.669698334E0,1.872605896E-1,2.773686554E0
7.294207917E0,-4.632865906E-1,2.806364136E0,1.402583313E-1,2.847803808E0
7.304215917E0,-3.878434753E-1,2.863395538E0,3.088078308E-1,2.905997049E0
7.314223917E0,-4.367916870E-1,2.926115112E0,6.134243774E-1,3.021460921E0
7.324231917E0,-4.647834778E-1,2.889441376E0,1.033301239E0,3.103644083E0
7.334239917E0,-4.616400146E-1,2.794389038E0,1.397194519E0,3.158144095E0
7.344247917E0,-3.038681030E-1,2.606829071E0,1.420845337E0,2.984408669E0
7.354255917E0,-6.601272583E-2,2.263443146E0,1.042731628E0,2.492954433E0
7.364263917E0,1.896556091E-1,2.138003998E0,4.921765137E-1,2.202105371E0
7.374271917E0,2.703378296E-1,2.315834198E0,1.323248291E-1,2.335311636E0
7.384279917E0,1.296304321E-1,2.529440002E0,-1.032852173E-1,2.534864614E0
7.394287917E0,-2.351609802E-1,2.783611450E0,-1.939965820E-1,2.800255000E0
7.404295917E0,-7.843688965E-1,3.207978973E0,-5.194198608E-2,3.302886863E0
7.414303917E0,-1.288969574E0,3.502716064E0,3.354524231E-1,3.747397860E0
7.424311917E0,-1.736538849E0,3.563190308E0,7.342231750E-1,4.031249932E0
7.434320917E0,-2.048639832E0,3.466341705E0,1.007105713E0,4.150507426E0
7.444328917E0,-2.199376373E0,3.375929718E0,1.056802368E0,4.165451853E0
7.454336917E0,-2.214195557E0,3.358715515E0,9.397457886E-1,4.131192809E0
7.464344917E0,-2.245480499E0,3.372187500E0,7.686515808E-1,4.123670266E0
7.474352917E0,-2.579735413E0,3.525917816E0,5.980064392E-1,4.409619365E0
7.484360917E0,-3.207529907E0,3.854035492E0,4.840933228E-1,5.037477943E0
7.494368917E0,-4.055815887E0,4.217330017E0,6.746470642E-1,5.889878067E0
7.504376917E0,-5.026547241E0,4.691394196E0,1.134041748E0,6.968601535E0
7.514384917E0,-5.892496490E0,5.140310669E0,1.493144989E0,7.960765706E0
7.524392917E0,-6.535259857E0,5.481600952E0,1.727707214E0,8.703019167E0
7.534400917E0,-7.049440613E0,6.043233032E0,1.895657959E0,9.476750368E0
7.544408917E0,-7.610324249E0,6.851103058E0,2.220931549E0,1.047793802E1
7.554416917E0,-8.411458282E0,7.610773315E0,2.909499664E0,1.171075101E1
7.564424917E0,-9.293723602E0,8.264763336E0,3.589834900E0,1.294474897E1
7.574432917E0,-1.000115250E1,8.782386932E0,3.995641022E0,1.389670891E1
7.584440917E0,-1.068508026E1,9.401200104E0,4.185296631E0,1.483476361E1
7.594448917E0,-1.126407623E1,1.007929001E1,4.240980835E0,1.569896235E1
7.604456917E0,-1.151375702E1,1.071681427E1,4.322112122E0,1.631249098E1
7.614464917E0,-1.150477570E1,1.116408417E1,4.065695343E0,1.653863712E1
7.624472917E0,-1.155671768E1,1.146615601E1,3.442241821E0,1.663969609E1
7.634480917E0,-1.176987442E1,1.190204956E1,3.217858429E0,1.704533193E1
7.644488917E0,-1.234991821E1,1.271890091E1,3.945195923E0,1.816192421E1
7.654501500E0,-1.342004288E1,1.368574036E1,5.265749817E0,1.987775543E1
7.664509500E0,-1.458282486E1,1.473595642E1,6.817123718E0,2.182384861E1
7.674517500E0,-1.552032532E1,1.583691696E1,8.180638275E0,2.363495884E1
7.684525500E0,-1.594454315E1,1.648327286E1,9.041797485E0,2.465118338E1
7.694533500E0,-1.581940338E1,1.662891998E1,9.269174652E0,2.475261808E1
7.704541500E0,-1.553334824E1,1.647503998E1,9.213939514E0,2.444603303E1
7.714549500E0,-1.510523849E1,1.606668915E1,8.943002930E0,2.379672313E1
7.724558500E0,-1.470991058E1,1.549427948E1,8.375083923E0,2.294768391E1
7.734566500E0,-1.448178497E1,1.499387009E1,8.017028503E0,2.233407670E1
7.744574500E0,-1.464764008E1,1.481633926E1,8.318651276E0,2.243384113E1
7.754582500E0,-1.495629822E1,1.475990662E1,8.969647522E0,2.284732537E1
7.764590500E0,-1.535776337E1,1.476095444E1,9.798773346E0,2.344701752E1
7.774598500E0,-1.570938217E1,1.437400909E1,1.065469345E1,2.381006758E1
7.784606500E0,-1.543215866E1,1.330717758E1,1.100496506E1,2.315905335E1
7.794614500E0,-1.449855011E1,1.180909286E1,1.082698517E1,2.160755047E1
7.804622500E0,-1.317066147E1,1.013467484E1,9.821526031E0,1.930389420E1
7.814630500E0,-1.172691376E1,8.743318176E0,8.557554474E0,1.694691292E1
7.824638500E0,-1.026819717E1,7.376061401E0,7.212601318E0,1.455554096E1
7.834646500E0,-8.870553589E0,6.014941864E0,5.861959991E0,1.221592492E1
7.844654500E0,-7.706873474E0,4.826413422E0,4.537813568E0,1.016277114E1
7.854662500E0,-6.645281067E0,3.910318451E0,3.640130310E0,8.526482248E0
7.864670500E0,-5.518424377E0,3.154390411E0,2.868185577E0,6.973498045E0
7.874678500E0,-4.635111237E0,2.456092529E0,2.185754700E0,5.682795993E0
7.884686500E0,-3.693868561E0,1.791474609E0,1.617236938E0,4.412425811E0
7.894694500E0,-2.743345184E0,1.244961090E0,1.121916962E0,3.214742382E0
7.904702500E0,-1.904639282E0,7.400610352E-1,6.719526672E-1,2.151014067E0
7.914710500E0,-1.137484589E0,2.508782959E-1,3.556604004E-1,1.217910271E0
7.924718500E0,-3.784130859E-1,-9.086105347E-2,1.655557251E-1,4.229194873E-1
7.934726500E0,3.367996216E-1,-4.004173279E-1,-5.433700562E-2,5.260423289E-1
7.944734500E0,9.424401855E-1,-6.518943787E-1,-2.797682190E-1,1.179588929E0
7.954742500E0,1.426982574E0,-7.613168335E-1,-4.375401306E-1,1.675507074E0
7.964750500E0,1.898202667E0,-7.961943054E-1,-6.640191650E-1,2.162873133E0
7.974758500E0,2.363884277E0,-8.093669128E-1,-8.849597168E-1,2.650693754E0
7.984766500E0,2.807262268E0,-7.849676514E-1,-1.187779999E0,3.147652614E0
7.994774500E0,3.195704498E0,-6.867718506E-1,-1.496737518E0,3.595052992E0
8.004783500E0,3.522924042E0,-4.902305603E-1,-1.751507721E0,3.964731908E0
8.014791500E0,3.733985138E0,-2.097138977E-1,-1.905687103E0,4.197412091E0
8.024799500E0,3.706592102E0,1.197509766E-1,-1.899998932E0,4.166912676E0
8.034807500E0,3.545976105E0,3.815565491E-1,-1.763033752E0,3.978419278E0
8.044815500E0,3.353775787E0,5.194198608E-1,-1.698068848E0,3.794871122E0
8.054823500E0,3.203039246E0,5.954617310E-1,-1.591490479E0,3.625862246E0
8.064831500E0,3.081042938E0,6.715036011E-1,-1.466051331E0,3.477506172E0
8.074839500E0,2.871927795E0,8.217910767E-1,-1.390757904E0,3.295074716E0
8.084847500E0,2.507286072E0,1.049168243E0,-1.312770081E0,3.018377500E0
8.094855500E0,1.919308777E0,1.503772888E0,-1.125210114E0,2.685363454E0
8.104863500E0,1.331780548E0,2.042801971E0,-1.022523651E0,2.644283256E0
8.114871500E0,9.075627136E-1,2.508034515E0,-1.062490540E0,2.871026534E0
8.124879500E0,5.789959717E-1,2.643203430E0,-1.112935638E0,2.925813809E0
8.134887500E0,2.844085693E-1,2.439626770E0,-1.117575989E0,2.698451983E0
8.144895500E0,1.158590698E-1,1.910177765E0,-1.143322449E0,2.229212560E0
8.154903500E0,1.505868530E-1,1.109343109E0,-1.147962799E0,1.603476574E0
8.164911500E0,-6.436614990E-3,3.695814514E-1,-1.050665131E0,1.113790418E0
8.174919500E0,-4.870870972E-1,-6.346801758E-2,-8.355624390E-1,9.692505450E-1
8.184927500E0,-1.357077942E0,-1.501377869E-1,-3.805087280E-1,1.417388016E0
8.194935500E0,-2.490371246E0,1.736389160E-2,1.393601990E-1,2.494327908E0
8.204943500E0,-3.652255096E0,2.329156494E-1,4.405339050E-1,3.686093747E0
8.214951500E0,-4.687053223E0,5.258564758E-1,6.024971008E-1,4.754786609E0
8.224959500E0,-5.879473572E0,8.111631775E-1,9.397457886E-1,6.009102872E0
8.234967500E0,-7.052584076E0,1.022972717E0,1.395248566E0,7.261689465E0
8.244975500E0,-8.043074341E0,1.442400513E0,1.787732391E0,8.364660854E0
8.254983500E0,-9.133257294E0,2.223625946E0,2.010768585E0,9.612704689E0
8.264991500E0,-1.060799057E1,3.444038086E0,2.426304474E0,1.141393077E1
8.275000500E0,-1.216774704E1,4.392316132E0,3.016976166E0,1.328339769E1
8.285008500E0,-1.399065628E1,5.194647675E0,3.589685211E0,1.534954942E1
8.295016500E0,-1.578108307E1,6.245013428E0,3.998485107E0,1.743647495E1
8.305024500E0,-1.724159592E1,7.459737396E0,4.571942596E0,1.933450209E1
8.315032500E0,-1.843416595E1,8.638087006E0,5.435347137E0,2.107078594E1
8.325040500E0,-1.960832428E1,9.400451660E0,6.107449493E0,2.258662905E1
8.335048500E0,-2.087918152E1,1.041908340E1,7.109465790E0,2.439348322E1
8.345056500E0,-2.197625015E1,1.210128525E1,8.479716339E0,2.648211216E1
8.355064500E0,-2.307721069E1,1.430380508E1,9.705816650E0,2.883330314E1
8.365072500E0,-2.405153458E1,1.663191376E1,1.090227859E1,3.120827694E1
8.375080500E0,-2.445659225E1,1.862172592E1,1.167901337E1,3.288301893E1
8.385088500E0,-2.430256256E1,1.976340179E1,1.214394653E1,3.359586336E1
8.395096500E0,-2.373673920E1,1.989497818E1,1.231189728E1,3.332905278E1
8.405104500E0,-2.261991165E1,1.931418594E1,1.187241119E1,3.202580724E1
8.415112500E0,-2.094624207E1,1.843790817E1,1.095661560E1,2.997914175E1
8.425120500E0,-1.902169418E1,1.724683502E1,9.622440033E0,2.742023924E1
8.435128500E0,-1.722168732E1,1.592283829E1,8.118816833E0,2.482012248E1
8.445136500E0,-1.610276413E1,1.506706787E1,7.287595367E0,2.322551599E1
8.455144500E0,-1.536958878E1,1.453746918E1,7.262747040E0,2.236760523E1
8.465152500E0,-1.510718445E1,1.391132126E1,7.277266846E0,2.178785198E1
8.475160500E0,-1.510628632E1,1.338082443E1,7.404502258E0,2.149588338E1
8.485168500E0,-1.478056366E1,1.288056473E1,7.415429535E0,2.096097815E1
8.495176500E0,-1.430126038E1,1.204979233E1,7.155719604E0,2.002318323E1
8.505184500E0,-1.372076752E1,1.087398743E1,6.658603363E0,1.873072509E1
8.515192500E0,-1.307007065E1,9.788444824E0,6.166875916E0,1.745482046E1
8.525200500E0,-1.234168533E1,8.842561798E0,5.800138550E0,1.625268295E1
8.535208500E0,-1.153650970E1,7.758366394E0,5.324128418E0,1.488723106E1
8.545216500E0,-1.055829391E1,6.559060364E0,4.777914276E0,1.331643000E1
8.555224500E0,-9.361233215E0,5.503156128E0,4.139342194E0,1.162116898E1
8.565232500E0,-8.191715240E0,4.604275360E0,3.552562408E0,1.004610620E1
8.575240500E0,-7.026388550E0,3.666026459E0,2.907553711E0,8.441786223E0
8.585249500E0,-6.033054199E0,2.900967407E0,2.365530853E0,7.099935992E0
8.595257500E0,-5.182223511E0,2.367177429E0,2.063608704E0,6.059492584E0
8.605265500E0,-4.513863373E0,1.957778778E0,1.973645782E0,5.301239286E0
8.615273500E0,-4.020938416E0,1.631307678E0,2.102078705E0,4.821601950E0
8.625281500E0,-3.524271240E0,1.403631134E0,2.211501160E0,4.391059726E0
8.635289500E0,-2.992277527E0,1.106948090E0,2.151625671E0,3.848188132E0
8.645297500E0,-2.351310425E0,8.264314270E-1,1.885778503E0,3.125349609E0
8.655304875E0,-1.578018494E0,5.445675659E-1,1.489851837E0,2.237488480E0
8.665312875E0,-8.394543457E-1,2.317181396E-1,1.093476105E0,1.397879425E0
8.675320875E0,-2.130070496E-1,-3.532653809E-2,7.508386230E-1,7.812673072E-1
8.685328875E0,3.713777161E-1,-2.342628479E-1,4.096980286E-1,6.005438906E-1
8.695336875E0,8.337661743E-1,-3.610491943E-1,1.395098877E-1,9.192309628E-1
8.705344875E0,1.158740387E0,-3.806584167E-1,1.422042847E-2,1.219746832E0
8.715352875E0,1.412612457E0,-3.650907898E-1,-9.939331055E-2,1.462410431E0
8.725360875E0,1.601819000E0,-3.999682617E-1,-1.585203552E-1,1.658592000E0
8.735368875E0,1.669178925E0,-4.465214539E-1,-2.395019531E-3,1.727873093E0
8.745376875E0,1.566791840E0,-3.544628906E-1,3.574566650E-1,1.645677938E0
8.755384875E0,1.360520782E0,-2.248324585E-1,6.298901367E-1,1.516023753E0
8.765392875E0,1.133143616E0,-1.067280579E-1,7.500901794E-1,1.363099633E0
8.775400875E0,9.032217407E-1,1.254391479E-1,7.023394775E-1,1.151010528E0
8.785408875E0,7.569758606E-1,3.351530457E-1,5.758525085E-1,1.008437469E0
8.795416875E0,5.330415344E-1,4.412823486E-1,4.348457336E-1,8.172846510E-1
8.805424875E0,2.615061951E-1,5.610333252E-1,3.676354980E-1,7.199303726E-1
8.815432875E0,-9.101074219E-2,8.568182373E-1,4.336482239E-1,9.646093660E-1
8.825440875E0,-5.843847656E-1,1.222807159E0,6.319857788E-1,1.495382536E0
8.835448875E0,-1.186133423E0,1.552272034E0,9.259744263E-1,2.161918038E0
8.845456875E0,-1.746717682E0,1.892364807E0,1.265767822E0,2.869535747E0
8.855465875E0,-2.354154510E0,2.305954742E0,1.591041412E0,3.659355614E0
8.865473875E0,-2.990780640E0,2.843037872E0,1.849703522E0,4.522061067E0
8.875481875E0,-3.499273224E0,3.272494812E0,2.007924500E0,5.194795105E0
8.885489875E0,-3.837569733E0,3.528163147E0,2.042502594E0,5.598811793E0
8.895497875E0,-4.049828339E0,3.668720856E0,1.974094849E0,5.810135348E0
8.905505875E0,-4.335733795E0,3.775448914E0,1.910177765E0,6.058166483E0
8.915513875E0,-4.845423889E0,3.874842224E0,1.924098816E0,6.495744082E0
8.925521875E0,-5.444178772E0,4.081562347E0,2.108515320E0,7.123487246E0
8.935529875E0,-5.995931396E0,4.431684265E0,2.397863617E0,7.832034772E0
8.945537875E0,-6.622229004E0,4.989424438E0,2.783910828E0,8.746338245E0
8.955545875E0,-7.339687042E0,5.903723145E0,3.136876831E0,9.927988170E0
8.965553875E0,-7.864645386E0,6.823560333E0,3.430566101E0,1.096277367E1
8.975561875E0,-8.113727417E0,7.404651947E0,3.541036377E0,1.154124697E1
8.985569875E0,-8.021818542E0,7.568411407E0,3.406166840E0,1.154263386E1
8.995577875E0,-7.730224915E0,7.519014130E0,3.081941071E0,1.121562800E1
9.005585875E0,-7.529791718E0,7.619006195E0,2.656974792E0,1.103659974E1
9.015593875E0,-7.726482697E0,8.006999359E0,2.329904938E0,1.136833456E1
9.025601875E0,-8.246052246E0,8.636440430E0,2.233505402E0,1.214800508E1
9.035609875E0,-9.063352661E0,9.640552368E0,2.501597900E0,1.346635079E1
9.045617875E0,-1.011865814E1,1.091739716E1,2.989732819E0,1.518273050E1
9.055625875E0,-1.143906235E1,1.235680389E1,3.329376526E0,1.716471666E1
9.065633875E0,-1.311183380E1,1.418300629E1,3.614982605E0,1.965059674E1
9.075641875E0,-1.478041397E1,1.616787872E1,3.951931915E0,2.225935097E1
9.085649875E0,-1.606713821E1,1.803120392E1,4.166435852E0,2.450788512E1
9.095657875E0,-1.687351135E1,1.963407074E1,4.194128265E0,2.622599533E1
9.105665875E0,-1.726779144E1,2.098321518E1,4.122876434E0,2.748581544E1
9.115673875E0,-1.748798355E1,2.183838684E1,4.056414642E0,2.827011157E1
9.125681875E0,-1.747870285E1,2.229598526E1,3.939507751E0,2.860307210E1
9.135689875E0,-1.697260529E1,2.224883331E1,3.701652374E0,2.822732974E1
9.145697875E0,-1.600396957E1,2.128244293E1,3.408112793E0,2.684557044E1
9.155706875E0,-1.488504639E1,1.960083984E1,3.024161224E0,2.479723935E1
9.165714875E0,-1.372151596E1,1.790322006E1,2.506837006E0,2.269558373E1
9.175722875E0,-1.275258087E1,1.653880737E1,2.061662750E0,2.098596963E1
9.185730875E0,-1.218226685E1,1.554307800E1,1.963466949E0,1.984565700E1
9.195738875E0,-1.203617065E1,1.483774475E1,2.374512177E0,1.925269803E1
9.205746875E0,-1.204410416E1,1.414992508E1,3.128643951E0,1.884328097E1
9.215754875E0,-1.192031158E1,1.310734314E1,3.638932800E0,1.808695951E1
9.225762875E0,-1.160012741E1,1.196731384E1,3.987408142E0,1.713706452E1
9.235770875E0,-1.097083603E1,1.080273560E1,4.126618652E0,1.594011672E1
9.245778875E0,-1.013392639E1,9.484277344E0,3.794609070E0,1.438912919E1
9.255786875E0,-9.218430176E0,8.163873138E0,3.254681854E0,1.273660997E1
9.265794875E0,-8.239316254E0,7.024741974E0,2.705923004E0,1.116043688E1
9.275802875E0,-7.261250153E0,6.030060425E0,2.160906372E0,9.682814614E0
9.285810875E0,-6.419849854E0,5.144501953E0,1.750310211E0,8.410942773E0
9.295818875E0,-5.651647339E0,4.361180878E0,1.455573120E0,7.285582296E0
9.305826875E0,-5.077142029E0,3.738775177E0,1.391955414E0,6.457038863E0
9.315834875E0,-4.653223572E0,3.228486328E0,1.604064331E0,5.886309197E0
9.325842875E0,-4.144880676E0,2.703527985E0,1.836979980E0,5.278597809E0
9.335850875E0,-3.515589294E0,2.289339294E0,1.954036560E0,4.628034288E0
9.345858875E0,-2.901566162E0,2.026485901E0,1.938019867E0,4.035052949E0
9.355866875E0,-2.344873810E0,1.752256165E0,1.734293518E0,3.402441602E0
9.365874875E0,-1.785936127E0,1.531914368E0,1.342558136E0,2.709020455E0
9.375882875E0,-1.194965057E0,1.416654053E0,9.515711975E-1,2.083347772E0
9.385890875E0,-6.764433289E-1,1.372196503E0,7.093748474E-1,1.686330778E0
9.395898875E0,-2.730322266E-1,1.323697357E0,4.938230896E-1,1.438951887E0
9.405906875E0,3.742218018E-3,1.262175293E0,3.483256531E-1,1.309362912E0
9.415914875E0,2.333647156E-1,1.338965607E0,2.357597351E-1,1.379445772E0
9.425922875E0,4.034111023E-1,1.477128296E0,9.175918579E-2,1.533971404E0
9.435930875E0,5.566923523E-1,1.555415497E0,-1.556762695E-2,1.652109589E0
9.445939875E0,7.673043823E-1,1.611099701E0,-1.760339355E-1,1.793149801E0
9.455947875E0,9.406439209E-1,1.534908142E0,-4.197271729E-1,1.848492599E0
9.465955875E0,1.075962524E0,1.440903625E0,-6.248007202E-1,1.903752755E0
9.475963875E0,1.112785950E0,1.404379578E0,-7.472460938E-1,1.941378709E0
9.485971875E0,9.632469177E-1,1.564845886E0,-7.066804504E-1,1.968752024E0
9.495979875E0,7.390132141E-1,1.808090057E0,-6.077362061E-1,2.045647448E0
9.505987875E0,4.558021545E-1,2.014810181E0,-4.531077576E-1,2.114833872E0
9.515995875E0,1.761836243E-1,2.184108124E0,-2.627037048E-1,2.206894244E0
9.526003875E0,-1.101708984E-1,2.280208282E0,-3.772155762E-2,2.283179878E0
9.536011875E0,-4.602928162E-1,2.416874084E0,2.173480225E-1,2.469896755E0
9.546019875E0,-8.773255920E-1,2.592908020E0,5.798941040E-1,2.798061716E0
9.556027875E0,-1.276545410E0,2.703228607E0,9.496252441E-1,3.136686339E0
9.566035875E0,-1.485061798E0,2.741548920E0,1.065035248E0,3.294813971E0
9.576043875E0,-1.577719116E0,2.747536469E0,9.900411987E-1,3.319387870E0
9.586051875E0,-1.726210327E0,2.819387054E0,8.816665649E-1,3.421415115E0
9.596059875E0,-1.975741425E0,3.023861847E0,8.189469910E-1,3.703777642E0
9.606067875E0,-2.370919647E0,3.305875397E0,8.247848511E-1,4.150944731E0
9.616075875E0,-2.750380554E0,3.537593536E0,8.414002991E-1,4.559288945E0
9.626083875E0,-3.105891266E0,3.622317352E0,8.247848511E-1,4.842314902E0
9.636091875E0,-3.560645599E0,3.755989380E0,8.196954346E-1,5.239995602E0
9.646099875E0,-4.117487640E0,4.053271179E0,8.659492493E-1,5.842309460E0
9.656104000E0,-4.799319763E0,4.548441467E0,1.094823303E0,6.702270364E0
9.666112000E0,-5.635930023E0,5.180277557E0,1.372046814E0,7.776984972E0
9.676120000E0,-6.523733826E0,6.088738403E0,1.685195618E0,9.081394312E0
9.686128000E0,-7.433242493E0,6.987768860E0,2.014660492E0,1.039907998E1
9.696136000E0,-8.249644775E0,7.735913086E0,2.194736023E0,1.152032362E1
9.706144000E0,-8.987011414E0,8.421786804E0,2.158361664E0,1.250405503E1
9.716152000E0,-9.434131622E0,8.943152618E0,1.985471191E0,1.315009179E1
9.726161000E0,-9.703571320E0,9.364077301E0,1.754800873E0,1.359869722E1
9.736169000E0,-9.881850586E0,9.591005402E0,1.378034363E0,1.383970138E1
9.746177000E0,-1.017748581E1,9.945019226E0,1.092428284E0,1.427158100E1
9.756185000E0,-1.075573334E1,1.073328003E1,1.232985992E0,1.524497800E1
9.766193000E0,-1.156345367E1,1.174547516E1,1.577719116E0,1.655774276E1
9.776201000E0,-1.273910889E1,1.297591644E1,2.039508820E0,1.829805725E1
9.786209000E0,-1.401161270E1,1.465003510E1,2.594704285E0,2.043725297E1
9.796217000E0,-1.523801239E1,1.639330994E1,3.035986633E0,2.258660769E1
9.806225000E0,-1.654838745E1,1.824915070E1,3.463946686E0,2.487728994E1
9.816233000E0,-1.743604156E1,1.964230362E1,3.899241486E0,2.655258408E1
9.826241000E0,-1.730117203E1,1.984138962E1,4.139192505E0,2.664853111E1
9.836249000E0,-1.650512741E1,1.924981979E1,4.063300323E0,2.568044397E1
9.846257000E0,-1.558424240E1,1.856020386E1,3.721710663E0,2.451939862E1
9.856265000E0,-1.451172272E1,1.788705368E1,3.177143097E0,2.325147358E1
9.866273000E0,-1.348845062E1,1.703128326E1,2.562221832E0,2.187619461E1
9.876281000E0,-1.262489639E1,1.608300522E1,2.034269714E0,2.054724602E1
9.886289000E0,-1.195473999E1,1.527678177E1,1.788031769E0,1.948057820E1
9.896297000E0,-1.149624344E1,1.469928268E1,1.868115234E0,1.875426296E1
9.906305000E0,-1.135688324E1,1.424452835E1,2.174228668E0,1.834700671E1
9.916313000E0,-1.135373978E1,1.387794067E1,2.539618835E0,1.810950878E1
9.926321000E0,-1.126542343E1,1.345387253E1,2.907703400E0,1.778682631E1
9.936329000E0,-1.113115265E1,1.280422348E1,3.299887848E0,1.728409552E1
9.946337000E0,-1.101843704E1,1.200458633E1,3.618724823E0,1.669165112E1
9.956345000E0,-1.069915100E1,1.112666199E1,3.757486267E0,1.588688585E1
9.966353000E0,-1.014979340E1,1.019934036E1,3.743714905E0,1.486809507E1
9.976361000E0,-9.527986450E0,9.195228424E0,3.584296417E0,1.371794199E1
9.986369000E0,-8.714877319E0,8.279582520E0,3.367996216E0,1.248374831E1
9.996377000E0,-7.839347992E0,7.466772766E0,3.136876831E0,1.127156017E1
1.000638500E1,-7.102430420E0,6.656208344E0,2.930156708E0,1.016540436E1
1.001639300E1,-6.332880707E0,5.877976685E0,2.710263977E0,9.055468998E0
1.002640100E1,-5.448370056E0,5.116659851E0,2.454895020E0,7.867112168E0
1.003641000E1,-4.712799683E0,4.408332825E0,2.326162720E0,6.859658311E0
1.004641800E1,-4.069587250E0,3.790417786E0,2.194736023E0,5.978768567E0
1.005642600E1,-3.472928009E0,3.372935944E0,1.957180023E0,5.221922968E0
1.006643400E1,-2.913391571E0,3.125799866E0,1.506916351E0,4.530923983E0
1.007644200E1,-2.395618286E0,2.917133789E0,1.025068359E0,3.911447514E0
1.008645000E1,-1.899699554E0,2.747835846E0,7.203021240E-1,3.417352101E0
1.009645800E1,-1.475481720E0,2.621947632E0,4.626878357E-1,3.043967103E0
1.010646600E1,-1.075812836E0,2.429148560E0,1.865121460E-1,2.663254168E0
1.011647400E1,-6.709048462E-1,2.261646881E0,-2.888992310E-2,2.359236011E0
1.012648200E1,-3.035687256E-1,2.174827423E0,-1.586700439E-1,2.201636772E0
1.013649000E1,-1.047821045E-2,2.075284424E0,-2.743794250E-1,2.093370321E0
1.014649800E1,2.463876343E-1,1.952988739E0,-2.971321106E-1,1.990768538E0
1.015650600E1,3.799099731E-1,1.962119751E0,-2.095642090E-1,2.009518017E0
1.016651400E1,3.841012573E-1,2.067949677E0,-1.339714050E-1,2.107581073E0
1.017652200E1,3.939807129E-1,2.209555206E0,-1.332229614E-1,2.248355703E0
1.018653000E1,3.400927734E-1,2.439028015E0,-1.902543640E-1,2.469963052E0
1.019653800E1,2.932402039E-1,2.691852264E0,-3.167413330E-1,2.726239810E0
1.020654600E1,3.167413330E-1,2.869832153E0,-4.960684204E-1,2.929564053E0
1.021655400E1,3.085084534E-1,2.958597565E0,-6.215075684E-1,3.038872928E0
1.022656200E1,1.722917175E-1,3.046015778E0,-5.092410278E-1,3.093092785E0
1.023657000E1,2.574645996E-2,3.072510681E0,-4.022135925E-1,3.098832125E0
1.024657800E1,-1.576222229E-1,3.115920410E0,-1.908531189E-1,3.125736662E0
1.025658600E1,-3.544628906E-1,3.121758270E0,8.756790161E-2,3.143037826E0
1.026659400E1,-5.578898621E-1,3.091970215E0,3.725752258E-1,3.163911062E0
1.027660200E1,-8.652008057E-1,3.120560760E0,6.156697083E-1,3.296288987E0
1.028661000E1,-1.222208405E0,3.214415588E0,7.487429810E-1,3.519499540E0
1.029661800E1,-1.452729034E0,3.330424347E0,7.342231750E-1,3.706916731E0
1.030662600E1,-1.696871338E0,3.483256531E0,6.011499023E-1,3.920947539E0
1.031663400E1,-1.969753876E0,3.646117859E0,5.536985779E-1,4.180991257E0
1.032664300E1,-2.273472290E0,3.797902222E0,6.131250000E-1,4.468630641E0
1.033665100E1,-2.613714752E0,3.922892303E0,7.596702576E-1,4.774692423E0
1.034665900E1,-2.905308380E0,3.941902771E0,9.291178894E-1,4.984242600E0
1.035666700E1,-3.263363800E0,3.839066620E0,1.190324707E0,5.177339926E0
1.036667500E1,-3.762276306E0,3.757635956E0,1.682052155E0,5.577082609E0
1.037668300E1,-4.307592316E0,3.727847900E0,2.209704895E0,6.110237086E0
1.038669100E1,-4.934338989E0,3.752696228E0,2.641856232E0,6.738681962E0
1.039669900E1,-5.823340302E0,4.076173553E0,2.938090210E0,7.691479519E0
1.040670700E1,-6.632407837E0,4.578977966E0,2.998863831E0,8.599363767E0
1.041671500E1,-7.363936615E0,5.322481842E0,2.733615417E0,9.488362803E0
1.042672300E1,-7.852520599E0,6.184688873E0,2.161056061E0,1.022656440E1
1.043673100E1,-8.106991425E0,6.860683136E0,1.584006042E0,1.073784700E1
1.044673900E1,-8.083190918E0,7.254214783E0,1.137185211E0,1.092038450E1
1.045674700E1,-8.090525665E0,7.460186462E0,8.845106506E-1,1.104053199E1
1.046675500E1,-8.281528473E0,7.457042999E0,8.590635681E-1,1.117717291E1
1.047676300E1,-8.473279724E0,7.240293732E0,9.464817810E-1,1.118544368E1
1.048677100E1,-8.717272339E0,6.996750183E0,1.116977234E0,1.123356525E1
1.049677900E1,-9.201365662E0,7.130871277E0,1.518143005E0,1.173964281E1
1.050678700E1,-9.706714783E0,7.540419617E0,1.886377258E0,1.243529891E1
1.051679500E1,-1.027134064E1,8.031398621E0,2.031126251E0,1.319580525E1
1.052680300E1,-1.101469482E1,8.963210907E0,2.207309875E0,1.437132105E1
1.053681100E1,-1.197419952E1,1.025921585E1,2.470312958E0,1.596043265E1
1.054681900E1,-1.306677750E1,1.170880142E1,2.664608917E0,1.774646009E1
1.055682700E1,-1.431757645E1,1.317380493E1,2.985242157E0,1.968384623E1
1.056683500E1,-1.558035049E1,1.463162338E1,3.494483185E0,2.165740375E1
1.057684300E1,-1.673804306E1,1.613300125E1,4.128115540E0,2.361095408E1
1.058685100E1,-1.780622177E1,1.766461624E1,4.996459808E0,2.557469084E1
1.059685900E1,-1.871842484E1,1.903082520E1,5.818400574E0,2.732042315E1
1.060686700E1,-1.905911636E1,1.987372238E1,6.308780823E0,2.824916766E1
1.061687500E1,-1.860002106E1,1.991458740E1,6.217470703E0,2.795010763E1
1.062688400E1,-1.771461227E1,1.930385742E1,5.634133759E0,2.679906458E1
1.063689200E1,-1.668250854E1,1.846155899E1,4.894521790E0,2.535925068E1
1.064690000E1,-1.585727463E1,1.778960632E1,4.315076752E0,2.421865271E1
1.065690813E1,-1.542916489E1,1.747032028E1,4.093387756E0,2.366489052E1
1.066691613E1,-1.523621613E1,1.718501358E1,4.192631378E0,2.334620165E1
1.067692413E1,-1.514460663E1,1.672591827E1,4.544549561E0,2.301669791E1
1.068693213E1,-1.485181549E1,1.594993195E1,4.981790314E0,2.235609508E1
1.069694013E1,-1.442924423E1,1.494611938E1,5.192102966E0,2.141372240E1
1.070694813E1,-1.410621597E1,1.399739227E1,5.286556549E0,2.056355999E1
1.071695613E1,-1.371058868E1,1.299462753E1,5.040019226E0,1.955101994E1
1.072696413E1,-1.309237427E1,1.181537979E1,4.452940063E0,1.818906646E1
1.073697212E1,-1.218346436E1,1.056308395E1,3.836821289E0,1.657518458E1
1.074698013E1,-1.118968094E1,9.225764923E0,3.319497070E0,1.487759250E1
1.075698813E1,-1.014171021E1,7.947423248E0,2.901865540E0,1.320744660E1
1.076699613E1,-9.079968109E0,6.764732666E0,2.492017822E0,1.159385966E1
1.077700413E1,-8.142767029E0,5.680387573E0,2.095642090E0,1.014707710E1
1.078701213E1,-7.335645447E0,4.660408630E0,1.851649475E0,8.885927554E0
1.079702013E1,-6.511309662E0,3.606600037E0,1.744921417E0,7.645225182E0
1.080702813E1,-5.623056793E0,2.663710785E0,1.657353516E0,6.439017279E0
1.081703613E1,-4.740192719E0,1.969304810E0,1.624871063E0,5.384031428E0
1.082704413E1,-3.920796661E0,1.365011444E0,1.648222504E0,4.466826628E0
1.083705213E1,-3.211870880E0,8.069718933E-1,1.617985382E0,3.685809936E0
1.084706013E1,-2.521955566E0,2.722837830E-1,1.432670746E0,2.913235968E0
1.085706813E1,-1.815873871E0,-1.730401611E-1,1.162183228E0,2.162870932E0
1.086707613E1,-1.173858948E0,-4.227209473E-1,8.878038025E-1,1.531284892E0
1.087708413E1,-5.821394348E-1,-5.122348022E-1,6.056405640E-1,9.839061474E-1
1.088709213E1,-1.047821045E-3,-4.567002869E-1,3.396437073E-1,5.691520867E-1
1.089710013E1,4.607418823E-1,-4.182302856E-1,1.890568542E-1,6.503400250E-1
1.090710813E1,7.737409973E-1,-3.842509460E-1,1.549278259E-1,8.776824891E-1
1.091711613E1,1.000669098E0,-1.874102783E-1,1.462458801E-1,1.028517921E0
1.092712413E1,1.168919220E0,1.565744019E-1,9.370513916E-2,1.183075796E0
1.093713313E1,1.289568329E0,5.418731689E-1,1.496887207E-3,1.398790637E0
1.094714113E1,1.404828644E0,8.455915833E-1,-9.370513916E-2,1.642360891E0
1.095714913E1,1.490151215E0,1.174158325E0,-1.380130005E-1,1.902168763E0
1.096715713E1,1.589245148E0,1.577868805E0,-3.013233948E-1,2.259682697E0
1.097716513E1,1.786534882E0,1.875599670E0,-4.933740234E-1,2.636853984E0
1.098717313E1,1.989363098E0,2.099234619E0,-6.400689697E-1,2.962100574E0
1.099718112E1,2.091001740E0,2.272125092E0,-7.991880798E-1,3.189599080E0
1.100718913E1,2.081421661E0,2.434387665E0,-8.560697937E-1,3.315330289E0
1.101719713E1,1.851649475E0,2.616259460E0,-7.547305298E-1,3.292876784E0
1.102720512E1,1.386416931E0,2.911295929E0,-5.179229736E-1,3.265890399E0
1.103721313E1,9.981243896E-1,3.223247223E0,-3.085084534E-1,3.388325903E0
1.104722113E1,7.349716187E-1,3.459156647E0,-1.574725342E-1,3.539879318E0
1.105722913E1,2.980302429E-1,3.803740082E0,7.888595581E-2,3.816213258E0
1.106723713E1,-1.520837402E-1,4.178261261E0,3.817062378E-1,4.198415925E0
1.107724513E1,-5.975573730E-1,4.619842987E0,6.605763245E-1,4.704931999E0
1.108725313E1,-9.901908875E-1,5.118905182E0,8.693920898E-1,5.285783845E0
1.109726113E1,-1.070573730E0,5.392386475E0,8.934919739E-1,5.569765517E0
1.110726913E1,-1.006956024E0,5.372028809E0,8.141569519E-1,5.525894090E0
1.111727713E1,-9.422904968E-1,5.156027985E0,6.670129395E-1,5.283695886E0
1.112728513E1,-8.352630615E-1,4.836292877E0,4.207749939E-1,4.925895327E0
1.113729313E1,-7.229965210E-1,4.507726135E0,1.451980591E-1,4.567647245E0
1.114730113E1,-8.807684326E-1,4.294120331E0,7.484436035E-2,4.384156033E0
1.115730913E1,-1.256487122E0,4.238436127E0,3.634442139E-1,4.435672709E0
1.116731713E1,-1.779499512E0,4.269421692E0,7.463479614E-1,4.685255102E0
1.117732513E1,-2.312690735E0,4.384682007E0,1.071771240E0,5.071751998E0
1.118733313E1,-2.565964050E0,4.296365662E0,1.300046539E0,5.170401378E0
1.119734113E1,-2.676284637E0,3.958368530E0,1.409019928E0,4.981618014E0
1.120734913E1,-2.807711334E0,3.815565491E0,1.423988800E0,4.946668278E0
1.121735713E1,-3.032992859E0,3.929328918E0,1.433868256E0,5.166686521E0
1.122736613E1,-3.581003265E0,4.175566864E0,1.611548767E0,5.732018183E0
1.123737413E1,-4.531676331E0,4.570445709E0,2.156116333E0,6.787775923E0
1.124738213E1,-5.888454895E0,5.227279816E0,3.243305511E0,8.515714061E0
1.125739012E1,-7.627388763E0,6.238127747E0,4.143234100E0,1.068913869E1
1.126739813E1,-9.171577606E0,7.454647980E0,4.314028931E0,1.258175099E1
1.127740613E1,-1.005159760E1,8.627459106E0,3.847000122E0,1.379373317E1
1.128741412E1,-1.035381912E1,9.568851471E0,3.634142761E0,1.455924045E1
1.129742213E1,-1.075842773E1,9.987830200E0,3.823199615E0,1.516962012E1
1.130743013E1,-1.141990219E1,1.031325348E1,4.094884644E0,1.592311036E1
1.131743813E1,-1.245380219E1,1.126078308E1,4.580025787E0,1.740342095E1
1.132744613E1,-1.346749420E1,1.253164032E1,5.166057129E0,1.910768315E1
1.133745413E1,-1.428314804E1,1.391671005E1,5.669011230E0,2.073212061E1
1.134746213E1,-1.501737122E1,1.540252029E1,6.230792999E0,2.239602311E1
1.135747013E1,-1.602312973E1,1.684626801E1,6.894512787E0,2.425019049E1
1.136747813E1,-1.704101303E1,1.824720474E1,7.909701691E0,2.619007421E1
1.137748613E1,-1.754261993E1,1.932571198E1,8.826844482E0,2.755249246E1
1.138749413E1,-1.738784180E1,1.971999207E1,9.402996368E0,2.792188156E1
1.139750213E1,-1.669074142E1,1.938678497E1,9.588909760E0,2.731987319E1
1.140751013E1,-1.577614334E1,1.865345993E1,9.172026672E0,2.609529343E1
1.141751813E1,-1.494132935E1,1.801653442E1,8.455317078E0,2.488636619E1
1.142752613E1,-1.405142990E1,1.756686951E1,7.773335266E0,2.380046906E1
1.143753413E1,-1.321826248E1,1.696916245E1,7.120692444E0,2.265787276E1
1.144754213E1,-1.267414398E1,1.629451538E1,6.618786163E0,2.167841063E1
1.145755013E1,-1.225561432E1,1.555131088E1,6.345903625E0,2.079215827E1
1.146755813E1,-1.217268677E1,1.509176651E1,6.366560669E0,2.040756757E1
1.147756613E1,-1.237356903E1,1.471964035E1,6.708150330E0,2.036595943E1
1.148757412E1,-1.246607666E1,1.409813278E1,7.112908630E0,2.011849608E1
1.149758213E1,-1.229872467E1,1.335238358E1,7.270231476E0,1.955507713E1
1.150759013E1,-1.184471878E1,1.232312393E1,7.210505676E0,1.855123011E1
1.151759812E1,-1.099688187E1,1.096170502E1,6.776558075E0,1.694143226E1
1.152760613E1,-9.725725250E0,9.634564819E0,6.070177002E0,1.497536710E1
1.153761413E1,-8.493038635E0,8.354426880E0,5.282065887E0,1.303182158E1
1.154762213E1,-7.375911713E0,7.135960693E0,4.547992401E0,1.122542843E1
1.155763113E1,-6.371350708E0,6.082601166E0,3.848946075E0,9.612831668E0
1.156763913E1,-5.572911072E0,5.253774719E0,3.360212402E0,8.363642389E0
1.157764713E1,-4.832550659E0,4.481680298E0,3.014132080E0,7.247344090E0
1.158765513E1,-4.131259003E0,3.726949768E0,2.667303314E0,6.170248171E0
1.159766313E1,-3.484154663E0,3.045716400E0,2.272424469E0,5.155544110E0
1.160767113E1,-2.790946198E0,2.436034241E0,1.896256714E0,4.161662291E0
1.161767913E1,-2.105820923E0,1.876198425E0,1.542392578E0,3.214588178E0
1.162768713E1,-1.458866272E0,1.379381561E0,1.231189728E0,2.355167178E0
1.163769513E1,-9.809101868E-1,1.055904236E0,1.033600616E0,1.773541312E0
1.164770313E1,-6.233038330E-1,9.288185120E-1,8.909472656E-1,1.430034449E0
1.165771142E1,-2.459385681E-1,9.753717041E-1,7.313790894E-1,1.243684491E0
1.166771942E1,9.759704590E-2,1.089135132E0,5.754034424E-1,1.235649481E0
1.167772742E1,2.634521484E-1,1.272204437E0,4.667294312E-1,1.380488148E0
1.168773542E1,3.206332397E-1,1.527124329E0,3.700305176E-1,1.603694788E0
1.169774342E1,3.727249146E-1,1.848805389E0,3.306623840E-1,1.914769658E0
1.170775142E1,5.029541016E-1,2.105222168E0,2.960842896E-1,2.184625623E0
1.171775942E1,6.815327454E-1,2.239343262E0,2.447410583E-1,2.353517222E0
1.172776742E1,8.397537231E-1,2.277962952E0,1.984872437E-1,2.435918453E0
1.173777542E1,9.910890198E-1,2.440524902E0,1.547781372E-1,2.638631372E0
1.174778342E1,1.154998169E0,2.677781525E0,1.540296936E-1,2.920318443E0
1.175779142E1,1.190773773E0,2.893932037E0,1.769320679E-1,3.134340405E0
1.176779942E1,1.119821320E0,3.166365509E0,8.622070312E-2,3.359658366E0
1.177780742E1,1.037043457E0,3.488795013E0,-4.296066284E-2,3.639916949E0
1.178781542E1,9.107061768E-1,3.860771484E0,-1.428030396E-1,3.969299044E0
1.179782342E1,7.785310364E-1,4.212390289E0,-1.669029236E-1,4.286980185E0
1.180783142E1,5.921685791E-1,4.518054657E0,-6.376739502E-2,4.557142503E0
1.181783942E1,3.438349915E-1,4.812941437E0,3.562591553E-2,4.825339053E0
1.182784742E1,1.992356873E-1,5.050048370E0,6.691085815E-2,5.054419894E0
1.183785542E1,9.190887451E-2,5.155578918E0,2.275268555E-2,5.156448284E0
1.184786442E1,-3.562591553E-2,5.183570709E0,-2.933898926E-2,5.183776160E0
1.185787242E1,-2.520758057E-1,5.288203125E0,-4.251159668E-2,5.294378315E0
1.186788042E1,-5.123844910E-1,5.539530487E0,-5.792953491E-2,5.563478383E0
1.187788842E1,-7.741900635E-1,5.796246643E0,-1.196012878E-1,5.848944338E0
1.188789642E1,-1.032403107E0,6.010750580E0,-2.038760376E-1,6.102175362E0
1.189790442E1,-1.274300079E0,6.152206421E0,-2.863545227E-1,6.289315022E0
1.190791242E1,-1.592837677E0,6.267466736E0,-2.930905151E-1,6.473343278E0
1.191792042E1,-1.861079865E0,6.315067749E0,-1.248403931E-1,6.584776690E0
1.192792842E1,-2.035317535E0,6.236481171E0,1.154100037E-1,6.561214395E0
1.193793642E1,-2.165846100E0,5.976771240E0,4.355941772E-1,6.372003301E0
1.194794442E1,-2.349663849E0,5.625601501E0,9.187893677E-1,6.165426697E0
1.195795242E1,-2.784659271E0,5.376519470E0,1.581910400E0,6.258093111E0
1.196796042E1,-3.189267883E0,5.424120483E0,2.327958984E0,6.709091271E0
1.197796842E1,-3.413800964E0,5.682034149E0,2.905009003E0,7.237307953E0
1.198797642E1,-3.461851044E0,5.744604034E0,3.138373718E0,7.405017067E0
1.199798442E1,-3.369343414E0,5.412444763E0,3.136128387E0,7.105092161E0
1.200799242E1,-3.195704498E0,4.815336456E0,2.973117371E0,6.499186051E0
1.201800042E1,-3.160377960E0,4.279750214E0,2.847977600E0,6.034503058E0
1.202800842E1,-3.430566101E0,4.037553864E0,2.900518341E0,6.040168178E0
1.203801642E1,-4.034260712E0,4.051624603E0,3.137475586E0,6.521861273E0
1.204802442E1,-4.778063965E0,4.360731812E0,3.419938202E0,7.317229974E0
1.205803242E1,-5.273383942E0,4.729714508E0,3.444337463E0,7.876689538E0
1.206804042E1,-5.570516052E0,5.046904907E0,3.379073181E0,8.241361162E0
1.207804842E1,-5.950276337E0,5.447172546E0,3.593726807E0,8.831327737E0
1.208805642E1,-6.588249664E0,5.898034973E0,3.912414093E0,9.669479522E0
1.209806442E1,-7.557633820E0,6.614894257E0,4.650678864E0,1.106812852E1
1.210807242E1,-8.791068878E0,7.494315491E0,5.670208740E0,1.286852454E1
1.211808042E1,-1.012614258E1,8.739126892E0,6.592590637E0,1.491218809E1
1.212808842E1,-1.113354767E1,9.966724091E0,7.197482758E0,1.658599502E1
1.213809642E1,-1.161674286E1,1.091769653E1,7.618557129E0,1.766882070E1
1.214810442E1,-1.185310135E1,1.144639709E1,7.372768250E0,1.805197301E1
1.215811242E1,-1.214409622E1,1.218136871E1,6.770570526E0,1.848527636E1
1.216812142E1,-1.246023880E1,1.333891159E1,6.360423431E0,1.932974650E1
1.217812942E1,-1.299657349E1,1.440679092E1,6.151008911E0,2.035439652E1
1.218813742E1,-1.359218491E1,1.540820847E1,6.534212036E0,2.156052656E1
1.219814542E1,-1.410471909E1,1.622790390E1,7.275171204E0,2.269837178E1
1.220815342E1,-1.442595108E1,1.673564804E1,8.027506714E0,2.350810167E1
1.221816142E1,-1.455258774E1,1.701137466E1,8.582103424E0,2.397534519E1
1.222816942E1,-1.447998871E1,1.710612762E1,8.961264954E0,2.413698293E1
1.223817742E1,-1.428150146E1,1.713367035E1,9.149423676E0,2.410883442E1
1.224818542E1,-1.392943359E1,1.696362396E1,9.196875000E0,2.379865895E1
1.225819342E1,-1.350312012E1,1.650662430E1,9.095086670E0,2.318455305E1
1.226820142E1,-1.301214111E1,1.589469681E1,8.905281372E0,2.238886418E1
1.227820942E1,-1.252864655E1,1.521421188E1,8.697812805E0,2.154277547E1
1.228821742E1,-1.210757217E1,1.445184723E1,8.544681244E0,2.069929395E1
1.229822542E1,-1.177870605E1,1.376088409E1,8.589438171E0,2.004690239E1
1.230823342E1,-1.148052612E1,1.295525940E1,8.673862610E0,1.936174369E1
1.231824142E1,-1.106828339E1,1.202195023E1,8.587941284E0,1.846041494E1
1.232824942E1,-1.046833099E1,1.104508163E1,8.351283417E0,1.735867843E1
1.233825742E1,-9.935588837E0,1.006147705E1,8.098459167E0,1.629522282E1
1.234826542E1,-9.269623718E0,9.105714569E0,7.790848846E0,1.515048803E1
1.235827342E1,-8.444689178E0,8.136779480E0,7.332651672E0,1.383068097E1
1.236828142E1,-7.565118256E0,7.167545013E0,6.776857452E0,1.243103023E1
1.237828942E1,-6.593638458E0,6.228547668E0,6.075865173E0,1.091728042E1
1.238829742E1,-5.666616211E0,5.399272156E0,5.369184723E0,9.491618602E0
1.239830542E1,-4.828658752E0,4.533622284E0,4.769082642E0,8.161729327E0
1.240831342E1,-4.016896820E0,3.669918365E0,4.208797760E0,6.878789098E0
1.241832142E1,-3.249442749E0,2.952909393E0,3.735482025E0,5.764753076E0
1.242832942E1,-2.616558838E0,2.492766266E0,3.245251465E0,4.857151519E0
1.243833742E1,-2.068997498E0,2.134411469E0,2.697989502E0,4.014425278E0
1.244834542E1,-1.573827209E0,1.896855469E0,2.192640381E0,3.298888388E0
1.245835342E1,-1.241967316E0,1.796264648E0,1.900298309E0,2.894854602E0
1.246836142E1,-9.521699524E-1,1.661694489E0,1.758992157E0,2.600367205E0
1.247836942E1,-6.545887756E-1,1.526824951E0,1.618135071E0,2.319060587E0
1.248837742E1,-3.710783386E-1,1.476230164E0,1.449585571E0,2.101964071E0
1.249838642E1,-1.595681763E-1,1.567540283E0,1.300794983E0,2.043211230E0
1.250839442E1,1.167572021E-2,1.706900482E0,1.146316223E0,2.056133863E0
1.251840242E1,1.496887207E-1,1.794318695E0,9.325607300E-1,2.027721827E0
1.252841042E1,3.616479492E-1,1.877545624E0,6.730004883E-1,2.027041308E0
1.253841842E1,6.195616150E-1,1.920955353E0,4.418811035E-1,2.066200613E0
1.254842642E1,8.511300659E-1,1.892963562E0,3.004252625E-1,2.097138234E0
1.255843442E1,9.735754395E-1,1.898651733E0,2.594105530E-1,2.149423499E0
1.256844242E1,9.351054382E-1,2.013313293E0,2.710862732E-1,2.236367672E0
1.257845042E1,8.791218567E-1,2.173629913E0,2.866539001E-1,2.362137316E0
1.258845842E1,8.738827515E-1,2.342329102E0,2.212399292E-1,2.509805528E0
1.259846642E1,8.737330627E-1,2.469265137E0,1.401086426E-1,2.623034543E0
1.260847442E1,7.903564453E-1,2.482288055E0,8.517288208E-2,2.606467287E0
1.261848242E1,6.289920044E-1,2.530637512E0,2.296224976E-1,2.617724900E0
1.262849042E1,4.114942932E-1,2.661465454E0,4.572990417E-1,2.731638397E0
1.263849842E1,2.544708252E-1,2.663112030E0,6.011499023E-1,2.741952277E0
1.264850642E1,2.035766602E-1,2.513123932E0,5.372328186E-1,2.577955480E0
1.265851404E1,1.134640503E-1,2.412832489E0,4.803511047E-1,2.462797575E0
1.266852204E1,-5.209167480E-2,2.466870117E0,4.719685364E-1,2.512153661E0
1.267853004E1,-2.323168945E-1,2.716999969E0,4.323010254E-1,2.760967973E0
1.268853804E1,-6.186634827E-1,3.079995117E0,5.117857361E-1,3.182929322E0
1.269854604E1,-1.153201904E0,3.398083649E0,7.545808411E-1,3.666911420E0
1.270855404E1,-1.594783630E0,3.476520538E0,1.042581940E0,3.964404997E0
1.271856204E1,-1.790127411E0,3.426674194E0,1.239572296E0,4.059949711E0
1.272857004E1,-1.905238037E0,3.174149323E0,1.264570312E0,3.912070293E0
1.273857804E1,-1.982926483E0,2.605781250E0,1.223256226E0,3.495489830E0
1.274858604E1,-2.280807037E0,1.928140411E0,1.356479187E0,3.280219806E0
1.275859404E1,-3.032992859E0,1.753303986E0,1.840871887E0,3.957515616E0
1.276860204E1,-4.214635620E0,2.496957550E0,2.474653931E0,5.488338774E0
1.277861004E1,-5.742209015E0,3.865860901E0,3.078198853E0,7.575826889E0
1.278861804E1,-7.367828522E0,5.630541229E0,3.843257904E0,1.003785450E1
1.279862604E1,-8.590186615E0,7.264094238E0,4.502487030E0,1.211737433E1
1.280863404E1,-9.303453369E0,8.045619049E0,4.752616882E0,1.318611382E1
1.281864304E1,-9.210346985E0,8.037236481E0,4.372557220E0,1.298256209E1
1.282865104E1,-8.650062103E0,7.741451569E0,3.570225677E0,1.214496431E1
1.283865904E1,-8.473579102E0,7.826025696E0,2.986439667E0,1.191499236E1
1.284866704E1,-8.976233826E0,8.435258789E0,2.823428650E0,1.263717191E1
1.285867504E1,-1.007839188E1,9.398356018E0,3.063080292E0,1.411685303E1
1.286868304E1,-1.146286285E1,1.060290115E1,3.532055054E0,1.600918957E1
1.287869104E1,-1.258058853E1,1.191656937E1,4.188589783E0,1.782751014E1
1.288869904E1,-1.351374802E1,1.283161652E1,4.788093109E0,1.924051983E1
1.289870704E1,-1.434960983E1,1.357392288E1,5.230423279E0,2.043330645E1
1.290871504E1,-1.498429001E1,1.435679489E1,5.671555939E0,2.151309028E1
1.291872304E1,-1.548425034E1,1.507095978E1,5.964047699E0,2.241574674E1
1.292873104E1,-1.617955444E1,1.597942062E1,6.239474945E0,2.358073182E1
1.293873904E1,-1.675316162E1,1.702349945E1,6.775959320E0,2.482703330E1
1.294874704E1,-1.683818481E1,1.775787231E1,7.223977661E0,2.551572751E1
1.295875504E1,-1.656979294E1,1.776894928E1,7.522756348E0,2.543394306E1
1.296876304E1,-1.607222763E1,1.727467712E1,7.623197479E0,2.479605030E1
1.297877104E1,-1.516930527E1,1.646441208E1,7.227570190E0,2.352493269E1
1.298877904E1,-1.406250687E1,1.557346481E1,6.450835419E0,2.195222502E1
1.299878704E1,-1.308474014E1,1.477008545E1,5.639073486E0,2.052230490E1
1.300879504E1,-1.241218872E1,1.422417068E1,5.057383118E0,1.954396542E1
1.301880304E1,-1.197584610E1,1.379471375E1,4.755460968E0,1.887669002E1
1.302881104E1,-1.180654816E1,1.334445007E1,4.798122253E0,1.845239562E1
1.303881904E1,-1.174562485E1,1.299178345E1,5.091212769E0,1.823914986E1
1.304882704E1,-1.162497574E1,1.271500900E1,5.504503326E0,1.808621220E1
1.305883504E1,-1.154668854E1,1.214888626E1,5.755681000E0,1.772143666E1
1.306884304E1,-1.133667526E1,1.135538635E1,5.885461121E0,1.709104028E1
1.307885104E1,-1.095945969E1,1.052296738E1,5.915548553E0,1.630448753E1
1.308885904E1,-1.058748322E1,9.788594513E0,5.845045166E0,1.555878968E1
1.309886704E1,-1.013751892E1,9.027726746E0,5.766608276E0,1.474865794E1
1.310887504E1,-9.573042755E0,8.289611664E0,5.600902863E0,1.384669354E1
1.311888304E1,-8.891210632E0,7.612419891E0,5.236710205E0,1.282285837E1
1.312889104E1,-8.167914734E0,6.924001465E0,4.833448792E0,1.174814260E1
1.313889904E1,-7.661667480E0,6.344107361E0,4.676575012E0,1.099177877E1
1.314890704E1,-7.040758667E0,5.772745514E0,4.441713409E0,1.013043392E1
1.315891504E1,-6.319857788E0,5.128634949E0,4.114793243E0,9.120034119E0
1.316892304E1,-5.606591034E0,4.378395081E0,3.783382416E0,8.057182448E0
1.317893204E1,-4.796775055E0,3.712729340E0,3.398832092E0,6.953090656E0
1.318894004E1,-4.043391724E0,3.182382202E0,2.969524841E0,5.940930137E0
1.319894804E1,-3.351081390E0,2.716850281E0,2.542313232E0,5.007432327E0
1.320895604E1,-2.658471680E0,2.340383148E0,2.199076996E0,4.169029214E0
1.321896404E1,-1.877096558E0,1.948198700E0,1.851799164E0,3.278434048E0
1.322897204E1,-1.169517975E0,1.536704407E0,1.447489929E0,2.413391767E0
1.323898004E1,-5.471122742E-1,1.203197937E0,1.074016571E0,1.703093864E0
1.324898804E1,5.239105225E-3,9.151968384E-1,7.711962891E-1,1.196810936E0
1.325899604E1,5.355862427E-1,7.300318909E-1,4.824467468E-1,1.025940568E0
1.326900404E1,1.008003845E0,6.303392029E-1,1.074765015E-1,1.193712889E0
1.327901204E1,1.417701874E0,4.531077576E-1,-3.079096985E-1,1.519866318E0
1.328902004E1,1.752705231E0,2.368075562E-1,-6.418652344E-1,1.881500578E0
1.329902804E1,2.085014191E0,7.409591675E-2,-9.219328308E-1,2.280950356E0
1.330903604E1,2.411485291E0,5.149291992E-2,-1.196761322E0,2.692610349E0
1.331904404E1,2.677931213E0,1.930984497E-2,-1.323098602E0,2.987018307E0
1.332905204E1,2.773582306E0,-5.388793945E-2,-1.267863464E0,3.050104995E0
1.333906004E1,2.764900360E0,-1.941462708E-1,-1.068328400E0,2.970470055E0
1.334906804E1,2.638413391E0,-2.495310974E-1,-7.967930603E-1,2.767376045E0
1.335907604E1,2.398761749E0,-1.821711731E-1,-4.839436340E-1,2.453863425E0
1.336908404E1,2.055675201E0,-1.444496155E-1,-1.710942078E-1,2.067834484E0
1.337909204E1,1.683698730E0,-1.031355286E-1,-5.209167480E-2,1.687658702E0
1.338910004E1,1.279239807E0,1.152603149E-1,-5.059478760E-2,1.285417931E0
1.339910804E1,8.084687805E-1,3.634442139E-1,2.454895020E-2,8.867446739E-1
1.340911604E1,2.847079468E-1,6.027964783E-1,3.667373657E-2,6.676579754E-1
1.341912404E1,-2.239343262E-1,8.611592102E-1,4.161346436E-2,8.907712659E-1
1.342913204E1,-7.018904114E-1,1.012793884E0,4.056564331E-2,1.232901932E0
1.343914004E1,-1.294957123E0,1.321601715E0,1.956431580E-1,1.860597025E0
1.344914804E1,-2.069147186E0,1.896107025E0,4.989125061E-1,2.850527253E0
1.345915604E1,-2.880010986E0,2.655328217E0,8.379574585E-1,4.005921108E0
1.346916404E1,-3.687581635E0,3.358266449E0,1.308429108E0,5.156374558E0
1.347917204E1,-4.509672089E0,3.892355804E0,1.862127686E0,6.241401731E0
1.348918004E1,-5.411097565E0,4.431384888E0,2.457290039E0,7.413192512E0
1.349918904E1,-6.071673889E0,4.819078674E0,2.877915344E0,8.268684286E0
1.350919704E1,-6.528673553E0,5.013224945E0,3.066972198E0,8.784208626E0
1.351920504E1,-7.256609802E0,5.440586243E0,3.276087341E0,9.643189968E0
1.352921304E1,-8.130342865E0,6.180347900E0,3.785328369E0,1.089164295E1
1.353922104E1,-9.039402466E0,7.156468048E0,4.389771423E0,1.233677126E1
1.354922904E1,-1.006042923E1,8.031548309E0,4.885540466E0,1.376904173E1
1.355923704E1,-1.106439148E1,8.744365997E0,5.274880829E0,1.505686100E1
1.356924504E1,-1.167586990E1,9.384434967E0,5.541027374E0,1.597174198E1
1.357925304E1,-1.215756821E1,1.023137375E1,5.558241577E0,1.683393961E1
1.358926104E1,-1.268447250E1,1.124566452E1,5.520969086E0,1.782812141E1
1.359926904E1,-1.325882812E1,1.224783051E1,5.412145386E0,1.884402274E1
1.360927704E1,-1.379905472E1,1.311228287E1,5.175786896E0,1.972649597E1
1.361928504E1,-1.431952240E1,1.409528870E1,5.044509888E0,2.071649018E1
1.362929304E1,-1.496872238E1,1.529504379E1,4.970713348E0,2.197063963E1
1.363930104E1,-1.565669174E1,1.640932663E1,5.141358490E0,2.325578560E1
1.364930904E1,-1.602238129E1,1.717797821E1,5.606591034E0,2.415022775E1
1.365931688E1,-1.616338806E1,1.761207550E1,6.219566345E0,2.470067454E1
1.366932488E1,-1.608599899E1,1.772059982E1,6.661597137E0,2.484262261E1
1.367933288E1,-1.574755280E1,1.772089920E1,6.728957062E0,2.464334699E1
1.368934088E1,-1.513727188E1,1.758677811E1,6.419400787E0,2.407572368E1
1.369934888E1,-1.448717377E1,1.729623230E1,5.871240692E0,2.331328640E1
1.370935688E1,-1.393961243E1,1.699086731E1,5.395230560E0,2.262986698E1
1.371936488E1,-1.341121124E1,1.660062881E1,5.143454132E0,2.195214305E1
1.372937288E1,-1.300196228E1,1.603540421E1,5.079237671E0,2.125991219E1
1.373938088E1,-1.267549118E1,1.530866547E1,5.087769928E0,2.051606000E1
1.374938888E1,-1.233884125E1,1.449061661E1,5.040019226E0,1.968823930E1
1.375939688E1,-1.207943069E1,1.374561584E1,5.004992065E0,1.897115037E1
1.376940488E1,-1.179262711E1,1.298399963E1,5.106331329E0,1.826813948E1
1.377941288E1,-1.137963593E1,1.211131439E1,5.242248688E0,1.742587792E1
1.378942088E1,-1.094748459E1,1.125509491E1,5.149591370E0,1.652400894E1
1.379942888E1,-1.062116318E1,1.049048492E1,5.166356506E0,1.579717129E1
1.380943688E1,-1.027208908E1,9.875713348E0,5.349126434E0,1.522033777E1
1.381944488E1,-9.938133545E0,9.297765198E0,5.551505585E0,1.469810023E1
1.382945288E1,-9.488468628E0,8.588540039E0,5.565426636E0,1.395593173E1
1.383946088E1,-8.864116974E0,7.785160675E0,5.398224335E0,1.297390159E1
1.384946887E1,-8.025411072E0,6.939569092E0,5.189408569E0,1.181079182E1
1.385947688E1,-7.058571625E0,5.958658905E0,4.830904083E0,1.042433133E1
1.386948588E1,-6.091881866E0,4.881798248E0,4.409979401E0,8.966097095E0
1.387949387E1,-5.065615997E0,3.828139343E0,3.938160553E0,7.471561069E0
1.388950188E1,-4.075724487E0,2.932551727E0,3.382815399E0,6.054323228E0
1.389950988E1,-3.160527649E0,2.213746490E0,2.787802734E0,4.760404671E0
1.390951787E1,-2.335742798E0,1.650617523E0,2.213746490E0,3.616753537E0
1.391952588E1,-1.593436432E0,1.221459961E0,1.667831726E0,2.610108573E0
1.392953388E1,-9.361532593E-1,9.054670715E-1,1.275946655E0,1.823264492E0
1.393954188E1,-3.770658875E-1,7.241940308E-1,1.008303223E0,1.297424783E0
1.394954988E1,4.520599365E-2,5.653742981E-1,8.146060181E-1,9.926100158E-1
1.395955788E1,3.845503235E-1,4.328997803E-1,6.466552734E-1,8.680116438E-1
1.396956588E1,6.698570251E-1,3.987707520E-1,4.930746460E-1,9.224148488E-1
1.397957388E1,8.613088989E-1,3.670367432E-1,3.499722290E-1,9.995246627E-1
1.398958188E1,1.024619293E0,4.213737488E-1,1.640588379E-1,1.119962425E0
1.399958988E1,1.224304047E0,6.095324707E-1,-5.673202515E-2,1.368820205E0
1.400959788E1,1.368603973E0,7.653584290E-1,-1.922003174E-1,1.579807369E0
1.401960588E1,1.392703857E0,8.571176147E-1,-2.923420715E-1,1.661246077E0
1.402961388E1,1.533111877E0,8.583151245E-1,-4.399351501E-1,1.811264701E0
1.403962188E1,1.696871338E0,8.259823608E-1,-6.039939880E-1,1.981521621E0
1.404962988E1,1.652114410E0,7.339237976E-1,-6.114784241E-1,1.908410865E0
1.405963788E1,1.484163666E0,6.411167908E-1,-2.398013306E-1,1.634404235E0
1.406964588E1,1.139729919E0,7.905061340E-1,2.463876343E-1,1.408755161E0
1.407965388E1,6.682104492E-1,1.010997620E0,6.330335999E-1,1.367242820E0
1.408966188E1,2.516267395E-1,1.274749146E0,9.291178894E-1,1.597360777E0
1.409966988E1,-2.167492676E-1,1.624721375E0,1.180744629E0,2.020113281E0
1.410967787E1,-6.638694763E-1,1.916764069E0,1.325194244E0,2.422983071E0
1.411968588E1,-1.034349060E0,2.184557190E0,1.364562378E0,2.775643813E0
1.412969388E1,-1.312470703E0,2.441123657E0,1.324146423E0,3.071649037E0
1.413970187E1,-1.439706116E0,2.555186462E0,1.178499298E0,3.160789799E0
1.414970988E1,-1.451381836E0,2.548151093E0,1.040635986E0,3.111672618E0
1.415971788E1,-1.341210938E0,2.293680267E0,9.101074219E-1,2.808578193E0
1.416972588E1,-1.378333740E0,2.036215668E0,8.406518555E-1,2.598590712E0
1.417973388E1,-1.529818726E0,1.720522156E0,8.792715454E-1,2.464479716E0
1.418974188E1,-1.936073914E0,1.473086700E0,1.191073151E0,2.708693758E0
1.419974988E1,-2.834954681E0,1.545985107E0,1.874551849E0,3.733762530E0
1.420975888E1,-4.007765808E0,1.970202942E0,2.617007904E0,5.176158496E0
1.421976688E1,-5.127138062E0,2.753074951E0,3.270698547E0,6.675659921E0
1.422977488E1,-6.070626068E0,3.752097473E0,3.828289032E0,8.098551304E0
1.423978288E1,-6.721023560E0,4.552183685E0,4.176165619E0,9.128794733E0
1.424979088E1,-7.366331635E0,5.148992615E0,4.013154602E0,9.842782968E0
1.425979888E1,-8.120313721E0,5.934259644E0,3.645070038E0,1.069773191E1
1.426980688E1,-9.044042816E0,6.993457031E0,3.448678436E0,1.194137909E1
1.427981488E1,-1.020817200E1,8.256231079E0,3.436553650E0,1.357136795E1
1.428982288E1,-1.159997772E1,9.524094543E0,3.625311127E0,1.544055507E1
1.429983088E1,-1.291349625E1,1.075303894E1,4.294419708E0,1.734440176E1
1.430983888E1,-1.408226578E1,1.198512680E1,5.004692688E0,1.915725509E1
1.431984688E1,-1.532123932E1,1.335028793E1,5.498815155E0,2.105249463E1
1.432985488E1,-1.637025787E1,1.476619354E1,5.919440460E0,2.282686115E1
1.433986288E1,-1.712468903E1,1.631068176E1,6.127358093E0,2.443026465E1
1.434987088E1,-1.768841675E1,1.778062500E1,5.973328400E0,2.578199691E1
1.435987888E1,-1.799467987E1,1.895403488E1,5.682932281E0,2.674620835E1
1.436988687E1,-1.806278824E1,1.966430786E1,5.450316010E0,2.725170210E1
1.437989488E1,-1.812416061E1,2.000769379E1,5.597909088E0,2.757044785E1
1.438990288E1,-1.791384796E1,1.977477814E1,6.044729919E0,2.735848240E1
1.439991087E1,-1.732841537E1,1.912692535E1,6.498885498E0,2.661482229E1
1.440991888E1,-1.642160110E1,1.829959579E1,6.623276825E0,2.546393499E1
1.441992688E1,-1.524654465E1,1.721031097E1,6.376440125E0,2.386023714E1
1.442993488E1,-1.395847321E1,1.589334961E1,5.838907928E0,2.194380053E1
1.443994288E1,-1.286724243E1,1.468132004E1,5.333558807E0,2.023743895E1
1.444995088E1,-1.210981750E1,1.378318771E1,5.025349731E0,1.902309343E1
1.445995888E1,-1.166464325E1,1.312335983E1,5.016069031E0,1.826054282E1
1.446996688E1,-1.160910873E1,1.260259277E1,5.285808105E0,1.793143936E1
1.447997488E1,-1.164503403E1,1.214768875E1,5.798491974E0,1.779875469E1
1.448998288E1,-1.163829803E1,1.158231445E1,6.418502655E0,1.762944031E1
1.449999088E1,-1.145627655E1,1.082713486E1,6.954987030E0,1.722918937E1
1.450999888E1,-1.094464050E1,9.923164673E0,7.200326843E0,1.643469073E1
1.452000688E1,-1.022867935E1,8.854237518E0,7.061715088E0,1.526077401E1
1.453001488E1,-9.409732361E0,7.747888184E0,6.683152313E0,1.390098411E1
1.454002288E1,-8.366252289E0,6.745871887E0,6.209836578E0,1.241221315E1
1.455003088E1,-7.281158752E0,5.894292755E0,5.514682159E0,1.087058780E1
1.456003888E1,-6.364764404E0,5.119054871E0,4.820874939E0,9.484502299E0
1.457004688E1,-5.479954376E0,4.427193604E0,4.171674957E0,8.187357029E0
1.458005488E1,-4.683760071E0,3.833528137E0,3.453767853E0,6.968648274E0
1.459006288E1,-4.073030090E0,3.355272675E0,3.025358734E0,6.082780968E0
1.460007188E1,-3.395688629E0,3.031645660E0,2.836900635E0,5.363728357E0
1.461007988E1,-2.836451569E0,2.872227173E0,2.661465454E0,4.835136482E0
1.462008788E1,-2.437531128E0,2.684218140E0,2.514022064E0,4.412130093E0
1.463009587E1,-2.044747925E0,2.426005096E0,2.400707703E0,3.978679715E0
1.464010388E1,-1.549727325E0,2.116149445E0,2.168989563E0,3.403565627E0
1.465011188E1,-9.705816650E-1,1.799108734E0,1.805695038E0,2.727518208E0
1.466012087E1,-4.568499756E-1,1.542991333E0,1.479373627E0,2.185882083E0
1.467012888E1,-4.011657715E-2,1.329984283E0,1.214574280E0,1.801571041E0
1.468013688E1,3.375480652E-1,1.158441010E0,9.198371887E-1,1.517242473E0
1.469014487E1,7.134164429E-1,1.081051941E0,5.710624695E-1,1.415538295E0
1.470015288E1,1.067729645E0,1.046324158E0,2.692900085E-1,1.518998995E0
1.471016088E1,1.332379303E0,1.033301239E0,-1.496887207E-2,1.686170254E0
1.472016888E1,1.518741760E0,1.017883301E0,-2.811154175E-1,1.849780751E0
1.473017688E1,1.673519897E0,1.065933380E0,-4.317022705E-1,2.030578654E0
1.474018488E1,1.752256165E0,1.168919220E0,-4.465214539E-1,2.153173290E0
1.475019288E1,1.698068848E0,1.330882416E0,-3.827540588E-1,2.191160990E0
1.476020088E1,1.563947754E0,1.491498413E0,-2.662962341E-1,2.177478766E0
1.477020888E1,1.408570862E0,1.652713165E0,-1.191522217E-1,2.174794227E0
1.478021688E1,1.172661438E0,1.758243713E0,-5.119354248E-2,2.114042711E0
1.479022488E1,8.607101440E-1,1.947001190E0,-3.188369751E-2,2.129002620E0
1.480023288E1,4.941224670E-1,2.245779877E0,3.173400879E-2,2.299715486E0
1.481024088E1,3.876937866E-2,2.621498566E0,2.709365845E-1,2.635747413E0
1.482024888E1,-5.462141418E-1,3.074007568E0,5.692662048E-1,3.173631426E0
1.483025688E1,-1.089733887E0,3.462000732E0,8.705895996E-1,3.732411455E0
1.484026488E1,-1.592388611E0,3.805686035E0,1.101858673E0,4.270016419E0
1.485027288E1,-1.954186249E0,4.101920013E0,1.259480896E0,4.714963819E0
1.486028088E1,-2.090702362E0,4.175417175E0,1.198856964E0,4.821037541E0
1.487028888E1,-2.047292633E0,4.071233826E0,9.644444275E-1,4.657950734E0
1.488029688E1,-2.029629364E0,3.873644714E0,8.149053955E-1,4.448436751E0
1.489030487E1,-2.103425903E0,3.547472992E0,7.908055115E-1,4.199325960E0
1.490031288E1,-2.190395050E0,3.150648193E0,9.030720520E-1,3.942074789E0
1.491032088E1,-2.474204865E0,2.758912811E0,1.230890350E0,3.904917498E0
1.492032887E1,-2.930905151E0,2.303559723E0,1.674418030E0,4.086596156E0
1.493033688E1,-3.519331512E0,1.839375000E0,2.237846375E0,4.558174095E0
1.494034488E1,-4.040098572E0,1.553469543E0,2.755619659E0,5.131189316E0
1.495035387E1,-4.613705750E0,1.420845337E0,3.011587372E0,5.689880553E0
1.496036188E1,-5.294190674E0,1.451082458E0,3.190166016E0,6.349114458E0
1.497036988E1,-5.939199371E0,1.554367676E0,3.096610565E0,6.875983205E0
1.498037788E1,-6.536307678E0,1.676663361E0,2.724783783E0,7.277291031E0
1.499038588E1,-7.065157928E0,1.653760986E0,2.447111206E0,7.657658598E0
1.500039388E1,-7.761060791E0,1.675765228E0,2.121687927E0,8.218504326E0
1.501040188E1,-8.628207550E0,1.954335938E0,1.900747375E0,9.048659297E0
1.502040988E1,-9.735455017E0,2.647544403E0,1.788480835E0,1.024632810E1
1.503041788E1,-1.091859467E1,3.506009216E0,1.741927643E0,1.159922937E1
1.504042588E1,-1.187330933E1,4.320315857E0,1.881886597E0,1.277427495E1
1.505043388E1,-1.268492157E1,4.892276459E0,1.976639557E0,1.373858465E1
1.506044188E1,-1.357646759E1,5.347330170E0,1.824855194E0,1.470525446E1
1.507044988E1,-1.427341827E1,5.821094971E0,1.558409271E0,1.549336165E1
1.508045788E1,-1.498039810E1,6.413413239E0,1.470841370E0,1.636177163E1
1.509046588E1,-1.588840988E1,7.164700928E0,1.504521332E0,1.749394445E1
1.510047388E1,-1.708576996E1,8.262368317E0,1.760039978E0,1.906011558E1
1.511048188E1,-1.849748428E1,9.520352325E0,2.357747040E0,2.093688144E1
1.512048988E1,-2.022114990E1,1.106828339E1,3.163371735E0,2.326819119E1
1.513049788E1,-2.166594543E1,1.273731262E1,3.934268646E0,2.543876558E1
1.514050588E1,-2.285103104E1,1.457893295E1,4.515659637E0,2.747919372E1
1.515051387E1,-2.403162598E1,1.680136139E1,5.134921875E0,2.976864482E1
1.516052188E1,-2.476330444E1,1.877276184E1,5.781726837E0,3.160800847E1
1.517052988E1,-2.482063522E1,1.966834946E1,6.158044281E0,3.226188793E1
1.518053787E1,-2.434537354E1,1.934247711E1,6.278693390E0,3.172145369E1
1.519054588E1,-2.342643448E1,1.796788559E1,5.990542603E0,3.012522773E1
1.520055388E1,-2.209465393E1,1.628373779E1,5.366490326E0,2.796664204E1
1.521056188E1,-2.050196594E1,1.473116638E1,4.476590881E0,2.563937863E1
1.522056988E1,-1.887140671E1,1.320868240E1,3.519181824E0,2.330201542E1
1.523057788E1,-1.746148865E1,1.207059906E1,2.961142273E0,2.143294919E1
1.524058588E1,-1.657278671E1,1.135823044E1,2.979703674E0,2.031121100E1
1.525059388E1,-1.625110565E1,1.081216599E1,3.569926300E0,1.984302754E1
1.526060188E1,-1.629526382E1,1.036399796E1,4.384382629E0,1.980330497E1
1.527060988E1,-1.626772110E1,9.830657043E0,5.100643158E0,1.967986606E1
1.528061788E1,-1.610994919E1,9.053473206E0,5.580096130E0,1.930371241E1
1.529062588E1,-1.580039291E1,8.162226562E0,5.703140259E0,1.867619253E1
1.530063388E1,-1.509760437E1,7.312593384E0,5.531447296E0,1.766376486E1
1.531064188E1,-1.436053711E1,6.486611023E0,5.118605804E0,1.656807997E1
1.532064988E1,-1.351524490E1,5.689668274E0,4.503385162E0,1.533996896E1
1.533065788E1,-1.265528320E1,5.052144012E0,3.940405884E0,1.418475064E1
1.534066588E1,-1.188603287E1,4.541705475E0,3.721710663E0,1.325729973E1
1.535067388E1,-1.097263229E1,3.999981995E0,3.667822723E0,1.224138223E1
1.536068188E1,-1.012225067E1,3.465892639E0,3.761827240E0,1.134123955E1
1.537069088E1,-9.241931305E0,2.816992035E0,3.819457397E0,1.038927299E1
1.538069888E1,-8.240813141E0,1.971101074E0,3.572620697E0,9.195643496E0
1.539070688E1,-7.173532562E0,1.247056732E0,3.254681854E0,7.975441924E0
1.540071488E1,-6.160139923E0,7.915539551E-1,3.020868073E0,6.906484304E0
1.541072287E1,-5.073549500E0,5.291496277E-1,2.655328217E0,5.750797492E0
1.542073088E1,-4.158652039E0,2.941383362E-1,2.187251587E0,4.707969163E0
1.543073888E1,-3.449127502E0,6.661148071E-2,1.733395386E0,3.860774169E0
1.544074687E1,-2.759361877E0,6.481521606E-2,1.373244324E0,3.082868624E0
1.545075488E1,-2.046095123E0,1.218466187E-1,1.117426300E0,2.334522090E0
1.546076288E1,-1.383273468E0,9.849517822E-2,7.912545776E-1,1.596631014E0
1.547077088E1,-8.340655518E-1,1.466949463E-2,4.297563171E-1,9.383874631E-1
1.548077888E1,-3.270698547E-1,-7.125183105E-2,1.718426514E-1,3.762730526E-1
1.549078688E1,8.666976929E-2,-8.232879639E-2,2.245330811E-2,1.216298922E-1
1.550079488E1,3.487747192E-1,4.894821167E-2,-8.577163696E-2,3.624865596E-1
1.551080288E1,5.050497437E-1,2.725831604E-1,-1.534309387E-1,5.940689151E-1
1.552081088E1,5.798941040E-1,6.661148071E-1,-1.193019104E-1,8.911896846E-1
1.553081888E1,6.433621216E-1,1.098116455E0,-2.005828857E-2,1.272861698E0
1.554082688E1,5.905220032E-1,1.477427673E0,8.232879639E-3,1.591092878E0
1.555083488E1,5.098397827E-1,1.880389709E0,-2.230361938E-2,1.948409483E0
1.556084288E1,5.728587341E-1,2.243534546E0,-8.741821289E-2,2.317165581E0
1.557085088E1,6.730004883E-1,2.392774200E0,-2.495310974E-1,2.498112047E0
1.558085888E1,7.975415039E-1,2.385289764E0,-5.267546082E-1,2.569659535E0
1.559086688E1,9.809101868E-1,2.384241943E0,-8.437953186E-1,2.712708053E0
1.560087488E1,1.067130890E0,2.338736572E0,-1.105900269E0,2.798476817E0
1.561088288E1,9.936337280E-1,2.330354004E0,-1.228645020E0,2.815568567E0
1.562089088E1,8.436456299E-1,2.418370972E0,-1.208437042E0,2.832062180E0
1.563089888E1,6.018983459E-1,2.530188446E0,-1.029109955E0,2.796998836E0
1.564090687E1,1.630110168E-1,2.618355103E0,-6.896159363E-1,2.712549755E0
1.565091488E1,-4.688250732E-1,2.750679932E0,-1.526824951E-1,2.794521243E0
1.566092575E1,-1.022673340E0,2.994672546E0,3.365002441E-1,3.182319411E0
1.567093375E1,-1.627266083E0,3.186723175E0,8.268804932E-1,3.672455697E0
1.568094175E1,-2.151475983E0,3.322490845E0,1.163530426E0,4.125723860E0
1.569094975E1,-2.422412567E0,3.422931976E0,1.131497040E0,4.343366380E0
1.570095775E1,-2.554138641E0,3.475622406E0,7.768844604E-1,4.382593384E0
1.571096575E1,-2.549198914E0,3.541934509E0,1.983375549E-1,4.368415383E0
1.572097375E1,-2.476300507E0,3.648812256E0,-2.383044434E-1,4.416184336E0
1.573098175E1,-2.595752106E0,3.654500427E0,-3.592529297E-1,4.496928400E0
1.574098975E1,-2.957250366E0,3.572321320E0,-1.785786438E-1,4.640980464E0
1.575099875E1,-3.517834625E0,3.513643341E0,2.724334717E-1,4.979464828E0
1.576100675E1,-4.242028656E0,3.431314545E0,1.044527893E0,5.555156626E0
1.577101475E1,-4.867278442E0,3.047512665E0,1.628912659E0,5.969178279E0
1.578102275E1,-5.403762817E0,2.405348053E0,1.990710297E0,6.240935773E0
1.579103075E1,-5.920637970E0,1.681603088E0,2.174677734E0,6.527707574E0
1.580103875E1,-6.503974915E0,1.103056183E0,2.095342712E0,6.921624355E0
1.581104675E1,-7.074887695E0,8.758287048E-1,1.852846985E0,7.365741902E0
1.582105475E1,-7.979456635E0,1.092278595E0,1.638043671E0,8.218758287E0
1.583106275E1,-9.031768341E0,2.008672943E0,1.530716858E0,9.378203477E0
1.584107075E1,-1.043614792E1,3.126548309E0,1.646725616E0,1.101817557E1
1.585107875E1,-1.177720917E1,3.915108490E0,2.145189056E0,1.259494209E1
1.586108675E1,-1.299822006E1,4.140988770E0,2.793790283E0,1.392504136E1
1.587109475E1,-1.407912231E1,3.978426819E0,3.465593262E0,1.503528855E1
1.588110275E1,-1.474478806E1,3.890110474E0,3.584745483E0,1.566499711E1
1.589111075E1,-1.535731430E1,4.248764648E0,3.112776947E0,1.623540834E1
1.590111875E1,-1.613599503E1,5.105433197E0,2.393223267E0,1.709278506E1
1.591112675E1,-1.703697144E1,6.199358368E0,1.575473785E0,1.819814709E1
1.592113475E1,-1.781101181E1,7.195985870E0,9.315129089E-1,1.923231839E1
1.593114275E1,-1.835093903E1,7.986941071E0,4.502636719E-1,2.001876440E1
1.594115075E1,-1.910896271E1,8.621471558E0,2.059716797E-1,2.096484324E1
1.595115875E1,-2.024944107E1,9.259594574E0,4.790039062E-3,2.226611727E1
1.596116675E1,-2.145353714E1,1.005713608E1,-3.477268982E-1,2.369643762E1
1.597117475E1,-2.249791534E1,1.131616791E1,-8.057743835E-1,2.519645061E1
1.598118275E1,-2.306538528E1,1.290077271E1,-1.370250549E0,2.646355081E1
1.599119075E1,-2.301778427E1,1.416998337E1,-1.806144104E0,2.709001620E1
1.600119875E1,-2.259177017E1,1.471709564E1,-1.838626556E0,2.702520178E1
1.601120675E1,-2.230152374E1,1.446891174E1,-1.489402771E0,2.662565847E1
1.602121475E1,-2.199630844E1,1.369023102E1,-1.392105103E0,2.594605879E1
1.603122275E1,-2.141611496E1,1.261516663E1,-1.614243164E0,2.490779376E1
1.604123075E1,-2.068817871E1,1.159758270E1,-2.080074463E0,2.380822070E1
1.605123875E1,-2.000455032E1,1.100661163E1,-2.522404633E0,2.297150536E1
1.606124675E1,-1.954350906E1,1.099867813E1,-2.665806427E0,2.258375945E1
1.607125475E1,-1.929472641E1,1.138652161E1,-2.456092529E0,2.253822824E1
1.608126275E1,-1.921808578E1,1.194351334E1,-1.660946045E0,2.268790589E1
1.609127075E1,-1.962059875E1,1.215861603E1,-3.692820740E-1,2.308541116E1
1.610127875E1,-2.039014847E1,1.170326294E1,1.409169617E0,2.355228815E1
1.611128675E1,-2.063623672E1,1.085377945E1,2.922223206E0,2.349889748E1
1.612129475E1,-2.030422714E1,9.616602173E0,3.912713470E0,2.280460488E1
1.613130275E1,-1.957718903E1,8.231083374E0,4.467160492E0,2.170190283E1
1.614131075E1,-1.830169144E1,7.135511627E0,4.594246216E0,2.017360984E1
1.615131875E1,-1.671858353E1,6.267167358E0,4.540957031E0,1.842304841E1
1.616132675E1,-1.521241562E1,5.143903198E0,4.284839630E0,1.662038446E1
1.617133475E1,-1.365744919E1,3.812272339E0,3.952979736E0,1.472023735E1
1.618134375E1,-1.192210785E1,2.588417358E0,3.594475250E0,1.271836516E1
1.619135075E1,-1.012359787E1,1.514999542E0,3.321892090E0,1.076185042E1
1.620135975E1,-8.351732483E0,4.869374084E-1,2.927013245E0,8.863179454E0
1.621136775E1,-6.704557800E0,-5.730084229E-1,2.386636963E0,7.139710774E0
1.622137575E1,-5.224435730E0,-1.501976624E0,1.900148621E0,5.758578579E0
1.623138375E1,-3.996988220E0,-2.189945984E0,1.560355225E0,4.817311145E0
1.624139175E1,-2.942880249E0,-2.727927246E0,1.307530975E0,4.220399089E0
1.625139975E1,-1.959275665E0,-3.127745819E0,1.132095795E0,3.860465766E0
1.626140775E1,-1.105600891E0,-3.313958588E0,1.183588715E0,3.688571146E0
1.627141575E1,-3.769161987E-1,-3.230581970E0,1.254541168E0,3.486057835E0
1.628142375E1,2.749781799E-1,-3.036136322E0,1.160686340E0,3.262043768E0
1.629143175E1,8.655001831E-1,-2.863844604E0,9.794132996E-1,3.148006813E0
1.630143975E1,1.363813934E0,-2.710114288E0,8.901988220E-1,3.161828877E0
1.631144775E1,1.794318695E0,-2.451152802E0,8.026309204E-1,3.141965313E0
1.632145575E1,2.217039642E0,-2.064506836E0,5.502557373E-1,3.078998965E0
1.633146375E1,2.581831055E0,-1.643432465E0,2.487826538E-1,3.070604935E0
1.634147175E1,2.754422150E0,-1.157991943E0,9.744735718E-2,2.989528844E0
1.635147975E1,2.778971100E0,-6.021977234E-1,8.128097534E-2,2.844631623E0
1.636148775E1,2.691552887E0,1.466949463E-2,5.448669434E-2,2.692144301E0
1.637149575E1,2.646646271E0,6.607260132E-1,6.616241455E-2,2.728676018E0
1.638150375E1,2.661615143E0,1.082249451E0,3.502716064E-2,2.873444961E0
1.639151175E1,2.503543854E0,1.355581055E0,1.056802368E-1,2.848947198E0
1.640151975E1,2.197280731E0,1.601070557E0,2.490820312E-1,2.730111975E0
1.641152775E1,1.949695587E0,1.869612122E0,3.549119568E-1,2.724467813E0
1.642153575E1,1.747166748E0,2.048041077E0,3.619473267E-1,2.716260253E0
1.643154375E1,1.514999542E0,2.274370422E0,2.486329651E-1,2.744048612E0
1.644155175E1,1.160536652E0,2.575244751E0,1.339714050E-1,2.827840021E0
1.645155975E1,6.319857788E-1,2.935545502E0,1.865121460E-1,3.008591065E0
1.646156775E1,-1.880090332E-1,3.511847076E0,2.739303589E-1,3.527528189E0
1.647157575E1,-1.086740112E0,4.326453094E0,3.956272888E-1,4.478361464E0
1.648158375E1,-1.864971771E0,5.129832458E0,4.894821167E-1,5.480227505E0
1.649159175E1,-2.527194672E0,5.774242401E0,4.617897034E-1,6.319955533E0
1.650159975E1,-3.042572937E0,6.314918060E0,4.857398987E-1,7.026477313E0
1.651160775E1,-3.550616455E0,6.726412354E0,5.499563599E-1,7.625873875E0
1.652161575E1,-4.073329468E0,7.001689911E0,6.248007202E-1,8.124410779E0
1.653162375E1,-4.373754730E0,6.982978821E0,8.372090149E-1,8.282067531E0
1.654163175E1,-4.525838470E0,6.734345856E0,9.780661011E-1,8.172590854E0
1.655163975E1,-4.797074432E0,6.634204102E0,1.031205597E0,8.251543623E0
1.656164775E1,-5.049898682E0,6.792425079E0,9.717791748E-1,8.519558082E0
1.657165575E1,-5.091811523E0,6.961423645E0,7.152127075E-1,8.654449317E0
1.658166475E1,-5.054688721E0,7.029681702E0,5.198689270E-1,8.673901463E0
1.659167275E1,-5.074148254E0,6.885381775E0,4.305047607E-1,8.563924161E0
1.660168075E1,-5.105283508E0,6.446644135E0,5.436694336E-1,8.241281257E0
1.661168875E1,-5.040168915E0,5.762117615E0,7.502398682E-1,7.692084370E0
1.662169675E1,-4.806055756E0,4.846771088E0,9.574090576E-1,6.892459213E0
1.663170475E1,-4.599485321E0,3.809577942E0,1.014739838E0,6.057874731E0
1.664171275E1,-4.439617767E0,2.814447327E0,8.256829834E-1,5.321002919E0
1.665172075E1,-4.199217682E0,1.892664185E0,5.920188904E-1,4.643930794E0
1.666172575E1,-4.208199005E0,1.095571747E0,3.809577942E-1,4.365128310E0
1.667173375E1,-4.876409454E0,6.744973755E-1,3.944297791E-1,4.938612227E0
1.668174175E1,-6.197262726E0,9.219328308E-1,5.242098999E-1,6.287354090E0
1.669174975E1,-7.713310089E0,1.738035736E0,7.912545776E-1,7.946194344E0
1.670175775E1,-8.927285614E0,2.246079254E0,1.128203888E0,9.274381082E0
