"Time (s)","Acceleration x (m/s^2)","Acceleration y (m/s^2)","Acceleration z (m/s^2)","Absolute acceleration (m/s^2)"
1.266916668E-3,-5.388793945E0,-8.306227112E-1,6.962920532E0,8.843715091E0
1.127491667E-2,-5.502707062E0,-6.180647278E-1,7.289092255E0,9.153832799E0
2.128291666E-2,-5.548212433E0,-6.514453125E-1,7.206164703E0,9.117886374E0
3.129091667E-2,-5.424719238E0,-8.737330627E-1,6.936874695E0,8.849362622E0
4.129891667E-2,-5.225782928E0,-9.999206543E-1,6.641389160E0,8.509800145E0
5.130691666E-2,-5.065316620E0,-1.077309723E0,6.265820160E0,8.128870215E0
6.131491667E-2,-5.177283783E0,-8.897497559E-1,6.062393188E0,8.021753746E0
7.131875000E-2,-5.389991455E0,-6.873706055E-1,6.256240082E0,8.286436278E0
8.132575000E-2,-5.633535004E0,-8.048762512E-1,6.281088409E0,8.475648295E0
9.133375000E-2,-5.860163727E0,-1.005309448E0,6.796167297E0,9.029953263E0
1.013417500E-1,-6.073170776E0,-1.439855804E0,7.293582916E0,9.599632273E0
1.113497500E-1,-6.315516815E0,-1.812730408E0,7.176975403E0,9.730401847E0
1.213577500E-1,-6.339017944E0,-1.927092590E0,6.965764618E0,9.613465091E0
1.313657500E-1,-6.166426849E0,-1.876647491E0,6.652765503E0,9.263148209E0
1.413737500E-1,-5.987848206E0,-1.596729584E0,6.540199585E0,9.009888019E0
1.513817500E-1,-6.086642761E0,-1.208137665E0,6.408024445E0,8.920179034E0
1.613897500E-1,-6.359824677E0,-6.474037170E-1,6.768025818E0,9.309816054E0
1.713967500E-1,-6.520290985E0,-4.155358887E-1,7.220235443E0,9.737487585E0
1.814047500E-1,-6.958729248E0,-6.372248840E-1,7.456144867E0,1.021880935E1
1.914127500E-1,-7.253915405E0,-9.214837646E-1,7.973469086E0,1.081871667E1
2.014207500E-1,-7.308252411E0,-1.006207581E0,8.531808014E0,1.127895186E1
2.114287500E-1,-7.288343811E0,-9.801617432E-1,8.706794128E0,1.139688276E1
2.214367500E-1,-7.226222992E0,-8.307723999E-1,8.796457672E0,1.141429582E1
2.314447500E-1,-6.994804230E0,-8.511300659E-1,8.417445831E0,1.097748163E1
2.414527500E-1,-6.683900757E0,-9.934840393E-1,7.702382813E0,1.024637696E1
2.514607500E-1,-6.339467010E0,-1.144669647E0,7.007378082E0,9.518532354E0
2.614677500E-1,-6.058052216E0,-1.250499573E0,6.401587830E0,8.901913983E0
2.714757500E-1,-5.879623260E0,-1.325493622E0,5.764512634E0,8.340054492E0
2.814837500E-1,-5.805377655E0,-1.384021912E0,5.050946503E0,7.818566809E0
2.914917500E-1,-5.735922089E0,-1.601669312E0,4.469555511E0,7.446010560E0
3.014997500E-1,-5.700146484E0,-2.052980804E0,3.933520203E0,7.223502012E0
3.115077500E-1,-5.761967926E0,-2.543211365E0,3.388802948E0,7.152075492E0
3.215157500E-1,-5.972130890E0,-2.971321106E0,2.946622467E0,7.292302822E0
3.315237500E-1,-6.301595764E0,-3.149899750E0,2.592009888E0,7.506696535E0
3.415307500E-1,-6.691235504E0,-3.115770721E0,2.269879761E0,7.722241507E0
3.515387500E-1,-7.074588318E0,-2.973117371E0,1.979783020E0,7.925198267E0
3.615467500E-1,-7.487280121E0,-2.840792542E0,1.742376709E0,8.195446447E0
3.715547500E-1,-7.984695740E0,-2.683769073E0,1.516795807E0,8.559126826E0
3.815627500E-1,-8.616980896E0,-2.412084045E0,1.431922302E0,9.062058855E0
3.915707500E-1,-9.336235199E0,-1.970352631E0,1.399140472E0,9.643918874E0
4.015787500E-1,-9.896071014E0,-1.563947754E0,1.529968414E0,1.013503613E1
4.115867500E-1,-1.029948212E1,-1.525028687E0,1.930086365E0,1.058915850E1
4.215947500E-1,-1.046129562E1,-1.739981689E0,2.372266846E0,1.086710138E1
4.316017500E-1,-1.054646851E1,-1.908231812E0,2.687960358E0,1.104963698E1
4.416097500E-1,-1.054197784E1,-1.937121735E0,2.916085968E0,1.110807341E1
4.516177500E-1,-1.044183609E1,-1.848655701E0,3.056943054E0,1.103604864E1
4.616257500E-1,-1.026235931E1,-1.693727875E0,3.109932861E0,1.085616945E1
4.716337500E-1,-1.003438339E1,-1.580114136E0,3.050656128E0,1.060622994E1
4.816417500E-1,-9.844877472E0,-1.522783356E0,2.959495697E0,1.039226137E1
4.916497500E-1,-9.839189301E0,-1.495240631E0,2.814447327E0,1.034246123E1
5.016577500E-1,-1.000654129E1,-1.465302887E0,2.668650513E0,1.045943004E1
5.116657500E-1,-1.021879990E1,-1.460812225E0,2.518961792E0,1.062558291E1
5.216727500E-1,-1.014395554E1,-1.442999268E0,2.309397583E0,1.050311373E1
5.316807500E-1,-9.991572418E0,-1.238674164E0,1.850601654E0,1.023672602E1
5.416887500E-1,-1.020203476E1,-1.141226807E0,1.251248016E0,1.034164075E1
5.516967500E-1,-1.054332504E1,-1.221010895E0,7.942483521E-1,1.064346753E1
5.617047500E-1,-1.100631226E1,-1.424288177E0,2.838098145E-1,1.110171403E1
5.717127500E-1,-1.188288940E1,-1.960024109E0,-2.287243652E-1,1.204562451E1
5.817207500E-1,-1.325044556E1,-2.949316864E0,-7.545808411E-1,1.359566731E1
5.917287500E-1,-1.573782303E1,-4.681065674E0,-1.321002960E0,1.647229487E1
6.017367500E-1,-1.923859314E1,-7.238048401E0,-1.327589264E0,2.059794417E1
6.117437500E-1,-2.218701187E1,-9.724976807E0,-4.122427368E-1,2.422826064E1
6.217517500E-1,-2.363435211E1,-1.130194748E1,8.830137634E-1,2.621252239E1
6.317597500E-1,-2.336251740E1,-1.179786621E1,2.082319794E0,2.625515039E1
6.417677500E-1,-2.191517715E1,-1.154594009E1,2.606529694E0,2.490738283E1
6.517757500E-1,-2.039299255E1,-1.090796677E1,2.875819702E0,2.330511153E1
6.617837500E-1,-1.940848984E1,-1.019050873E1,2.832559662E0,2.210337848E1
6.717917500E-1,-1.874297379E1,-9.558972015E0,2.473755798E0,2.118472280E1
6.817997500E-1,-1.814841019E1,-9.083111572E0,1.930834808E0,2.038616764E1
6.918067500E-1,-1.741029510E1,-8.568182373E0,1.370549927E0,1.945277697E1
7.018147500E-1,-1.610890137E1,-7.820786591E0,9.770182800E-1,1.793365470E1
7.118227500E-1,-1.441996353E1,-6.825655975E0,5.942642212E-1,1.596490143E1
7.218307500E-1,-1.267459305E1,-5.619613953E0,2.139051819E-1,1.386618640E1
7.318387500E-1,-1.070289322E1,-4.169279938E0,-9.939331055E-2,1.148671831E1
7.418467500E-1,-8.454269257E0,-2.574496307E0,-2.847079468E-1,8.842158024E0
7.518547500E-1,-6.219416656E0,-9.794132996E-1,-4.188290405E-1,6.309977157E0
7.618627500E-1,-4.108805695E0,3.867956543E-1,-4.837939453E-1,4.155231846E0
7.718707500E-1,-2.055675201E0,1.640738068E0,-3.367996216E-1,2.651651547E0
7.818777500E-1,-3.478765869E-1,2.701282654E0,-2.523751831E-1,2.735258549E0
7.918857500E-1,9.047186279E-1,3.551364899E0,-2.664459229E-1,3.674466202E0
8.018937500E-1,1.765728149E0,4.137246552E0,-4.659809875E-1,4.522360358E0
8.119017500E-1,2.237696686E0,4.346960449E0,-8.114625549E-1,4.955988608E0
8.219097500E-1,2.355950775E0,4.189338226E0,-1.186881866E0,4.950732006E0
8.319177500E-1,2.140249329E0,3.871549072E0,-1.444196777E0,4.653521649E0
8.419257500E-1,1.656455383E0,3.522624664E0,-1.689686279E0,4.243556137E0
8.519337500E-1,1.068478088E0,3.180436249E0,-1.829645233E0,3.821573215E0
8.619417500E-1,5.857319641E-1,2.915786591E0,-1.815125427E0,3.484189101E0
8.719487500E-1,3.564088440E-1,2.823278961E0,-1.676962738E0,3.303049406E0
8.819567500E-1,2.323168945E-1,2.826422424E0,-1.526226196E0,3.220559154E0
8.919647500E-1,2.754272461E-2,2.821931763E0,-1.298998718E0,3.106679118E0
9.019727500E-1,-3.095562744E-1,2.814896393E0,-1.030906219E0,3.013674571E0
9.119807500E-1,-6.424639893E-1,2.683020630E0,-7.212002563E-1,2.851576667E0
9.219887500E-1,-8.472381592E-1,2.446063385E0,-3.826043701E-1,2.616758431E0
9.319967500E-1,-1.119971008E0,2.215093689E0,-2.157014465E-1,2.491485947E0
9.420047500E-1,-1.484762421E0,1.871857452E0,-2.844085693E-3,2.389221182E0
9.520127500E-1,-1.995799713E0,1.327289886E0,1.755848694E-1,2.403277966E0
9.620197500E-1,-2.628384247E0,6.530918884E-1,2.950364685E-1,2.724330979E0
9.720277500E-1,-3.170257416E0,1.612147522E-1,4.930746460E-1,3.212420409E0
9.820357500E-1,-3.661984863E0,-2.140548706E-2,6.119274902E-1,3.712821917E0
9.920437500E-1,-5.193150787E0,-7.668553162E-1,1.152603149E-2,5.249477595E0
1.002051750E0,-8.045768738E0,-2.473905487E0,-5.840853882E-1,8.437757918E0
1.012059750E0,-1.170625671E1,-4.601880341E0,-6.601272583E-1,1.259561499E1
1.022067750E0,-1.575922852E1,-7.230264587E0,-2.953358459E-1,1.734120044E1
1.032075750E0,-2.007460464E1,-1.042402313E1,3.878434753E-1,2.262300671E1
1.042083750E0,-2.414913162E1,-1.331720673E1,1.379830627E0,2.761218002E1
1.052090750E0,-2.670446777E1,-1.461695389E1,2.874921570E0,3.057857279E1
1.062098750E0,-2.690100906E1,-1.392554169E1,4.406087494E0,3.061043298E1
1.072107125E0,-2.646331924E1,-1.260513748E1,5.413193207E0,2.980770734E1
1.082115125E0,-2.679862198E1,-1.177825699E1,6.177503815E0,2.991747033E1
1.092123125E0,-2.742896118E1,-1.106094864E1,6.233188019E0,3.022490908E1
1.102131125E0,-2.765364395E1,-1.049572403E1,5.403164062E0,3.006789698E1
1.112139125E0,-2.762235901E1,-1.048779053E1,3.707340546E0,2.977805973E1
1.122147125E0,-2.695594482E1,-1.061248123E1,1.841620331E0,2.902824977E1
1.132155125E0,-2.555291245E1,-1.023706192E1,1.312770081E-1,2.752754992E1
1.142162125E0,-2.358046417E1,-9.152567139E0,-1.253343658E0,2.532545451E1
1.152170125E0,-2.114023865E1,-7.703280945E0,-2.287243652E0,2.261596142E1
1.162178125E0,-1.838312210E1,-6.172713776E0,-2.756068726E0,1.958666609E1
1.172186125E0,-1.568318665E1,-4.860392761E0,-2.647544403E0,1.663115307E1
1.182194125E0,-1.303534286E1,-3.720363464E0,-1.860181732E0,1.368289238E1
1.192202125E0,-1.040695862E1,-2.559527435E0,-8.291258240E-1,1.074911243E1
1.202210125E0,-7.836803284E0,-1.400787048E0,3.577560425E-2,7.961091003E0
1.212218125E0,-5.472020874E0,-2.285746765E-1,6.459068298E-1,5.514748812E0
1.222226125E0,-3.566333771E0,8.298742676E-1,9.684860229E-1,3.787531259E0
1.232233125E0,-2.224673767E0,1.793270874E0,1.002914429E0,3.028338018E0
1.242241125E0,-1.239871674E0,2.593357086E0,8.186476135E-1,2.988806895E0
1.252249125E0,-4.620890808E-1,3.219954071E0,4.378395081E-1,3.282275731E0
1.262257125E0,9.490264893E-2,3.864364014E0,-9.220825195E-2,3.866628778E0
1.272265125E0,4.531077576E-1,4.460125122E0,-7.964936829E-1,4.553287267E0
1.282273125E0,8.036787415E-1,4.897365875E0,-1.289568329E0,5.127677692E0
1.292281125E0,9.901908875E-1,5.121000824E0,-1.585353241E0,5.451465155E0
1.302289125E0,8.816665649E-1,5.137466583E0,-1.836381226E0,5.526589801E0
1.312297125E0,6.026467896E-1,4.925207977E0,-1.982028351E0,5.343153859E0
1.322304125E0,2.767744446E-1,4.514761505E0,-1.901795197E0,4.906781074E0
1.332312125E0,7.200027466E-2,3.989653473E0,-1.584904175E0,4.293534688E0
1.342320125E0,-1.237925720E-1,3.463796997E0,-1.329235840E0,3.712153304E0
1.352328125E0,-2.727328491E-1,3.052153015E0,-1.084045715E0,3.250411720E0
1.362336125E0,-3.125500488E-1,2.817441101E0,-8.096662903E-1,2.948087752E0
1.372344125E0,-3.781137085E-1,2.708318024E0,-6.267466736E-1,2.805488886E0
1.382352125E0,-6.186634827E-1,2.702480164E0,-5.099894714E-1,2.818906313E0
1.392360125E0,-8.858578491E-1,2.772983551E0,-4.234693909E-1,2.941684590E0
1.402368125E0,-1.129551086E0,2.709365845E0,-4.631369019E-1,2.971707376E0
1.412375125E0,-1.448837128E0,2.406695251E0,-4.947212219E-1,2.852377980E0
1.422383125E0,-1.860032043E0,2.111509094E0,-4.770579529E-1,2.854080263E0
1.432391125E0,-2.316732330E0,1.746867371E0,-5.294490051E-1,2.949425461E0
1.442399125E0,-2.660717010E0,1.288071442E0,-6.183641052E-1,3.020085630E0
1.452407125E0,-3.328628082E0,8.924441528E-1,-7.171586609E-1,3.520019605E0
1.462415125E0,-4.421655121E0,3.929328918E-1,-7.479945374E-1,4.501658149E0
1.472423125E0,-6.147117004E0,-5.053491211E-1,-7.087760925E-1,6.208444954E0
1.482431125E0,-8.962761841E0,-2.063459015E0,-7.920030212E-1,9.231263820E0
1.492439125E0,-1.251307892E1,-4.374054108E0,-9.123527527E-1,1.328690637E1
1.502447125E0,-1.679537384E1,-7.065157928E0,-1.009949799E0,1.824886401E1
1.512454125E0,-2.197699860E1,-1.014904495E1,-9.199868774E-1,2.422473852E1
1.522462125E0,-2.643383057E1,-1.296977921E1,4.402345276E-1,2.944751904E1
1.532470125E0,-2.890369446E1,-1.389769958E1,2.428549805E0,3.216313824E1
1.542478125E0,-2.887824738E1,-1.250439697E1,4.299509125E0,3.176159464E1
1.552486125E0,-2.732597534E1,-1.004815475E1,5.740712128E0,2.967541269E1
1.562494125E0,-2.569511673E1,-8.370144196E0,6.531966705E0,2.780224679E1
1.572502125E0,-2.523871582E1,-7.990533600E0,6.026767273E0,2.715075187E1
1.582510125E0,-2.560440536E1,-8.687484283E0,4.491260376E0,2.740856394E1
1.592518125E0,-2.573403580E1,-1.008872040E1,2.229014740E0,2.773069390E1
1.602526125E0,-2.497795807E1,-1.080528030E1,-4.086502075E-1,2.721799895E1
1.612533125E0,-2.348032242E1,-1.031954041E1,-2.659220123E0,2.578545921E1
1.622541125E0,-2.171489365E1,-8.916657715E0,-4.014651489E0,2.381513841E1
1.632549125E0,-1.973990067E1,-6.991211700E0,-4.439767456E0,2.140682728E1
1.642557125E0,-1.743080246E1,-4.881349182E0,-4.022135925E0,1.854286983E1
1.652565125E0,-1.497081802E1,-3.059038696E0,-3.064427490E0,1.558440971E1
1.662573125E0,-1.262175293E1,-1.631008301E0,-1.821711731E0,1.285641741E1
1.672581125E0,-1.033181488E1,-3.805087280E-1,-4.772076416E-1,1.034982670E1
1.682589125E0,-8.016878815E0,5.321434021E-1,6.360273743E-1,8.059655908E0
1.692597125E0,-5.855223999E0,1.091230774E0,1.211131439E0,6.077933205E0
1.702604125E0,-3.958518219E0,1.416504364E0,1.368154907E0,4.421334522E0
1.712612125E0,-2.525248718E0,1.817969513E0,1.013093262E0,3.272346589E0
1.722620125E0,-1.530417480E0,2.222727814E0,4.462220764E-1,2.735289882E0
1.732628125E0,-7.818241882E-1,2.596350861E0,-3.682342529E-2,2.711760096E0
1.742636125E0,-3.832031250E-2,3.074306946E0,-3.478765869E-1,3.094163823E0
1.752644125E0,6.101312256E-1,3.463048553E0,-6.402186584E-1,3.574191563E0
1.762652125E0,1.124012604E0,3.661386108E0,-9.231303406E-1,3.939710928E0
1.772660125E0,1.355880432E0,3.707789612E0,-1.302441559E0,4.157218970E0
1.782668125E0,1.321152649E0,3.591930542E0,-1.421893158E0,4.082791875E0
1.792676125E0,1.257385254E0,3.274590454E0,-1.315015411E0,3.746094747E0
1.802684125E0,1.229094086E0,2.806663513E0,-1.179696808E0,3.283247920E0
1.812691125E0,1.157243500E0,2.304757233E0,-9.786648560E-1,2.758424064E0
1.822699125E0,1.080153809E0,1.790277100E0,-7.310797119E-1,2.215017356E0
1.832707125E0,1.014590149E0,1.332229614E0,-5.649252319E-1,1.767305699E0
1.842715125E0,9.363029480E-1,1.104104004E0,-5.842350769E-1,1.561102010E0
1.852723125E0,7.788304138E-1,1.023122406E0,-6.300398254E-1,1.431889120E0
1.862731125E0,5.875282288E-1,1.028062134E0,-7.411088562E-1,1.396904974E0
1.872739125E0,3.561094666E-1,1.113235016E0,-9.533674622E-1,1.508315508E0
1.882747125E0,7.574249268E-2,1.130299530E0,-1.141975250E0,1.608546370E0
1.892755125E0,-3.707789612E-1,1.202599182E0,-1.333127747E0,1.833289781E0
1.902763125E0,-8.184979248E-1,1.348395996E0,-1.498084717E0,2.175400752E0
1.912771125E0,-1.314117279E0,1.316063232E0,-1.369202728E0,2.309468070E0
1.922778125E0,-1.999092865E0,1.077459412E0,-8.878038025E-1,2.438336863E0
1.932786125E0,-3.047812042E0,6.339317322E-1,-4.507127380E-1,3.145499906E0
1.942794125E0,-4.927453308E0,-4.273612976E-1,-3.194357300E-1,4.956255943E0
1.952802125E0,-8.057743835E0,-2.343975677E0,-3.306623840E-1,8.398261445E0
1.962810125E0,-1.209424988E1,-4.690496063E0,-7.304809570E-2,1.297216133E1
1.972818125E0,-1.645632889E1,-7.144343262E0,1.721420288E-2,1.794025355E1
1.982826125E0,-2.097124008E1,-9.205107880E0,-1.425036621E-1,2.290299607E1
1.992834125E0,-2.514366348E1,-1.054961197E1,2.362088013E-1,2.726818514E1
2.002842125E0,-2.774016403E1,-1.066801575E1,1.689386902E0,2.976873005E1
2.012850125E0,-2.778282532E1,-9.012757874E0,3.616629181E0,2.943119423E1
2.022857125E0,-2.619612488E1,-6.769373016E0,4.784500580E0,2.747640470E1
2.032865125E0,-2.495056503E1,-5.807323608E0,5.622458038E0,2.622723274E1
2.042873125E0,-2.500669830E1,-6.123765564E0,5.810766449E0,2.639318987E1
2.052881125E0,-2.551833435E1,-7.008575592E0,4.683909760E0,2.687460754E1
2.062889125E0,-2.562221832E1,-8.447533264E0,2.824027405E0,2.712626072E1
2.072897125E0,-2.531685333E1,-9.586814117E0,7.899073792E-1,2.708272551E1
2.082905125E0,-2.470462646E1,-9.615105286E0,-9.410929871E-1,2.652648628E1
2.092913125E0,-2.375425278E1,-8.945697327E0,-2.113005981E0,2.547066587E1
2.102921125E0,-2.250390289E1,-7.918533325E0,-2.622696075E0,2.400015313E1
2.112929125E0,-2.082514389E1,-6.734046478E0,-2.438878326E0,2.202230977E1
2.122937125E0,-1.888233398E1,-5.578599243E0,-1.686842194E0,1.976129406E1
2.132945125E0,-1.685420151E1,-4.776567078E0,-5.516029358E-1,1.752666447E1
2.142952125E0,-1.467353622E1,-4.072431335E0,5.348377991E-1,1.523756587E1
2.152960125E0,-1.221549774E1,-3.113824768E0,1.340612183E0,1.267720516E1
2.162968125E0,-9.588909760E0,-1.895208893E0,1.664987640E0,9.915199996E0
2.172976125E0,-7.349566498E0,-4.457730103E-1,1.575174408E0,7.529675670E0
2.182984125E0,-5.609734497E0,1.023421783E0,1.266815643E0,5.841347032E0
2.192992125E0,-4.196972351E0,2.201621704E0,7.095245361E-1,4.792195750E0
2.203000125E0,-2.895578613E0,3.234773254E0,9.355545044E-2,4.342451627E0
2.213008125E0,-1.688189392E0,4.110901337E0,-5.065466309E-1,4.472815971E0
2.223016125E0,-6.168672180E-1,4.659660187E0,-1.091380463E0,4.825356933E0
2.233024125E0,3.866459656E-1,4.885989532E0,-1.560654602E0,5.143737124E0
2.243032125E0,1.065634003E0,4.747228088E0,-1.772613831E0,5.178214957E0
2.253039125E0,1.241667938E0,4.334835663E0,-1.783092041E0,4.848912942E0
2.263047125E0,1.004561005E0,3.756139069E0,-1.490600281E0,4.164086060E0
2.273055125E0,7.536827087E-1,3.282823334E0,-9.773176575E-1,3.507152188E0
2.283063125E0,5.683680725E-1,2.986289978E0,-6.491999817E-1,3.108445064E0
2.293071125E0,4.966671753E-1,2.860701141E0,-5.565426636E-1,2.956354011E0
2.303079125E0,3.543132019E-1,2.782264252E0,-5.810916138E-1,2.864297414E0
2.313087125E0,1.022373962E-1,2.618055725E0,-6.074368286E-1,2.689544156E0
2.323095125E0,-1.802252197E-1,2.497855682E0,-5.891748047E-1,2.572720562E0
2.333103125E0,-4.619393921E-1,2.437381439E0,-5.162763977E-1,2.533921388E0
2.343111125E0,-6.764433289E-1,2.536924438E0,-4.447251892E-1,2.662957318E0
2.353119125E0,-7.932005310E-1,2.630330200E0,-4.915777588E-1,2.790959107E0
2.363127125E0,-9.710307312E-1,2.510279846E0,-5.553451538E-1,2.748238313E0
2.373134125E0,-1.298399963E0,2.198178864E0,-4.881349182E-1,2.599251523E0
2.383142125E0,-1.598825226E0,2.056124268E0,-2.929408264E-1,2.621011910E0
2.393150125E0,-1.851948853E0,2.135459290E0,-1.600172424E-1,2.831166976E0
2.403158125E0,-2.200573883E0,2.082469482E0,-9.610015869E-2,3.031243936E0
2.413166125E0,-2.411036224E0,1.978435822E0,2.993774414E-3,3.118864046E0
2.423174125E0,-2.674039307E0,1.871109009E0,1.204994202E-1,3.265892718E0
2.433182125E0,-3.465443573E0,1.302291870E0,1.508862305E-1,3.705135615E0
2.443190125E0,-5.130281525E0,8.966354370E-2,1.203497314E-1,5.132476218E0
2.453198125E0,-7.818690948E0,-1.562151489E0,-7.229965210E-2,7.973548311E0
2.463206125E0,-1.125045456E1,-3.812571716E0,-9.280700684E-2,1.187926951E1
2.473214125E0,-1.591445572E1,-6.720424805E0,-4.580474854E-2,1.727530343E1
2.483222125E0,-2.150712570E1,-1.015099091E1,7.640112305E-1,2.379459572E1
2.493229125E0,-2.589734619E1,-1.273372009E1,1.978435822E0,2.892636126E1
2.503237125E0,-2.821976669E1,-1.299028656E1,3.150049438E0,3.122539973E1
2.513245125E0,-2.823578339E1,-1.133487900E1,4.438120880E0,3.074794078E1
2.523253125E0,-2.757715302E1,-9.850266266E0,5.141508179E0,2.973150215E1
2.533261125E0,-2.710278946E1,-9.671837311E0,5.736071777E0,2.934294043E1
2.543269125E0,-2.685011490E1,-9.931846619E0,5.924829254E0,2.923480544E1
2.553277125E0,-2.662767746E1,-1.006207581E1,4.819976807E0,2.887058629E1
2.563285125E0,-2.625150970E1,-1.066337540E1,2.947221222E0,2.848746127E1
2.573293125E0,-2.582594467E1,-1.129296616E1,8.017327881E-1,2.819846234E1
2.583301125E0,-2.505864029E1,-1.131706604E1,-9.879455566E-1,2.751340534E1
2.593309125E0,-2.376697632E1,-1.059691360E1,-2.257754974E0,2.612013014E1
2.603317125E0,-2.187835373E1,-9.257648621E0,-2.811752930E0,2.392221508E1
2.613324125E0,-1.934187836E1,-7.465575256E0,-2.562820587E0,2.089045528E1
2.623332125E0,-1.655227936E1,-5.688770142E0,-1.661844177E0,1.758129073E1
2.633340125E0,-1.387524628E1,-4.286186829E0,-6.626719666E-1,1.453729655E1
2.643348125E0,-1.142918289E1,-3.130440216E0,2.926414490E-1,1.185375538E1
2.653356125E0,-9.084758148E0,-2.126777344E0,1.185684357E0,9.405416518E0
2.663364125E0,-6.734794922E0,-1.229543152E0,1.757944336E0,7.068211039E0
2.673372125E0,-4.638853455E0,-4.406835938E-1,1.872007141E0,5.021710280E0
2.683380125E0,-2.993475037E0,4.129911804E-1,1.724713440E0,3.479380830E0
2.693388125E0,-1.780247955E0,1.275048523E0,1.308878174E0,2.551116146E0
2.703396125E0,-8.099656677E-1,1.951192474E0,5.890251160E-1,2.193204742E0
2.713404125E0,1.213975525E-1,2.537074127E0,-1.481918335E-1,2.544296231E0
2.723412125E0,1.016685791E0,3.075055389E0,-9.538165283E-1,3.376297027E0
2.733420125E0,1.762434998E0,3.488645325E0,-1.746418304E0,4.280981221E0
2.743428125E0,2.217339020E0,3.647165680E0,-2.359543304E0,4.877074372E0
2.753435125E0,2.197430420E0,3.591032410E0,-2.901117096E0,5.112797143E0
2.763443125E0,1.907633057E0,3.544329529E0,-3.147654419E0,5.109702930E0
2.773451125E0,1.524579620E0,3.557053070E0,-3.018473053E0,4.907967923E0
2.783459125E0,1.160536652E0,3.532953186E0,-2.566712494E0,4.518475026E0
2.793467125E0,7.334747314E-1,3.377725983E0,-1.989213409E0,3.987980439E0
2.803475125E0,2.513273621E-1,3.163671112E0,-1.348395996E0,3.448209986E0
2.813483125E0,-1.556762695E-1,3.029100952E0,-7.159611511E-1,3.116454404E0
2.823491125E0,-4.764591980E-1,2.982398071E0,-3.462300110E-1,3.039997836E0
2.833499125E0,-6.963519287E-1,2.960393829E0,-1.365161133E-1,3.044252664E0
2.843507125E0,-9.193881226E-1,2.909349976E0,-1.067280579E-1,3.053028444E0
2.853515125E0,-1.198856964E0,2.862946472E0,-2.118095398E-1,3.111042238E0
2.863523125E0,-1.486858063E0,2.799927521E0,-1.752854919E-1,3.175069452E0
2.873531125E0,-1.689686279E0,2.679128723E0,-7.694000244E-2,3.168389212E0
2.883538125E0,-1.991009674E0,2.693947906E0,-1.152603149E-1,3.351829319E0
2.893546125E0,-2.374362488E0,2.695444794E0,-3.278182983E-2,3.592226957E0
2.903554125E0,-2.918780365E0,2.530936890E0,5.298980713E-2,3.863641841E0
2.913562125E0,-3.739673309E0,2.088007965E0,1.204994202E-1,4.284793324E0
2.923570125E0,-4.803211670E0,1.337618408E0,2.335144043E-2,4.986041580E0
2.933578125E0,-6.588998108E0,-1.083746338E-1,-1.124162292E-1,6.590848089E0
2.943586125E0,-9.476493530E0,-2.313439178E0,9.086105347E-2,9.755213283E0
2.953594125E0,-1.329550186E1,-5.213059387E0,1.695973206E-1,1.428198590E1
2.963602125E0,-1.840572510E1,-8.487649841E0,2.224374390E-1,2.026969153E1
2.973610125E0,-2.457065506E1,-1.167137924E1,7.455995178E-1,2.721202128E1
2.983618125E0,-3.023442719E1,-1.400637360E1,1.947450256E0,3.337801149E1
2.993626125E0,-3.385494827E1,-1.459689560E1,4.255051575E0,3.711242848E1
3.003634125E0,-3.501638306E1,-1.344623840E1,7.184160461E0,3.819110592E1
3.013641125E0,-3.393473236E1,-1.168395309E1,9.530980225E0,3.713381753E1
3.023649125E0,-3.152818680E1,-1.017808456E1,1.043974045E1,3.473626561E1
3.033657125E0,-2.935620346E1,-9.491462402E0,9.227112122E0,3.220270390E1
3.043665125E0,-2.827784592E1,-9.901908875E0,6.841223602E0,3.073250249E1
3.053673125E0,-2.784629333E1,-1.098984650E1,4.151167603E0,3.022292128E1
3.063681125E0,-2.659055466E1,-1.137619308E1,1.910626831E0,2.898492472E1
3.073693000E0,-2.413071991E1,-1.068762497E1,-1.504371643E-1,2.639203672E1
3.083701000E0,-2.074386292E1,-9.275311890E0,-2.009571075E0,2.281178720E1
3.093709000E0,-1.681992279E1,-7.425308990E0,-3.161874847E0,1.865589636E1
3.103717000E0,-1.293460236E1,-5.602699127E0,-3.597768402E0,1.454778722E1
3.113725000E0,-9.345815277E0,-3.886817322E0,-3.331921234E0,1.065613960E1
3.123733000E0,-6.250551910E0,-2.229763184E0,-2.556533661E0,7.111758390E0
3.133741000E0,-3.967798920E0,-9.226812744E-1,-1.807191925E0,4.456535836E0
3.143749000E0,-2.492167511E0,-1.559756470E-1,-1.274150391E0,2.803334893E0
3.153756000E0,-1.487157440E0,1.957928467E-1,-9.491761780E-1,1.775079578E0
3.163764000E0,-5.583389282E-1,4.378395081E-1,-8.193960571E-1,1.083907603E0
3.173772000E0,4.453239441E-1,6.468049622E-1,-9.060658264E-1,1.199010157E0
3.183780000E0,1.326691132E0,1.068627777E0,-1.225202179E0,2.098379152E0
3.193788000E0,1.959125977E0,1.677262115E0,-1.664089508E0,3.069295797E0
3.203796000E0,2.375410309E0,2.316882019E0,-2.179916840E0,3.970208288E0
3.213804000E0,2.577340393E0,2.875819702E0,-2.544408875E0,4.624612306E0
3.223812000E0,2.507136383E0,3.231629791E0,-2.868634644E0,4.995821121E0
3.233820000E0,2.082469482E0,3.458707581E0,-3.037184143E0,5.052110924E0
3.243828000E0,1.513951721E0,3.559897156E0,-3.045866089E0,4.923638675E0
3.253836000E0,9.842033386E-1,3.467389526E0,-2.989283752E0,4.682655624E0
3.263844000E0,6.747967529E-1,3.084336090E0,-2.741548920E0,4.181455519E0
3.273852000E0,4.722679138E-1,2.673739929E0,-2.385888519E0,3.614469009E0
3.283860000E0,3.106040955E-1,2.391127625E0,-1.872605896E0,3.052968893E0
3.293867000E0,1.308279419E-1,2.132166138E0,-1.434916077E0,2.573369879E0
3.303875000E0,-4.505630493E-2,1.931882629E0,-1.064137115E0,2.206034534E0
3.313883000E0,-2.704875183E-1,1.886526947E0,-7.637118530E-1,2.053144713E0
3.323891000E0,-6.764433289E-1,1.940863953E0,-5.596861267E-1,2.130205863E0
3.333899000E0,-1.149609375E0,2.030527496E0,-2.884501648E-1,2.351137411E0
3.343907000E0,-1.592687988E0,2.135758667E0,-1.769320679E-1,2.670098326E0
3.353915000E0,-2.214644623E0,2.236349487E0,-1.574725342E-1,3.151302498E0
3.363923000E0,-2.732567596E0,2.317181396E0,5.164260864E-2,3.583144185E0
3.373931000E0,-3.236120453E0,2.284100189E0,1.122665405E-1,3.962599278E0
3.383939000E0,-4.143683167E0,1.874851227E0,-2.052232361E-1,4.552723787E0
3.393947000E0,-5.763315125E0,6.982978821E-1,-7.161108398E-1,5.849464582E0
3.403955000E0,-8.553213501E0,-1.352437592E0,-1.531165924E0,8.793805645E0
3.413963000E0,-1.296334259E1,-4.554129639E0,-2.053280182E0,1.389259901E1
3.423971000E0,-1.863070724E1,-8.506360931E0,-1.591340790E0,2.054248754E1
3.433979000E0,-2.554108704E1,-1.283610718E1,-3.263214111E-1,2.858704707E1
3.443986000E0,-3.220627670E1,-1.588960739E1,1.947749634E0,3.596550585E1
3.453994000E0,-3.555196930E1,-1.555909470E1,4.586462402E0,3.907766096E1
3.464002000E0,-3.512131485E1,-1.212224167E1,5.905519409E0,3.762088063E1
3.474010000E0,-3.337938721E1,-8.886570282E0,7.052434387E0,3.525466568E1
3.484018000E0,-3.161350937E1,-6.678961029E0,7.857610016E0,3.325303791E1
3.494026000E0,-3.002815613E1,-5.489983521E0,7.548353119E0,3.144531307E1
3.504034000E0,-2.858560593E1,-5.505850525E0,6.327940979E0,2.979083908E1
3.514042000E0,-2.711506393E1,-6.282285919E0,4.620741119E0,2.821427045E1
3.524050000E0,-2.529275345E1,-7.041806488E0,2.580034790E0,2.638118639E1
3.534058000E0,-2.281465668E1,-6.835236053E0,8.153544617E-1,2.383052274E1
3.544066000E0,-1.969619156E1,-5.768703918E0,-7.225474548E-1,2.053630886E1
3.554074000E0,-1.627191238E1,-4.123774567E0,-1.918111267E0,1.689555563E1
3.564082000E0,-1.295900162E1,-2.372865601E0,-2.674488373E0,1.344318051E1
3.574090000E0,-9.998009033E0,-7.804769897E-1,-3.024909668E0,1.047470322E1
3.584097000E0,-7.410639496E0,5.692662048E-1,-3.087629242E0,8.048297713E0
3.594105000E0,-5.336702271E0,1.738335114E0,-3.007695465E0,6.367765079E0
3.604113000E0,-3.634591827E0,2.619103546E0,-2.673590240E0,5.217091710E0
3.614121000E0,-2.220033417E0,3.193459167E0,-2.294428711E0,4.515654209E0
3.624129000E0,-1.029409332E0,3.363954620E0,-2.010169830E0,4.051747402E0
3.634137000E0,4.206253052E-2,3.275638275E0,-1.692530365E0,3.687307202E0
3.644145000E0,9.984237671E-1,2.976560211E0,-1.487905884E0,3.474280448E0
3.654153000E0,1.850601654E0,2.639910278E0,-1.601669312E0,3.599888518E0
3.664161000E0,2.557880859E0,2.310595093E0,-1.898951111E0,3.935431297E0
3.674169000E0,3.062331848E0,1.941612396E0,-2.380499725E0,4.337570056E0
3.684177000E0,3.356470184E0,1.487456818E0,-2.928659821E0,4.696324970E0
3.694185000E0,3.435356140E0,1.124461670E0,-3.527414703E0,5.050617818E0
3.704193000E0,3.444038086E0,1.043929138E0,-3.886368256E0,5.296701294E0
3.714201000E0,3.196752319E0,1.248254242E0,-3.999233551E0,5.269841842E0
3.724209000E0,2.759212189E0,1.560205536E0,-3.793860626E0,4.943770997E0
3.734216000E0,2.225122833E0,1.760489044E0,-3.270698547E0,4.329891718E0
3.744224000E0,1.470092926E0,1.887275391E0,-2.674488373E0,3.588296207E0
3.754232000E0,7.155120850E-1,2.043849792E0,-2.041754150E0,2.976245878E0
3.764240000E0,1.085243225E-1,2.301763458E0,-1.543290710E0,2.773380386E0
3.774248000E0,-4.001179504E-1,2.487078094E0,-1.160686340E0,2.773597772E0
3.784256000E0,-9.824070740E-1,2.436632996E0,-9.773176575E-1,2.803115020E0
3.794264000E0,-1.572030945E0,2.278412018E0,-8.888516235E-1,2.907318322E0
3.804272000E0,-1.885030060E0,2.299368439E0,-6.707551575E-1,3.048006894E0
3.814280000E0,-2.324965210E0,2.375559998E0,-4.834945679E-1,3.358945597E0
3.824288000E0,-2.876268768E0,2.278112640E0,-3.062631226E-1,3.681917480E0
3.834296000E0,-3.828289032E0,1.961071930E0,-2.499801636E-1,4.308606516E0
3.844304000E0,-5.574407959E0,1.160237274E0,-1.526824951E-1,5.695918413E0
3.854312000E0,-8.682394867E0,-5.477110291E-1,-1.058299255E-1,8.700297005E0
3.864320000E0,-1.342378510E1,-3.451971588E0,3.472778320E-2,1.386056709E1
3.874328000E0,-1.924577820E1,-6.976242828E0,7.897576904E-1,2.048637742E1
3.884336000E0,-2.593731308E1,-1.050260971E1,1.835632782E0,2.804315546E1
3.894343000E0,-3.248784119E1,-1.322065750E1,3.688629456E0,3.526828032E1
3.904351000E0,-3.638932800E1,-1.332648743E1,6.960974579E0,3.937300632E1
3.914359000E0,-3.645249664E1,-1.020907013E1,1.005114853E1,3.916676156E1
3.924367000E0,-3.409340240E1,-6.125112762E0,1.148756149E1,3.649439906E1
3.934375000E0,-3.093781448E1,-3.390599213E0,1.176224030E1,3.327153175E1
3.944383000E0,-2.864937332E1,-3.013982391E0,1.074106384E1,3.074477409E1
3.954391000E0,-2.803041046E1,-5.063520355E0,8.303532715E0,2.966971191E1
3.964399000E0,-2.765124893E1,-7.597750397E0,5.609584808E0,2.921959651E1
3.974407000E0,-2.609388748E1,-9.250313873E0,3.021766205E0,2.784942264E1
3.984415000E0,-2.323303665E1,-9.341174927E0,3.239263916E-1,2.504269293E1
3.994423000E0,-1.960652802E1,-8.021369476E0,-1.988614655E0,2.127705095E1
4.004431000E0,-1.605531281E1,-5.877677307E0,-3.441493378E0,1.744029921E1
4.014439000E0,-1.301648209E1,-3.621718597E0,-3.988905029E0,1.408747723E1
4.024447000E0,-1.050246002E1,-1.775607605E0,-3.832779694E0,1.132009934E1
4.034455000E0,-8.300988007E0,-3.194357300E-1,-3.404071198E0,8.977535396E0
4.044462000E0,-6.306984558E0,8.617579651E-1,-2.907553711E0,6.998181877E0
4.054470000E0,-4.580025787E0,1.660946045E0,-2.409838715E0,5.435319734E0
4.064478000E0,-3.099304962E0,2.090702362E0,-1.824855194E0,4.160147124E0
4.074481750E0,-1.716181183E0,2.329455872E0,-1.231638794E0,3.144610728E0
4.084489750E0,-4.486170959E-1,2.458936615E0,-7.586224365E-1,2.612113048E0
4.094497750E0,5.769003296E-1,2.687810669E0,-4.797523499E-1,2.790573866E0
4.104505750E0,1.383872223E0,2.706222382E0,-5.777984619E-1,3.093960725E0
4.114513750E0,1.906734924E0,2.478246460E0,-1.082698517E0,3.309014909E0
4.124521750E0,2.201022949E0,2.348765717E0,-1.780247955E0,3.678380785E0
4.134529750E0,2.348017273E0,2.327958984E0,-2.539918213E0,4.169383968E0
4.144537750E0,2.399659882E0,2.463277588E0,-3.077300720E0,4.614746336E0
4.154545750E0,2.322121124E0,2.649490356E0,-3.422333221E0,4.911660650E0
4.164553750E0,2.033371582E0,2.683918762E0,-3.461252289E0,4.828901254E0
4.174561750E0,1.501377869E0,2.556234283E0,-3.123105469E0,4.306072106E0
4.184569750E0,9.126521301E-1,2.360890503E0,-2.593057709E0,3.623628866E0
4.194577750E0,3.496728516E-1,2.208657074E0,-2.011966095E0,3.008063287E0
4.204584750E0,-2.225871277E-1,2.172432404E0,-1.519340515E0,2.660338922E0
4.214592750E0,-6.574328613E-1,2.046843567E0,-1.081650696E0,2.406606487E0
4.224600750E0,-8.990304565E-1,2.003733215E0,-6.282435608E-1,2.284270678E0
4.234608750E0,-1.189276886E0,2.064506836E0,-4.348457336E-1,2.421912220E0
4.244616750E0,-1.594035187E0,2.164798279E0,-3.803590393E-1,2.715137706E0
4.254624750E0,-1.951042786E0,2.248474274E0,-4.068539429E-1,3.004618885E0
4.264632750E0,-2.257156219E0,2.253414001E0,-5.028044128E-1,3.228845171E0
4.274640750E0,-2.766546936E0,2.204615479E0,-6.141728210E-1,3.590448386E0
4.284648750E0,-3.462150421E0,1.867067413E0,-5.026547241E-1,3.965487112E0
4.294656750E0,-4.517306213E0,1.079255676E0,1.221459961E-1,4.646048631E0
4.304664750E0,-6.084996185E0,2.335144043E-2,8.463400269E-1,6.143615817E0
4.314672750E0,-8.201145630E0,-1.502575378E0,7.441026306E-1,8.370795132E0
4.324680750E0,-1.153156998E1,-4.017196198E0,2.140548706E-2,1.221128288E1
4.334688750E0,-1.650542679E1,-7.165599060E0,-8.372090149E-1,1.801321299E1
4.344696750E0,-2.272424469E1,-1.047357010E1,-1.442999268E0,2.506330414E1
4.354704750E0,-2.920127563E1,-1.348261276E1,-1.102906494E0,3.218247580E1
4.364711750E0,-3.413935684E1,-1.463132401E1,1.369202728E0,3.716780924E1
4.374719750E0,-3.496069885E1,-1.226205093E1,4.852459259E0,3.736515380E1
4.384727750E0,-3.283077805E1,-8.431366882E0,7.617359619E0,3.474150403E1
4.394735750E0,-3.011841843E1,-5.191953278E0,9.441466370E0,3.198776007E1
4.404743750E0,-2.865131927E1,-3.528612213E0,9.365574188E0,3.034902272E1
4.414751750E0,-2.825015350E1,-3.312012634E0,7.584128723E0,2.943738455E1
4.424759750E0,-2.793910034E1,-4.372407532E0,5.185366974E0,2.875064010E1
4.434767750E0,-2.703932144E1,-5.890849915E0,2.446811829E0,2.778153892E1
4.444775750E0,-2.533676193E1,-6.784790955E0,1.731898499E-1,2.623003790E1
4.454783750E0,-2.306523560E1,-6.914571075E0,-1.669627991E0,2.413719213E1
4.464791750E0,-2.017579422E1,-6.304589539E0,-3.019969940E0,2.135253475E1
4.474799750E0,-1.698068848E1,-5.176535339E0,-3.810775452E0,1.815660510E1
4.484807750E0,-1.397688492E1,-3.868106232E0,-4.182452545E0,1.509332525E1
4.494815750E0,-1.123788071E1,-2.535726929E0,-3.958817596E0,1.218163005E1
4.504823750E0,-8.641230469E0,-1.394350433E0,-3.337908783E0,9.367855261E0
4.514830750E0,-6.258934479E0,-3.270698547E-1,-2.634222107E0,6.798555847E0
4.524838750E0,-4.271667023E0,5.806425476E-1,-1.872007141E0,4.699861238E0
4.534846750E0,-2.815046082E0,1.171763306E0,-1.188378754E0,3.272576622E0
4.544854750E0,-1.771416321E0,1.512005768E0,-5.689668274E-1,2.397457085E0
4.554862750E0,-9.645941162E-1,1.757195892E0,-9.984237671E-2,2.007024592E0
4.564870750E0,-1.041833496E-1,2.031126251E0,1.908531189E-1,2.042731733E0
4.574878750E0,8.506809998E-1,2.294279022E0,1.142124939E-1,2.449575247E0
4.584886750E0,1.847158813E0,2.516566772E0,-2.763253784E-1,3.133920822E0
4.594894750E0,2.653531952E0,2.681972809E0,-8.581654358E-1,3.869193441E0
4.604902750E0,3.158132629E0,2.726280670E0,-1.451980591E0,4.417539545E0
4.614910750E0,3.357218628E0,2.749332733E0,-1.880988464E0,4.729467729E0
4.624918750E0,3.239563293E0,2.733615417E0,-2.243085480E0,4.795712257E0
4.634926750E0,2.979404297E0,2.671494598E0,-2.480791168E0,4.708296738E0
4.644934750E0,2.592009888E0,2.614612885E0,-2.474504242E0,4.435976447E0
4.654942750E0,2.066153412E0,2.510130157E0,-2.197280731E0,3.924001267E0
4.664950750E0,1.590442657E0,2.306553497E0,-1.811233521E0,3.336204992E0
4.674958750E0,1.038390656E0,2.192790070E0,-1.577868805E0,2.894175774E0
4.684966750E0,6.295907593E-1,2.186652832E0,-1.180445251E0,2.563451994E0
4.694973750E0,3.324586487E-1,2.223326569E0,-9.060658264E-1,2.423770836E0
4.704981750E0,-4.775070190E-2,2.312541046E0,-8.493338013E-1,2.464040204E0
4.714989750E0,-5.456153870E-1,2.344275055E0,-7.664062500E-1,2.526004795E0
4.724997750E0,-9.713301086E-1,2.419269104E0,-6.824308777E-1,2.694820417E0
4.735005750E0,-1.472038879E0,2.480342102E0,-7.771838379E-1,2.987140794E0
4.745013750E0,-2.023342438E0,2.413431244E0,-7.801776123E-1,3.244571173E0
4.755021750E0,-2.980302429E0,2.086810455E0,-7.063810730E-1,3.706204887E0
4.765029750E0,-4.475692749E0,1.324146423E0,-5.797444153E-1,4.703327856E0
4.775037750E0,-6.493945770E0,2.164498901E-1,-6.078858948E-1,6.525925795E0
4.785045750E0,-9.164542236E0,-1.535506897E0,-8.723858643E-1,9.333149143E0
4.795053750E0,-1.319251602E1,-3.951782227E0,-1.371597748E0,1.383981005E1
4.805061750E0,-1.875644577E1,-6.877148895E0,-1.978136444E0,2.007517020E1
4.815069750E0,-2.563688782E1,-1.040201889E1,-2.097438354E0,2.774619364E1
4.825077750E0,-3.199925720E1,-1.350746109E1,-6.113287354E-1,3.473870593E1
4.835085750E0,-3.569252701E1,-1.419498138E1,2.546504517E0,3.849595649E1
4.845093750E0,-3.629981415E1,-1.222807159E1,5.972579956E0,3.876691829E1
4.855100750E0,-3.506188843E1,-9.657916260E0,8.787775726E0,3.741438719E1
4.865108750E0,-3.291056213E1,-7.879165192E0,1.005219635E1,3.530202537E1
4.875116750E0,-3.065669907E1,-6.957531738E0,9.381291504E0,3.280623532E1
4.885124750E0,-2.899680084E1,-7.191944275E0,7.753726044E0,3.086517113E1
4.895132750E0,-2.767924072E1,-7.931855621E0,5.692362671E0,2.935059954E1
4.905140750E0,-2.587534195E1,-8.500223694E0,3.256927185E0,2.742981404E1
4.915148750E0,-2.343781082E1,-8.411757660E0,6.637197876E-1,2.491042286E1
4.925156750E0,-2.048774551E1,-7.668553162E0,-1.780697021E0,2.194824152E1
4.935164750E0,-1.708172836E1,-6.336323547E0,-3.994443512E0,1.865181007E1
4.945172750E0,-1.335148544E1,-4.596341858E0,-5.455704803E0,1.513780819E1
4.955180750E0,-9.705966339E0,-2.802023163E0,-6.151907043E0,1.182806310E1
4.965188750E0,-6.520590363E0,-1.221010895E0,-6.308182068E0,9.154350184E0
4.975196750E0,-3.936064911E0,6.436614990E-3,-6.069877625E0,7.234366786E0
4.985204750E0,-2.040406952E0,8.175997925E-1,-5.504653015E0,5.927304174E0
4.995212750E0,-8.888516235E-1,1.210083618E0,-4.796475677E0,5.025986321E0
5.005220750E0,-1.591191101E-1,1.402134247E0,-3.933071136E0,4.178558113E0
5.015228750E0,3.257226562E-1,1.620679779E0,-3.128194885E0,3.538121173E0
5.025236750E0,8.458909607E-1,1.905387726E0,-2.685864716E0,3.399985761E0
5.035243750E0,1.416803741E0,2.250270538E0,-2.562072144E0,3.692595836E0
5.045251750E0,1.822310486E0,2.607577515E0,-2.644550629E0,4.136897875E0
5.055259750E0,1.930385742E0,2.803669739E0,-2.797831879E0,4.406224726E0
5.065267750E0,1.824705505E0,2.812201996E0,-2.831062775E0,4.387817986E0
5.075276750E0,1.568438416E0,2.790497131E0,-2.747237091E0,4.218315415E0
5.085284750E0,1.229094086E0,2.754422150E0,-2.546205139E0,3.947236281E0
5.095292750E0,8.053253174E-1,2.762804718E0,-2.291884003E0,3.678908949E0
5.105300750E0,3.568579102E-1,2.757715302E0,-2.075284424E0,3.469747353E0
5.115308750E0,-7.469467163E-2,2.739453278E0,-1.877845001E0,3.322120618E0
5.125316750E0,-4.685256958E-1,2.705324249E0,-1.804347839E0,3.285417287E0
5.135324750E0,-7.565267944E-1,2.638413391E0,-1.763782196E0,3.262588795E0
5.145332750E0,-8.704399109E-1,2.588417358E0,-1.675914917E0,3.204100633E0
5.155340750E0,-7.905061340E-1,2.641407166E0,-1.547032928E0,3.161525367E0
5.165348750E0,-7.789801025E-1,2.655477905E0,-1.305135956E0,3.059698150E0
5.175356750E0,-9.821076965E-1,2.447859650E0,-1.091679840E0,2.854525751E0
5.185364750E0,-1.277443542E0,2.135758667E0,-8.955876160E-1,2.644882656E0
5.195372750E0,-1.659449158E0,1.804647217E0,-6.213578796E-1,2.529151775E0
5.205380750E0,-2.311942291E0,1.423988800E0,-4.933740234E-1,2.759753465E0
5.215387750E0,-3.153791656E0,7.708969116E-1,-3.896397400E-1,3.269939294E0
5.225395750E0,-4.470902710E0,-1.356179810E-1,-6.234535217E-1,4.516199461E0
5.235403750E0,-6.750661926E0,-1.416354675E0,-1.096469879E0,6.984249652E0
5.245411750E0,-1.032313293E1,-3.337310028E0,-1.630708923E0,1.097104933E1
5.255419750E0,-1.567824692E1,-6.699019318E0,-1.795665894E0,1.714376570E1
5.265427750E0,-2.213911148E1,-1.111154343E1,-8.425978088E-1,2.478541155E1
5.275435750E0,-2.864233795E1,-1.469329514E1,4.941224670E-1,3.219504003E1
5.285443750E0,-3.286475739E1,-1.584410202E1,2.515818329E0,3.657126179E1
5.295451750E0,-3.390793808E1,-1.390518402E1,4.455185394E0,3.691816740E1
5.305459750E0,-3.300905731E1,-1.115854568E1,5.617368622E0,3.529399151E1
5.315467750E0,-3.173221252E1,-8.753946075E0,6.877298584E0,3.362829344E1
5.325475750E0,-3.020748322E1,-6.742878113E0,7.419321442E0,3.182773599E1
5.335483750E0,-2.859967667E1,-5.448968811E0,6.496789856E0,2.983020357E1
5.345491750E0,-2.707180389E1,-5.406457214E0,4.466262360E0,2.796533292E1
5.355499750E0,-2.538136917E1,-6.190676422E0,1.906285858E0,2.619489075E1
5.365507750E0,-2.366893021E1,-6.687193909E0,-5.757028198E-1,2.460220017E1
5.375515750E0,-2.148557053E1,-6.532266083E0,-2.848726044E0,2.263659606E1
5.385522750E0,-1.873309433E1,-5.710774384E0,-4.757855988E0,2.015388203E1
5.395530750E0,-1.546613800E1,-4.420158234E0,-6.009553070E0,1.717131188E1
5.405538750E0,-1.189995392E1,-2.834355927E0,-6.434818726E0,1.382206095E1
5.415546750E0,-8.450227661E0,-1.308728485E0,-6.345454559E0,1.064818817E1
5.425554750E0,-5.272635498E0,2.095642090E-3,-5.866750031E0,7.887930363E0
5.435562750E0,-2.741997986E0,9.235794067E-1,-5.076692963E0,5.843317834E0
5.445570750E0,-1.173409882E0,1.367406464E0,-4.274511108E0,4.638764534E0
5.455578750E0,-2.912942505E-1,1.554667053E0,-3.446133728E0,3.791791088E0
5.465586750E0,3.576063538E-1,1.776505737E0,-2.673440552E0,3.229727438E0
5.475594750E0,1.009051666E0,2.140698395E0,-2.192341003E0,3.226008983E0
5.485602750E0,1.624571686E0,2.605481873E0,-1.987566833E0,3.657620930E0
5.495610750E0,2.081271973E0,3.038830719E0,-2.030527496E0,4.205856283E0
5.505618750E0,2.404000854E0,3.187321930E0,-2.305655365E0,4.610237288E0
5.515626750E0,2.601589966E0,3.135529633E0,-2.629731445E0,4.849258077E0
5.525634750E0,2.590063934E0,3.061733093E0,-2.881058807E0,4.937928773E0
5.535642750E0,2.373164978E0,3.010689240E0,-3.182382202E0,4.982340634E0
5.545650750E0,2.013313293E0,2.969225464E0,-3.248544617E0,4.839707884E0
5.555658750E0,1.519190826E0,2.875071259E0,-3.003055115E0,4.426320767E0
5.565665750E0,1.157842255E0,2.786754913E0,-2.623145142E0,3.998436203E0
5.575673750E0,8.475375366E-1,2.688409424E0,-2.317331085E0,3.649094198E0
5.585681750E0,5.303471375E-1,2.637365570E0,-1.947450256E0,3.321073281E0
5.595689750E0,1.478924561E-1,2.602039032E0,-1.536105652E0,3.025243771E0
5.605697750E0,-2.700384521E-1,2.523751831E0,-1.107546844E0,2.769278621E0
5.615705750E0,-7.137158203E-1,2.357597351E0,-6.641688538E-1,2.551230254E0
5.625713750E0,-1.236428833E0,2.208507385E0,-3.290158081E-1,2.552354312E0
5.635721750E0,-1.900447998E0,2.011367340E0,-1.755848694E-1,2.772747954E0
5.645729750E0,-2.771486664E0,1.690883789E0,-7.708969116E-2,3.247486588E0
5.655737750E0,-4.038751373E0,1.164727936E0,-1.347198486E-2,4.203365951E0
5.665745750E0,-5.651797028E0,3.598516846E-1,1.287322998E-2,5.663256007E0
5.675753750E0,-7.719896393E0,-1.001417542E0,-1.456471252E-1,7.785939281E0
5.685761750E0,-1.043375290E1,-2.870879974E0,-4.453239441E-1,1.083067241E1
5.695769750E0,-1.440768906E1,-5.385051727E0,-6.929090881E-1,1.539676619E1
5.705777750E0,-1.973017090E1,-8.378077698E0,-6.969506836E-1,2.144662141E1
5.715785750E0,-2.572101288E1,-1.137499557E1,1.651066589E-1,2.812451401E1
5.725793750E0,-3.044144669E1,-1.302710999E1,2.023641815E0,3.317351952E1
5.735801750E0,-3.263558395E1,-1.190668991E1,4.161047058E0,3.498806821E1
5.745809750E0,-3.232797363E1,-9.026978302E0,5.468428345E0,3.400717461E1
5.755816750E0,-3.060520615E1,-6.641239471E0,6.145171051E0,3.191469618E1
5.765824750E0,-2.935156311E1,-5.540727997E0,5.964197388E0,3.045957278E1
5.775832750E0,-2.872361893E1,-5.269492035E0,5.070555725E0,2.963991171E1
5.785840750E0,-2.806543762E1,-5.739813995E0,3.965703278E0,2.891956182E1
5.795848750E0,-2.704186615E1,-6.897656250E0,2.272274780E0,2.800006106E1
5.805856750E0,-2.551189774E1,-7.981252899E0,1.686991882E-1,2.673173738E1
5.815864750E0,-2.339020981E1,-8.317154388E0,-1.760339355E0,2.488726113E1
5.825872750E0,-2.064851120E1,-7.746391296E0,-3.466192017E0,2.232447267E1
5.835880750E0,-1.742256958E1,-6.440057831E0,-4.595294037E0,1.913470676E1
5.845888750E0,-1.385907990E1,-4.851261749E0,-4.911286926E0,1.548320301E1
5.855896750E0,-1.050994446E1,-3.248095551E0,-4.924609222E0,1.205242022E1
5.865904750E0,-7.530390472E0,-1.825154572E0,-4.577181702E0,8.999364545E0
5.875912750E0,-4.968168640E0,-7.198530579E-1,-3.977378998E0,6.404719491E0
5.885920750E0,-2.940185852E0,6.032455444E-2,-3.322790222E0,4.437258924E0
5.895928750E0,-1.463506622E0,5.861810303E-1,-2.699037323E0,3.125741881E0
5.905936750E0,-4.071533203E-1,8.963360596E-1,-2.117646332E0,2.335298299E0
5.915944750E0,4.423301697E-1,1.203497314E0,-1.802102509E0,2.211704143E0
5.925952750E0,1.286574554E0,1.697619781E0,-1.745819550E0,2.754101107E0
5.935960750E0,2.160157928E0,2.105371857E0,-1.828597412E0,3.527412852E0
5.945967750E0,2.812950439E0,2.298170929E0,-2.167492676E0,4.229929585E0
5.955975750E0,3.020419006E0,2.454296265E0,-2.711012421E0,4.743004267E0
5.965983750E0,2.930755463E0,2.514321442E0,-3.085383911E0,4.942745570E0
5.975991750E0,2.655477905E0,2.517315216E0,-3.140918427E0,4.822220170E0
5.985999750E0,2.338437195E0,2.643203430E0,-2.884202271E0,4.557788458E0
5.996007750E0,1.870659943E0,2.701132965E0,-2.470911713E0,4.111069521E0
6.006015750E0,1.245260468E0,2.572999420E0,-2.001487885E0,3.489549169E0
6.016023750E0,5.992039490E-1,2.446662140E0,-1.472937012E0,2.918003502E0
6.026031750E0,-3.637435913E-2,2.523602142E0,-8.313711548E-1,2.657267180E0
6.036039750E0,-6.074368286E-1,2.657423859E0,-2.775228882E-1,2.740054747E0
6.046047750E0,-1.030756531E0,2.764451294E0,8.771759033E-2,2.951668064E0
6.056055750E0,-1.325194244E0,2.871329041E0,2.836601257E-1,3.175080048E0
6.066063750E0,-1.633403320E0,2.951562195E0,3.445834351E-1,3.390938445E0
6.076070917E0,-2.054777069E0,2.970872040E0,3.047662354E-1,3.625061646E0
6.086078917E0,-2.345322876E0,2.845582581E0,2.613565063E-1,3.696780605E0
6.096086917E0,-2.653232574E0,2.560275879E0,1.356179810E-1,3.689586414E0
6.106094917E0,-2.941383362E0,2.179168396E0,2.014810181E-1,3.666211339E0
6.116102917E0,-3.412753143E0,1.865121460E0,5.298980713E-2,3.889520536E0
6.126110917E0,-4.503983917E0,1.141226807E0,-3.984713745E-1,4.663373155E0
6.136118917E0,-6.370452576E0,-9.041198730E-2,-7.875123596E-1,6.419580677E0
6.146125917E0,-9.593849487E0,-1.781295776E0,-1.246158600E0,9.837066325E0
6.156133917E0,-1.435679489E1,-4.153263245E0,-1.610950012E0,1.503204294E1
6.166141917E0,-2.026111679E1,-7.200925598E0,-1.690584412E0,2.156905790E1
6.176149917E0,-2.644026718E1,-1.031624725E1,-1.417252808E0,2.841691911E1
6.186157917E0,-3.173146408E1,-1.232297424E1,-3.212319946E-1,3.404180807E1
6.196165917E0,-3.357847321E1,-1.187196213E1,1.623823242E0,3.565240735E1
6.206173917E0,-3.243619858E1,-9.382489014E0,3.086132355E0,3.390667031E1
6.216181917E0,-3.025852707E1,-7.295079803E0,4.191882935E0,3.140650462E1
6.226189917E0,-2.821123444E1,-5.968238983E0,4.822222137E0,2.923606422E1
6.236197917E0,-2.736878632E1,-5.285957794E0,4.223916321E0,2.819278779E1
6.246205917E0,-2.717673569E1,-5.316344604E0,3.204985199E0,2.787670018E1
6.256213917E0,-2.684607330E1,-6.009702759E0,1.904040527E0,2.757632226E1
6.266221917E0,-2.607338013E1,-6.800208893E0,-5.059478760E-2,2.694562213E1
6.276229917E0,-2.458367798E1,-6.888525238E0,-1.797611847E0,2.559375727E1
6.286237917E0,-2.253518784E1,-6.608757019E0,-3.173101501E0,2.369765670E1
6.296245917E0,-1.994766861E1,-5.974675598E0,-4.088897095E0,2.122086970E1
6.306253917E0,-1.706900482E1,-4.997058563E0,-4.478237457E0,1.834055971E1
6.316261917E0,-1.412537613E1,-3.944297791E0,-4.328848114E0,1.529126096E1
6.326269917E0,-1.134116592E1,-3.020718384E0,-3.814817047E0,1.234097294E1
6.336276917E0,-8.875792694E0,-2.192490692E0,-3.241209869E0,9.700110968E0
6.346284917E0,-6.635551300E0,-1.378782806E0,-2.628683624E0,7.269220087E0
6.356292917E0,-4.728217621E0,-6.944059753E-1,-2.185754700E0,5.255070422E0
6.366300917E0,-3.106939087E0,-1.628613281E-1,-1.932930450E0,3.662760493E0
6.376308917E0,-1.651066589E0,3.706292725E-1,-1.836231537E0,2.497024869E0
6.386316917E0,-4.496649170E-1,7.990383911E-1,-1.921254730E0,2.128821417E0
6.396324917E0,4.430786133E-1,1.118174744E0,-2.189197540E0,2.497842926E0
6.406332917E0,1.075663147E0,1.435365143E0,-2.667003937E0,3.214068185E0
6.416340917E0,1.558409271E0,1.811682587E0,-3.109334106E0,3.921580273E0
6.426348917E0,1.901046753E0,2.187850342E0,-3.504961395E0,4.548122938E0
6.436356917E0,2.163900146E0,2.386636963E0,-3.837569733E0,5.010533034E0
6.446364917E0,2.352208557E0,2.537074127E0,-3.897594910E0,5.211609761E0
6.456372917E0,2.336790619E0,2.650238800E0,-3.772604828E0,5.168839646E0
6.466380917E0,2.109114075E0,2.610870667E0,-3.497177582E0,4.847190821E0
6.476388917E0,1.698667603E0,2.468217316E0,-3.007396088E0,4.245232570E0
6.486396917E0,1.252445526E0,2.315983887E0,-2.364932098E0,3.539110763E0
6.496404917E0,8.484356689E-1,2.320324860E0,-1.792672119E0,3.052445555E0
6.506412917E0,4.834945679E-1,2.415377197E0,-1.299148407E0,2.784887895E0
6.516420917E0,1.344204712E-1,2.515219574E0,-8.985813904E-1,2.674293717E0
6.526428917E0,-2.371069336E-1,2.583627319E0,-6.737489319E-1,2.680538649E0
6.536436917E0,-6.289920044E-1,2.530338135E0,-4.999603271E-1,2.654845070E0
6.546444917E0,-1.053509216E0,2.458337860E0,-4.538562012E-1,2.712801532E0
6.556451917E0,-1.498683472E0,2.448608093E0,-4.766088867E-1,2.910135697E0
6.566459917E0,-2.060315552E0,2.362537079E0,-4.923262024E-1,3.173147761E0
6.576467917E0,-2.764151917E0,2.210004272E0,-4.935237122E-1,3.573264664E0
6.586475917E0,-3.421435089E0,1.847308502E0,-2.357597351E-1,3.895426732E0
6.596483917E0,-4.511618042E0,1.045426025E0,-7.155120850E-2,4.631709458E0
6.606491917E0,-6.181545410E0,-1.868115234E-1,-1.716929626E-1,6.186750413E0
6.616499917E0,-8.704249420E0,-2.037712555E0,-3.984713745E-1,8.948464106E0
6.626507917E0,-1.231638794E1,-4.362528076E0,-7.137158203E-1,1.308565831E1
6.636515917E0,-1.675660446E1,-6.904092865E0,-8.394543457E-1,1.814262867E1
6.646523917E0,-2.225766495E1,-9.636211395E0,-5.019062805E-1,2.425926893E1
6.656531917E0,-2.789539124E1,-1.192884384E1,6.364764404E-1,3.034559721E1
6.666539917E0,-3.151875641E1,-1.259885056E1,2.525697784E0,3.403736462E1
6.676547917E0,-3.178086136E1,-1.087907684E1,3.892355804E0,3.381608930E1
6.686555917E0,-3.026690964E1,-8.537196808E0,4.064797211E0,3.170949581E1
6.696563917E0,-2.874547348E1,-7.112010498E0,3.805686035E0,2.985575631E1
6.706571917E0,-2.817396194E1,-6.305337982E0,2.901266785E0,2.901631899E1
6.716579917E0,-2.773836777E1,-5.816454620E0,2.076931000E0,2.841763243E1
6.726587917E0,-2.685490494E1,-5.658832397E0,9.747729492E-1,2.746194614E1
6.736595917E0,-2.518857010E1,-5.604645081E0,-4.763095093E-1,2.580897094E1
6.746603917E0,-2.297482361E1,-5.342839508E0,-1.716630249E0,2.365027005E1
6.756611917E0,-2.043206131E1,-4.793481903E0,-2.611619110E0,2.114869151E1
6.766618917E0,-1.764650391E1,-3.992946625E0,-3.200943604E0,1.837358873E1
6.776626917E0,-1.482187775E1,-3.049159241E0,-3.436403961E0,1.551754827E1
6.786634917E0,-1.214185089E1,-2.100581818E0,-3.347638550E0,1.276885550E1
6.796642917E0,-9.704170074E0,-1.115031281E0,-3.107537842E0,1.025041477E1
6.806650917E0,-7.562274170E0,-2.454895020E-1,-2.768193512E0,8.056745685E0
6.816658917E0,-5.656138000E0,5.357359314E-1,-2.396067352E0,6.166039963E0
6.826666917E0,-3.847449188E0,1.305585022E0,-1.937421112E0,4.501224064E0
6.836674917E0,-2.202968903E0,2.077679443E0,-1.548230438E0,3.401005931E0
6.846682917E0,-8.044271851E-1,2.813698883E0,-1.262624359E0,3.187197009E0
6.856690917E0,3.167413330E-1,3.489393768E0,-1.222956848E0,3.711039934E0
6.866698917E0,1.269510040E0,3.939507751E0,-1.365759888E0,4.358517768E0
6.876706917E0,2.122286682E0,4.140390015E0,-1.744172974E0,4.968809676E0
6.886714917E0,2.766097870E0,4.165687408E0,-2.234253845E0,5.476873128E0
6.896722917E0,3.052302704E0,3.980372772E0,-2.688559113E0,5.691069258E0
6.906730917E0,3.021317139E0,3.665427704E0,-2.972219238E0,5.603374403E0
6.916738917E0,2.875969391E0,3.278182983E0,-3.067271576E0,5.331588744E0
6.926746917E0,2.638114014E0,2.860401764E0,-3.059787140E0,4.950135467E0
6.936754917E0,2.322270813E0,2.436632996E0,-2.802023163E0,4.379663901E0
6.946762917E0,1.960323486E0,2.061812439E0,-2.206711121E0,3.600487838E0
6.956770917E0,1.576820984E0,1.843715973E0,-1.658251648E0,2.938613879E0
6.966778917E0,1.146765289E0,1.716181183E0,-1.275198212E0,2.426206702E0
6.976786917E0,6.330335999E-1,1.666634216E0,-9.023236084E-1,1.998146402E0
6.986794917E0,1.064286804E-1,1.691781921E0,-5.857319641E-1,1.793470119E0
6.996802917E0,-4.953199768E-1,1.722917175E0,-3.752696228E-1,1.831560199E0
7.006809917E0,-1.139729919E0,1.771865387E0,-2.131567383E-1,2.117528520E0
7.016817917E0,-1.879341888E0,1.800006866E0,-1.830693054E-1,2.608728622E0
7.026825917E0,-2.876717834E0,1.588945770E0,-2.998265076E-1,3.300022742E0
7.036833917E0,-4.131708069E0,1.070274353E0,-4.652325439E-1,4.293359999E0
7.046841917E0,-5.900429993E0,1.315763855E-1,-9.448352051E-1,5.977047767E0
7.056849917E0,-8.177045746E0,-1.320553894E0,-1.432371368E0,8.405928114E0
7.066857917E0,-1.159129578E1,-3.248544617E0,-2.201621704E0,1.223757811E1
7.076866250E0,-1.631292709E1,-5.973178711E0,-2.767295380E0,1.759114487E1
7.086874250E0,-2.222712845E1,-9.307944031E0,-2.583926697E0,2.423550574E1
7.096882250E0,-2.885100403E1,-1.253433472E1,-1.115480347E0,3.147593170E1
7.106890250E0,-3.281326447E1,-1.353590195E1,1.625469818E0,3.553270491E1
7.116898250E0,-3.261896851E1,-1.077983322E1,3.656446381E0,3.454810430E1
7.126906250E0,-3.029984116E1,-7.196135559E0,4.586312714E0,3.147854834E1
7.136914250E0,-2.816602844E1,-4.751119995E0,5.182971954E0,2.903035476E1
7.146922250E0,-2.799253922E1,-3.609743500E0,4.497098236E0,2.858034976E1
7.156930250E0,-2.878828445E1,-3.834575958E0,3.305276642E0,2.923002135E1
7.166938250E0,-2.874517410E1,-4.761149139E0,1.720971222E0,2.918758841E1
7.176946250E0,-2.754946060E1,-5.535937958E0,-4.559518433E-1,2.810386594E1
7.186954250E0,-2.553869202E1,-5.675148468E0,-2.177072754E0,2.625208079E1
7.196962250E0,-2.286270676E1,-5.231321411E0,-3.543281708E0,2.371971604E1
7.206970250E0,-1.960293549E1,-4.166136475E0,-4.425547028E0,2.052357764E1
7.216978250E0,-1.624242371E1,-2.928210754E0,-4.548591156E0,1.711959192E1
7.226985250E0,-1.339684113E1,-1.855092316E0,-4.069287872E0,1.412359102E1
7.236993250E0,-1.125284958E1,-9.343569946E-1,-3.290008392E0,1.176111397E1
7.247001250E0,-9.413025513E0,-1.956431580E-1,-2.396666107E0,9.715314404E0
7.257009250E0,-7.667655029E0,3.124003601E-1,-1.713636475E0,7.863019624E0
7.267017250E0,-5.887257385E0,7.649093628E-1,-1.167272644E0,6.050405877E0
7.277025250E0,-4.152065735E0,1.243015137E0,-6.997947693E-1,4.390267556E0
7.287033250E0,-2.465522919E0,1.884730682E0,-3.135978699E-1,3.119191663E0
7.297041250E0,-7.583230591E-1,2.825374603E0,-8.352630615E-2,2.926563198E0
7.307049250E0,9.451345825E-1,3.729943542E0,-3.023712158E-2,3.847943931E0
7.317057250E0,2.369422760E0,4.390819244E0,-2.342628479E-1,4.994831022E0
7.327065250E0,3.270548859E0,4.727768555E0,-5.414241028E-1,5.774203443E0
7.337073250E0,3.693269806E0,4.609065399E0,-8.657995605E-1,5.969366348E0
7.347081250E0,3.678600311E0,4.144132233E0,-1.061143341E0,5.641981691E0
7.357089250E0,3.293301544E0,3.414998474E0,-1.117276611E0,4.874049309E0
7.367097250E0,2.778671722E0,2.489323425E0,-1.170266418E0,3.909894007E0
7.377105250E0,2.250569916E0,1.519939270E0,-1.176104279E0,2.959476576E0
7.387113250E0,1.761686554E0,7.078779602E-1,-1.056652679E0,2.172819736E0
7.397121250E0,1.473236389E0,1.695973206E-1,-9.708810425E-1,1.772511977E0
7.407129250E0,1.256337433E0,1.330732727E-1,-1.100661163E0,1.675573704E0
7.417137250E0,9.328601074E-1,4.966671753E-1,-1.224603424E0,1.617578378E0
7.427145250E0,4.998106384E-1,1.044078827E0,-1.312919769E0,1.750334137E0
7.437153250E0,-9.116043091E-2,1.702409821E0,-1.406624908E0,2.210226924E0
7.447161250E0,-8.916957092E-1,2.260149994E0,-1.423689423E0,2.816077202E0
7.457169250E0,-1.883233795E0,2.459086304E0,-1.344354401E0,3.376531316E0
7.467177250E0,-3.096909943E0,2.318378906E0,-1.208137665E0,4.052817361E0
7.477184250E0,-4.330195312E0,1.988764343E0,-1.218466187E0,4.918377263E0
7.487192250E0,-5.577102356E0,1.506766663E0,-1.466350708E0,5.960251745E0
7.497200250E0,-7.065606995E0,5.688171387E-1,-1.991907806E0,7.363019207E0
7.507208250E0,-9.208401031E0,-6.489006042E-1,-2.829865265E0,9.655250332E0
7.517216250E0,-1.199545532E1,-1.946701813E0,-3.625311127E0,1.268161966E1
7.527224250E0,-1.524774216E1,-3.630699921E0,-3.928430786E0,1.615884251E1
7.537232250E0,-1.886212601E1,-5.541775818E0,-3.800297241E0,2.002331980E1
7.547240250E0,-2.263503021E1,-7.236850891E0,-2.700384521E0,2.391670295E1
7.557248250E0,-2.557551544E1,-8.325387268E0,-2.260299683E-1,2.689740048E1
7.567256250E0,-2.665102890E1,-8.018974457E0,2.245630188E0,2.792175044E1
7.577264250E0,-2.588671829E1,-6.235882416E0,3.340154114E0,2.683589095E1
7.587272250E0,-2.436408463E1,-4.514911194E0,3.462150421E0,2.501958290E1
7.597280250E0,-2.354917923E1,-4.074676666E0,3.053051147E0,2.409331761E1
7.607288250E0,-2.378389114E1,-4.881648560E0,2.020348663E0,2.436361589E1
7.617296250E0,-2.431842957E1,-6.130202179E0,4.326004028E-1,2.508291328E1
7.627304250E0,-2.396531387E1,-6.877747650E0,-1.022523651E0,2.495366178E1
7.637312250E0,-2.304921890E1,-7.141798553E0,-2.577639771E0,2.426759167E1
7.647320250E0,-2.170725952E1,-6.666985931E0,-3.756737823E0,2.301666562E1
7.657328250E0,-1.994317795E1,-5.232668610E0,-4.387077026E0,2.107979156E1
7.667336250E0,-1.785561905E1,-3.433410187E0,-4.495002594E0,1.873009571E1
7.677344250E0,-1.591565323E1,-1.773362274E0,-4.061354370E0,1.652112075E1
7.687352250E0,-1.424213333E1,-6.771917725E-1,-3.218157806E0,1.461689058E1
7.697360250E0,-1.275347900E1,-9.041198730E-2,-2.457439728E0,1.298839525E1
7.707368250E0,-1.119462067E1,4.564009094E-1,-1.874551849E0,1.135965573E1
7.717376250E0,-9.513915710E0,1.059646454E0,-1.441801758E0,9.680714595E0
7.727384250E0,-7.795339508E0,1.685345306E0,-1.115480347E0,8.053074149E0
7.737391250E0,-6.060596924E0,2.336790619E0,-8.277786255E-1,6.548025880E0
7.747399250E0,-4.423002319E0,3.046315155E0,-6.129753113E-1,5.405434698E0
7.757407250E0,-2.966980133E0,3.750750275E0,-3.858975220E-1,4.797917843E0
7.767415250E0,-1.744921417E0,4.397405548E0,-2.302212524E-1,4.736552347E0
7.777423250E0,-7.590715027E-1,4.865033112E0,-1.185534668E-1,4.925321477E0
7.787431250E0,-1.282832336E-1,5.170697479E0,-1.243913269E-1,5.173784129E0
7.797439250E0,1.579216003E-1,5.496120758E0,-1.981878662E-1,5.501959746E0
7.807447250E0,4.149371338E-1,5.743406525E0,-3.209326172E-1,5.767312119E0
7.817455250E0,7.770341492E-1,5.740263062E0,-4.721182251E-1,5.811823957E0
7.827463250E0,1.090781708E0,5.554649048E0,-6.984475708E-1,5.703661963E0
7.837471250E0,1.289718018E0,5.422174530E0,-8.857081604E-1,5.643388002E0
7.847479250E0,1.273701324E0,5.271587677E0,-9.442364502E-1,5.504864592E0
7.857487250E0,1.050365753E0,4.974605255E0,-8.237370300E-1,5.150583302E0
7.867495250E0,6.566844177E-1,4.616549835E0,-5.637277222E-1,4.696973041E0
7.877503250E0,1.552272034E-1,4.237687683E0,-1.793270874E-1,4.244319803E0
7.887511250E0,-3.318598938E-1,3.878135376E0,2.152523804E-1,3.898255837E0
7.897519250E0,-7.833210754E-1,3.556604004E0,4.791535950E-1,3.673229113E0
7.907527250E0,-1.346749420E0,3.342698822E0,6.090834045E-1,3.654907934E0
7.917535250E0,-1.897903290E0,3.064876556E0,7.358697510E-1,3.679267521E0
7.927543250E0,-2.291434937E0,2.803669739E0,7.732919312E-1,3.702596181E0
7.937551250E0,-2.703677673E0,2.771187286E0,6.536906433E-1,3.926405913E0
7.947559250E0,-3.165018311E0,2.710263977E0,3.294648743E-1,4.179882634E0
7.957567250E0,-3.959266663E0,2.351759491E0,-8.217910767E-2,4.605791855E0
7.967575250E0,-5.383405151E0,1.618434448E0,-7.066804504E-1,5.665666629E0
7.977583250E0,-7.644004211E0,2.751278687E-1,-1.313967590E0,7.760992627E0
7.987591250E0,-1.128233826E1,-1.664538574E0,-1.773961029E0,1.154161093E1
7.997599250E0,-1.615440674E1,-4.286486206E0,-1.797611847E0,1.680982538E1
8.007607250E0,-2.151969955E1,-7.198829956E0,-9.488768005E-1,2.271169278E1
8.017614250E0,-2.624387558E1,-9.113049316E0,5.584886169E-1,2.778669795E1
8.027622250E0,-2.874472504E1,-8.906778259E0,2.293680267E0,3.018030625E1
8.037630250E0,-2.796709213E1,-6.288722534E0,3.160228271E0,2.883909354E1
8.047638250E0,-2.527643738E1,-3.771557007E0,3.248843994E0,2.576194706E1
8.057646250E0,-2.338092911E1,-3.151845703E0,3.442391510E0,2.384223221E1
8.067654250E0,-2.367776184E1,-4.459676056E0,3.364403687E0,2.432785088E1
8.077666292E0,-2.566502930E1,-6.941814423E0,2.678529968E0,2.672184573E1
8.087674292E0,-2.706910950E1,-9.542805634E0,1.022224274E0,2.872014573E1
8.097682292E0,-2.714200790E1,-1.097278198E1,-1.174308014E0,2.929965080E1
8.107690292E0,-2.616064865E1,-1.102217926E1,-2.927312622E0,2.853834495E1
8.117698292E0,-2.454655518E1,-9.890083466E0,-4.316723328E0,2.681382521E1
8.127706292E0,-2.251483017E1,-8.243058472E0,-4.909340973E0,2.447380680E1
8.137714292E0,-2.019555313E1,-6.828050995E0,-4.822222137E0,2.185718356E1
8.147722292E0,-1.814302139E1,-6.035149841E0,-4.070186005E0,1.954887907E1
8.157730292E0,-1.649913986E1,-5.810916138E0,-2.718796234E0,1.770254828E1
8.167738292E0,-1.481469269E1,-5.858217773E0,-1.255439301E0,1.598029921E1
8.177746292E0,-1.268222717E1,-5.985303497E0,-1.863624573E-1,1.402488770E1
8.187754292E0,-1.032747391E1,-5.864205322E0,5.721102905E-1,1.189003497E1
8.197762292E0,-7.993976440E0,-5.384902039E0,1.052311707E0,9.695782033E0
8.207770292E0,-5.934858398E0,-4.448599091E0,1.362616425E0,7.541173755E0
8.217778292E0,-4.051325226E0,-3.062930603E0,1.477876740E0,5.289508448E0
8.227786292E0,-2.180665283E0,-1.212628326E0,1.283131714E0,2.805743312E0
8.237794292E0,-5.373825073E-1,7.065307617E-1,7.176077271E-1,1.141458070E0
8.247802292E0,7.903564453E-1,2.618504791E0,-2.436932373E-1,2.746018399E0
8.257810292E0,1.657652893E0,3.978127441E0,-1.492995300E0,4.560958893E0
8.267818292E0,2.094444580E0,4.606820068E0,-2.769690399E0,5.768940470E0
8.277826292E0,2.135758667E0,4.717290344E0,-3.778292999E0,6.410131922E0
8.287834292E0,2.051034851E0,4.401746521E0,-4.406686249E0,6.557514780E0
8.297842292E0,2.100132751E0,3.808530121E0,-4.625381470E0,6.348985194E0
8.307849292E0,1.980531464E0,3.184028778E0,-4.311933289E0,5.714307729E0
8.317857292E0,1.481469269E0,2.502346344E0,-3.742367706E0,4.739388618E0
8.327865292E0,7.988887024E-1,1.848805389E0,-3.047362976E0,3.652769584E0
8.337873292E0,2.573149109E-1,1.603914642E0,-2.205064545E0,2.738806819E0
8.347881292E0,-2.046244812E-1,1.836680603E0,-1.416504364E0,2.328465467E0
8.357889292E0,-6.665638733E-1,2.162852325E0,-8.342152405E-1,2.412084710E0
8.367897292E0,-1.081800385E0,2.415377197E0,-3.915856934E-1,2.675383792E0
8.377905292E0,-1.306034088E0,2.748135223E0,-6.735992432E-2,3.043437137E0
8.387913292E0,-1.425335999E0,2.921325073E0,2.814147949E-2,3.250617608E0
8.397921292E0,-1.581611023E0,2.805765381E0,-9.864486694E-2,3.222350634E0
8.407929292E0,-1.837728424E0,2.509830780E0,-2.841091919E-1,3.123654004E0
8.417937292E0,-2.096689911E0,2.132465515E0,-4.194277954E-1,3.019840630E0
8.427945292E0,-2.546504517E0,1.675465851E0,-4.990621948E-1,3.088840259E0
8.437953292E0,-3.314707031E0,1.293011169E0,-6.012995911E-1,3.608423726E0
8.447961292E0,-4.617747345E0,8.337661743E-1,-8.228388977E-1,4.764013059E0
8.457969292E0,-6.893315277E0,-1.353186035E-1,-1.378184052E0,7.031038182E0
8.467977292E0,-1.043060944E1,-1.779798889E0,-2.177372131E0,1.080306654E1
8.477985292E0,-1.517199966E1,-4.119433594E0,-2.652633820E0,1.594351822E1
8.487993292E0,-2.058025314E1,-7.259603577E0,-2.382595367E0,2.195279992E1
8.498001292E0,-2.577115860E1,-1.012165192E1,-1.211730194E0,2.771405317E1
8.508009292E0,-2.955049942E1,-1.107786346E1,4.830455017E-1,3.156238913E1
8.518017292E0,-3.064996307E1,-9.590406647E0,2.049987030E0,3.218071756E1
8.528025292E0,-3.008324158E1,-6.703809357E0,2.513273621E0,3.092343817E1
8.538033292E0,-2.891462173E1,-4.474794617E0,2.264490967E0,2.934632952E1
8.548041292E0,-2.736998383E1,-3.325783997E0,1.415905609E0,2.760763739E1
8.558049292E0,-2.642035858E1,-3.373834076E0,-3.055146790E-1,2.663665601E1
8.568057292E0,-2.596994522E1,-4.545298004E0,-2.035317535E0,2.644315235E1
8.578065292E0,-2.547327805E1,-5.920937347E0,-3.112178192E0,2.633687617E1
8.588073292E0,-2.435540268E1,-6.967560883E0,-3.967649231E0,2.564127112E1
8.598081292E0,-2.227368164E1,-6.926246796E0,-4.444108429E0,2.374531297E1
8.608089292E0,-1.958751755E1,-5.928571472E0,-4.552782440E0,2.096536743E1
8.618097292E0,-1.671334442E1,-4.527934113E0,-4.232298889E0,1.782555533E1
8.628104292E0,-1.403705978E1,-3.144960022E0,-3.441343689E0,1.479096573E1
8.638112292E0,-1.171523804E1,-1.965412903E0,-2.351011047E0,1.210937253E1
8.648120292E0,-9.688452759E0,-1.108444977E0,-1.322649536E0,9.840943498E0
8.658128292E0,-7.763755188E0,-5.399272156E-1,-5.998027039E-1,7.805586416E0
8.668136292E0,-5.894143066E0,-1.071771240E-1,-1.139131165E-1,5.896217908E0
8.678144292E0,-4.041894836E0,1.633103943E-1,1.297801208E-1,4.047274025E0
8.688152292E0,-2.263592834E0,4.974156189E-1,7.065307617E-2,2.318677786E0
8.698160292E0,-6.230044556E-1,1.044677582E0,-1.356179810E-1,1.223878278E0
8.708168292E0,7.358697510E-1,1.648521881E0,-2.924917603E-1,1.828846662E0
8.718176292E0,1.676663361E0,2.193987579E0,-5.541476440E-1,2.816356003E0
8.728184292E0,2.309846649E0,2.694846039E0,-9.086105347E-1,3.663763068E0
8.738192292E0,2.632126465E0,3.088078308E0,-1.239123230E0,4.242610487E0
8.748200292E0,2.512375488E0,3.300636292E0,-1.473685455E0,4.402042633E0
8.758208292E0,2.236798553E0,3.398981781E0,-1.509910126E0,4.340066071E0
8.768216292E0,1.864373016E0,3.368445282E0,-1.447789307E0,4.113198784E0
8.778224292E0,1.426533508E0,3.157384186E0,-1.296454010E0,3.699306117E0
8.788232292E0,1.020727386E0,2.934797058E0,-1.128503265E0,3.305818778E0
8.798240292E0,7.587721252E-1,2.728975067E0,-1.090931396E0,3.035320637E0
8.808248292E0,6.023474121E-1,2.513872375E0,-1.126557312E0,2.819841858E0
8.818256292E0,4.451742554E-1,2.331850891E0,-1.211430817E0,2.665196676E0
8.828264292E0,2.055226135E-1,2.326013031E0,-1.260528717E0,2.653584144E0
8.838272292E0,-3.427871704E-2,2.341131592E0,-1.132544861E0,2.600909461E0
8.848280292E0,-3.236270142E-1,2.260748749E0,-9.135502625E-1,2.459734423E0
8.858288292E0,-7.616162109E-1,2.267185364E0,-6.276448059E-1,2.472676026E0
8.868296292E0,-1.376687164E0,2.312391357E0,-3.671864319E-1,2.716108837E0
8.878304292E0,-2.091301117E0,2.330503693E0,-2.300715637E-1,3.139700742E0
8.888312292E0,-2.796334991E0,2.302811279E0,3.008743286E-2,3.622614308E0
8.898320292E0,-3.500620422E0,1.920655975E0,1.037342834E-1,3.994248805E0
8.908328292E0,-4.687202911E0,1.001118164E0,-3.613485718E-1,4.806524888E0
8.918336292E0,-6.792724457E0,-5.513035583E-1,-1.238075409E0,6.926606086E0
8.928344292E0,-1.004950195E1,-2.556683350E0,-2.326312408E0,1.062736320E1
8.938352292E0,-1.447504898E1,-4.952002258E0,-3.263812866E0,1.564294869E1
8.948360292E0,-2.046918411E1,-7.768395538E0,-3.756438446E0,2.221365115E1
8.958368292E0,-2.773252991E1,-1.063253952E1,-3.025358734E0,2.985459608E1
8.968376292E0,-3.314332809E1,-1.187121368E1,-4.584965515E-1,3.520818272E1
8.978383292E0,-3.438409790E1,-9.993218994E0,2.634820862E0,3.590366131E1
8.988391292E0,-3.197830078E1,-6.519692230E0,4.182901611E0,3.290311191E1
8.998399292E0,-2.835942627E1,-4.509821777E0,5.009632416E0,2.914947629E1
9.008407292E0,-2.627575928E1,-4.191882935E0,5.037923584E0,2.708076960E1
9.018415292E0,-2.643053741E1,-5.022355957E0,4.086801453E0,2.721211703E1
9.028423292E0,-2.711596207E1,-6.806795197E0,2.528242493E0,2.807133538E1
9.038431292E0,-2.701896378E1,-8.795709229E0,1.972897339E-1,2.841527455E1
9.048439292E0,-2.613445312E1,-9.489965515E0,-2.000889130E0,2.787602272E1
9.058447292E0,-2.448937408E1,-8.561446381E0,-3.600762177E0,2.619147372E1
9.068455292E0,-2.217473740E1,-6.764882355E0,-4.770579529E0,2.366941150E1
9.078459500E0,-1.899235519E1,-4.887187042E0,-5.015919342E0,2.024237140E1
9.088467500E0,-1.535342239E1,-3.244503021E0,-4.543501740E0,1.633700668E1
9.098475500E0,-1.205338486E1,-1.886976013E0,-3.791315918E0,1.277571295E1
9.108483500E0,-9.085506592E0,-1.065484314E0,-2.910697174E0,9.599679416E0
9.118491500E0,-6.485413513E0,-7.843688965E-1,-1.961071930E0,6.820676368E0
9.128499500E0,-4.363725586E0,-8.458909607E-1,-1.196312256E0,4.603128884E0
9.138507500E0,-2.642155609E0,-1.021326141E0,-7.108717346E-1,2.920519127E0
9.148515500E0,-1.300196228E0,-1.205592957E0,-6.053411865E-1,1.873606832E0
9.158523500E0,-1.248403931E-1,-1.152154083E0,-7.238946533E-1,1.366406830E0
9.168531500E0,9.638456726E-1,-6.921606445E-1,-9.840536499E-1,1.541572711E0
9.178539500E0,1.885628815E0,5.658233643E-2,-1.292711792E0,2.286897760E0
9.188547500E0,2.509381714E0,9.418414307E-1,-1.714983673E0,3.182016792E0
9.198555500E0,2.774480438E0,1.631307678E0,-2.126178589E0,3.857400917E0
9.208563500E0,2.622546387E0,1.957030334E0,-2.424957275E0,4.072853431E0
9.218571500E0,2.260149994E0,2.182910614E0,-2.509531403E0,4.021333685E0
9.228579500E0,1.923799438E0,2.487976227E0,-2.410138092E0,3.962296759E0
9.238587500E0,1.730401611E0,2.633623352E0,-2.441872101E0,3.986602696E0
9.248595500E0,1.705403595E0,2.472109222E0,-2.329455872E0,3.800801243E0
9.258603500E0,1.521735535E0,2.034120026E0,-2.105371857E0,3.299380847E0
9.268611500E0,1.316811676E0,1.571282501E0,-1.835782471E0,2.751911875E0
9.278619500E0,1.161434784E0,1.334774323E0,-1.613794098E0,2.394761917E0
9.288627500E0,9.925859070E-1,1.371298370E0,-1.382225647E0,2.185459618E0
9.298635500E0,7.153623962E-1,1.491348724E0,-1.215173035E0,2.052439982E0
9.308643500E0,3.122506714E-1,1.672322388E0,-1.100062408E0,2.025907193E0
9.318651500E0,-1.296304321E-1,1.823208618E0,-1.035845947E0,2.100921355E0
9.328659500E0,-6.282435608E-1,2.058519287E0,-1.055904236E0,2.397316288E0
9.338667500E0,-1.134341125E0,2.382445679E0,-1.066083069E0,2.845928726E0
9.348675500E0,-1.429078217E0,2.552192688E0,-8.187973022E-1,3.037495858E0
9.358683500E0,-1.919458466E0,2.519410858E0,-5.560935974E-1,3.215741277E0
9.368691500E0,-3.128194885E0,1.889071655E0,-5.471122742E-1,3.695067902E0
9.378698500E0,-4.726421356E0,4.755610657E-1,-5.372328186E-1,4.780568613E0
9.388706500E0,-7.443421326E0,-1.363514557E0,-1.148561554E0,7.653945820E0
9.398714500E0,-1.243389359E1,-3.768712921E0,-2.090702362E0,1.315963309E1
9.408722500E0,-1.865780090E1,-7.068900146E0,-2.795137482E0,2.014685279E1
9.418730500E0,-2.575933319E1,-1.032642609E1,-3.127446442E0,2.792775042E1
9.428738500E0,-3.233441025E1,-1.216894455E1,-2.149979095E0,3.461531031E1
9.438746500E0,-3.525813034E1,-1.102367615E1,3.049159241E-1,3.694252515E1
9.448754500E0,-3.486923904E1,-8.151748352E0,2.938389587E0,3.592977826E1
9.458762500E0,-3.322161530E1,-5.809419250E0,5.425617371E0,3.415936766E1
9.468770500E0,-3.134047714E1,-4.643493805E0,6.734794922E0,3.239050794E1
9.478778500E0,-3.007096710E1,-4.467908936E0,5.649102631E0,3.092147528E1
9.488786500E0,-2.886612259E1,-5.556744690E0,3.691772919E0,2.962700849E1
9.498794500E0,-2.802367447E1,-7.525600433E0,1.256487122E0,2.904375583E1
9.508802500E0,-2.673650116E1,-9.104367371E0,-1.321751404E0,2.827502478E1
9.518810500E0,-2.428100739E1,-9.254056091E0,-3.506009216E0,2.622016351E1
9.528818500E0,-2.075164673E1,-7.979606323E0,-5.157524872E0,2.282334379E1
9.538826500E0,-1.645288605E1,-5.823040924E0,-6.271508331E0,1.854554075E1
9.548834500E0,-1.206191711E1,-3.747457123E0,-6.593339081E0,1.424799634E1
9.558842500E0,-8.362659760E0,-2.303410034E0,-6.025270386E0,1.056142316E1
9.568850500E0,-5.599106598E0,-1.571881256E0,-4.851561127E0,7.573536211E0
9.578858500E0,-3.626059570E0,-1.271006927E0,-3.535647583E0,5.221548664E0
9.588866500E0,-2.260299683E0,-1.169967041E0,-2.307751007E0,3.435621085E0
9.598874500E0,-1.151705017E0,-9.852511597E-1,-1.504671021E0,2.135691732E0
9.608882500E0,-9.145980835E-2,-4.634362793E-1,-1.167422333E0,1.259370075E0
9.618890500E0,9.503736877E-1,2.911445618E-1,-1.181044006E0,1.543645117E0
9.628898500E0,1.770518188E0,9.388476562E-1,-1.559008026E0,2.539030445E0
9.638906500E0,2.346221008E0,1.290017395E0,-1.987716522E0,3.334653636E0
9.648914500E0,2.657124481E0,1.664837952E0,-2.454445953E0,3.981997093E0
9.658922500E0,2.825673981E0,2.082619171E0,-2.897524567E0,4.551635384E0
9.668930500E0,2.839894409E0,2.407294006E0,-3.130589905E0,4.864222224E0
9.678938500E0,2.522853699E0,2.563868408E0,-3.193908234E0,4.810328659E0
9.688946500E0,1.979932709E0,2.505489807E0,-3.039878540E0,4.408908509E0
9.698954500E0,1.520987091E0,2.398162994E0,-2.503094788E0,3.785508023E0
9.708962500E0,1.231638794E0,2.445913696E0,-2.005679169E0,3.394433216E0
9.718970500E0,8.029302979E-1,2.570754089E0,-1.739832001E0,3.206320171E0
9.728978500E0,3.662882996E-1,2.692600708E0,-1.478774872E0,3.093709879E0
9.738986500E0,-1.556762695E-2,2.813698883E0,-1.301842804E0,3.100312636E0
9.748994500E0,-3.623963928E-1,2.869383087E0,-1.254541168E0,3.152548808E0
9.759002500E0,-7.423063660E-1,2.855462036E0,-1.226100311E0,3.194996738E0
9.769010500E0,-1.291663971E0,2.709515533E0,-1.115480347E0,3.202212773E0
9.779018500E0,-2.011067963E0,2.365231476E0,-1.063987427E0,3.281887190E0
9.789026500E0,-2.753524017E0,1.965412903E0,-1.090182953E0,3.554327118E0
9.799033500E0,-3.528312836E0,1.422192535E0,-1.098415833E0,3.959563160E0
9.809041500E0,-5.012626190E0,5.634283447E-1,-1.409319305E0,5.237370879E0
9.819049500E0,-7.187303925E0,-8.066725159E-1,-1.680854645E0,7.425182192E0
9.829057500E0,-1.013018417E1,-2.550396423E0,-2.171833649E0,1.066967735E1
9.839065500E0,-1.487606506E1,-4.753515015E0,-2.744692383E0,1.585643570E1
9.849073500E0,-2.122122025E1,-7.502248993E0,-2.655178528E0,2.266437517E1
9.859081500E0,-2.786769882E1,-1.002225861E1,-1.671124878E0,2.966221441E1
9.869089500E0,-3.214924530E1,-1.087338867E1,6.090834045E-1,3.394371131E1
9.879097500E0,-3.240835648E1,-8.574020233E0,2.584525452E0,3.362283695E1
9.889105500E0,-3.005734543E1,-4.832850037E0,3.338806915E0,3.062593811E1
9.899113500E0,-2.787877579E1,-2.637964325E0,3.829785919E0,2.826397451E1
9.909121500E0,-2.686747879E1,-2.618953857E0,4.234693909E0,2.732495139E1
9.919129500E0,-2.706132568E1,-3.918251953E0,3.863316193E0,2.761509113E1
9.929137500E0,-2.705369156E1,-5.825735321E0,2.422113190E0,2.777963375E1
9.939145500E0,-2.590078903E1,-7.796537018E0,9.879455566E-3,2.704878850E1
9.949153500E0,-2.399914352E1,-8.923244019E0,-2.385289764E0,2.571522469E1
9.959161500E0,-2.152733368E1,-8.850644989E0,-4.136049042E0,2.364036619E1
9.969169500E0,-1.871513168E1,-7.751929779E0,-5.245691528E0,2.092524430E1
9.979177500E0,-1.587463852E1,-5.990243225E0,-5.523663483E0,1.784371094E1
9.989185500E0,-1.322844131E1,-4.147874451E0,-5.061125336E0,1.475843866E1
9.999193500E0,-1.100032471E1,-2.548749847E0,-4.230053558E0,1.205805219E1
1.000920150E1,-9.071286163E0,-1.267863464E0,-3.230282593E0,9.712385703E0
1.001920950E1,-7.232958984E0,-3.305126953E-1,-2.281256104E0,7.591380884E0
1.002921750E1,-5.482050018E0,3.568579102E-1,-1.608105927E0,5.724178949E0
1.003922550E1,-3.907474365E0,9.705816650E-1,-1.318757629E0,4.236685776E0
1.004923350E1,-2.586022339E0,1.631008301E0,-1.270707550E0,3.310951116E0
1.005924150E1,-1.520987091E0,2.263443146E0,-1.398392029E0,3.064649551E0
1.006924950E1,-6.924600220E-1,2.804418182E0,-1.656455383E0,3.329880878E0
1.007925742E1,-1.044827271E-1,3.250191193E0,-2.013762360E0,3.824905001E0
1.008926542E1,3.763174438E-1,3.599265289E0,-2.443818054E0,4.366757621E0
1.009927342E1,9.738748169E-1,3.857478333E0,-2.848726044E0,4.893241392E0
1.010928142E1,1.535057831E0,4.030069427E0,-3.193010101E0,5.365927286E0
1.011928942E1,1.934577026E0,4.051325226E0,-3.300187225E0,5.571988880E0
1.012929742E1,2.149380341E0,3.905678101E0,-3.100053406E0,5.429962099E0
1.013930542E1,2.115850067E0,3.667074280E0,-2.697241058E0,5.019896872E0
1.014931342E1,1.818119202E0,3.598816223E0,-2.294728088E0,4.639268546E0
1.015932142E1,1.398392029E0,3.711980896E0,-1.719923401E0,4.323475332E0
1.016932942E1,1.040785675E0,3.678300934E0,-1.169368286E0,3.997568607E0
1.017933742E1,7.851173401E-1,3.531755676E0,-7.978408813E-1,3.704896418E0
1.018934542E1,5.760021973E-1,3.271596680E0,-6.141728210E-1,3.378214265E0
1.019935342E1,3.585044861E-1,2.922372894E0,-5.334906006E-1,2.992223424E0
1.020936142E1,6.915618896E-2,2.546803894E0,-5.480104065E-1,2.606013826E0
1.021936942E1,-3.034190369E-1,2.174378357E0,-5.547463989E-1,2.264448701E0
1.022937742E1,-6.593788147E-1,1.873204651E0,-5.415737915E-1,2.058392153E0
1.023938542E1,-1.088985443E0,1.797013092E0,-4.758604431E-1,2.154434615E0
1.024939342E1,-1.639989624E0,1.835034027E0,-3.968247986E-1,2.492866978E0
1.025940142E1,-2.449655914E0,1.585353241E0,-4.547543335E-1,2.953127241E0
1.026940942E1,-3.953279114E0,8.677455139E-1,-6.012995911E-1,4.091816128E0
1.027941742E1,-6.253845062E0,-6.692582703E-1,-9.280700684E-1,6.357656702E0
1.028942542E1,-9.587562561E0,-2.969075775E0,-1.422491913E0,1.013707305E1
1.029943342E1,-1.420411240E1,-5.866151276E0,-1.558858337E0,1.544663650E1
1.030944142E1,-2.035841446E1,-9.429640961E0,-1.340163116E0,2.247619196E1
1.031944942E1,-2.784853867E1,-1.330029190E1,-3.993695068E-1,3.086419230E1
1.032945642E1,-3.362876862E1,-1.527947617E1,1.589544525E0,3.697138248E1
1.033946442E1,-3.482493118E1,-1.234123627E1,2.967279510E0,3.706597756E1
1.034947242E1,-3.257406189E1,-7.290140076E0,2.892435150E0,3.350495234E1
1.035948042E1,-2.979643799E1,-3.861968994E0,2.467768250E0,3.014684729E1
1.036948842E1,-2.779734512E1,-1.931433563E0,2.747686157E0,2.799951090E1
1.037949642E1,-2.736713974E1,-1.921703796E0,2.975213013E0,2.759538323E1
1.038950442E1,-2.786380692E1,-3.409759369E0,2.887944489E0,2.821982314E1
1.039951242E1,-2.779300415E1,-5.683381348E0,1.817071381E0,2.842628452E1
1.040952042E1,-2.643697403E1,-7.256160736E0,-2.088157654E-1,2.741548957E1
1.041952842E1,-2.393552582E1,-7.209308167E0,-2.066003723E0,2.508290039E1
1.042953642E1,-2.072350525E1,-6.311774597E0,-3.710633698E0,2.197887556E1
1.043954442E1,-1.711540833E1,-4.841082916E0,-4.779411163E0,1.841781901E1
1.044955242E1,-1.353844666E1,-3.017125854E0,-5.071453857E0,1.476862318E1
1.045956042E1,-1.043689636E1,-1.187630310E0,-4.784500580E0,1.154256112E1
1.046956842E1,-7.911797333E0,3.140469360E-1,-4.118236084E0,8.924966720E0
1.047957642E1,-5.994284821E0,1.274300079E0,-3.282074890E0,6.951784432E0
1.048958442E1,-4.563859406E0,1.580263824E0,-2.520458679E0,5.447821434E0
1.049959242E1,-3.316652985E0,1.608554993E0,-1.864073639E0,4.130666619E0
1.050960042E1,-2.149230652E0,1.611997833E0,-1.448537750E0,3.052210842E0
1.051960842E1,-1.096769257E0,1.748963013E0,-1.225202179E0,2.400603008E0
1.052961642E1,-1.880090332E-1,1.988315277E0,-1.205892334E0,2.333006935E0
1.053962442E1,6.017486572E-1,2.050585785E0,-1.490899658E0,2.605721646E0
1.054963242E1,1.145418091E0,2.022444305E0,-1.837728424E0,2.963023681E0
1.055964042E1,1.419647827E0,1.890269165E0,-2.141297150E0,3.189619249E0
1.056964842E1,1.513502655E0,1.820364532E0,-2.430795135E0,3.393108060E0
1.057965642E1,1.563947754E0,1.856888580E0,-2.650388489E0,3.594235234E0
1.058966442E1,1.632205811E0,1.883982239E0,-2.782114563E0,3.735457981E0
1.059967242E1,1.553170166E0,1.882934418E0,-2.725831604E0,3.658953063E0
1.060968042E1,1.263522491E0,1.792672119E0,-2.481090546E0,3.311491010E0
1.061968842E1,8.304730225E-1,1.622326355E0,-2.074086914E0,2.761062254E0
1.062969642E1,4.378395081E-1,1.555265808E0,-1.580862579E0,2.260460498E0
1.063970442E1,1.501377869E-1,1.678459625E0,-1.157692566E0,2.044509757E0
1.064971242E1,-1.231938171E-1,1.851200409E0,-9.045689392E-1,2.064065076E0
1.065972042E1,-5.019062805E-1,2.021396484E0,-7.872129822E-1,2.226579875E0
1.066972842E1,-9.675878906E-1,2.116897888E0,-7.732919312E-1,2.452644166E0
1.067973642E1,-1.418899384E0,2.119292908E0,-7.538323975E-1,2.659500173E0
1.068974442E1,-1.908680878E0,1.876647491E0,-7.038363647E-1,2.767716410E0
1.069975242E1,-2.486179962E0,1.352437592E0,-7.267387390E-1,2.922041656E0
1.070976042E1,-3.284320221E0,6.487509155E-1,-9.083111572E-1,3.468813374E0
1.071976842E1,-4.263583832E0,-4.819976807E-2,-1.147962799E0,4.415686685E0
1.072977642E1,-5.642965393E0,-8.897497559E-1,-1.380429382E0,5.877099483E0
1.073978442E1,-7.615263977E0,-2.100731506E0,-1.563348999E0,8.052911175E0
1.074979242E1,-1.002809647E1,-3.469335480E0,-1.402134247E0,1.070350353E1
1.075980042E1,-1.293145889E1,-4.787943420E0,-1.220112762E0,1.384325491E1
1.076980842E1,-1.603330856E1,-6.148913269E0,-9.913883972E-1,1.720055141E1
1.077981642E1,-1.916240158E1,-7.364535370E0,-7.351213074E-1,2.054201594E1
1.078982442E1,-2.243250137E1,-8.100255432E0,-3.456312561E-1,2.385268783E1
1.079983242E1,-2.599509293E1,-8.466543732E0,4.595443726E-1,2.734297716E1
1.080984042E1,-2.919214462E1,-8.519533539E0,1.664987640E0,3.045547477E1
1.081984842E1,-3.059098572E1,-7.880811768E0,2.766696625E0,3.171072707E1
1.082985642E1,-3.042303497E1,-6.563551025E0,3.156486053E0,3.128265755E1
1.083986442E1,-2.967938141E1,-5.315446472E0,2.918480988E0,3.029252686E1
1.084987242E1,-2.844355133E1,-4.515060883E0,2.261497192E0,2.888833253E1
1.085988042E1,-2.689576996E1,-4.296964417E0,1.239422607E0,2.726504196E1
1.086988842E1,-2.482991592E1,-4.414170685E0,1.901046753E-2,2.521923847E1
1.087989642E1,-2.228520767E1,-4.357588348E0,-9.816586304E-1,2.272845597E1
1.088990442E1,-1.946986221E1,-3.929478607E0,-1.779798889E0,1.994201647E1
1.089991242E1,-1.656096130E1,-3.326831818E0,-2.276016998E0,1.704445665E1
1.090992042E1,-1.382375336E1,-2.640509033E0,-2.441123657E0,1.428382055E1
1.091992842E1,-1.140508301E1,-1.923050995E0,-2.369871826E0,1.180636845E1
1.092993642E1,-9.256002045E0,-1.236877899E0,-2.041903839E0,9.558912704E0
1.093994442E1,-7.453300781E0,-6.649172974E-1,-1.659149780E0,7.664632120E0
1.094995242E1,-6.023773499E0,-2.990780640E-1,-1.409169617E0,6.193630103E0
1.095996042E1,-4.750670929E0,-3.547622681E-2,-1.262025604E0,4.915571326E0
1.096996842E1,-3.442241821E0,2.659968567E-1,-1.222807159E0,3.662654834E0
1.097997642E1,-2.162702637E0,6.845265198E-1,-1.439257050E0,2.686507046E0
1.098998442E1,-1.098565521E0,1.151255951E0,-1.828298035E0,2.423821399E0
1.099999142E1,-3.721261597E-1,1.559008026E0,-2.295326843E0,2.799555183E0
1.100999942E1,7.140151978E-2,1.887425079E0,-2.706372070E0,3.300291107E0
1.102000742E1,3.291654968E-1,2.150128784E0,-2.841840363E0,3.578751229E0
1.103001542E1,3.670367432E-1,2.351759491E0,-2.795586548E0,3.671619918E0
1.104002342E1,1.764830017E-1,2.522254944E0,-2.591261444E0,3.620435350E0
1.105003142E1,-6.511459351E-2,2.577041016E0,-2.192939758E0,3.384429803E0
1.106003942E1,-3.908372498E-1,2.522254944E0,-1.761387177E0,3.101130204E0
1.107004742E1,-7.990383911E-1,2.365081787E0,-1.350341949E0,2.838220850E0
1.108005562E1,-1.178798676E0,2.151625671E0,-1.017284546E0,2.655923040E0
1.109006363E1,-1.429826660E0,2.053729248E0,-8.095166016E-1,2.630118862E0
1.110007162E1,-1.735041962E0,2.017354889E0,-6.831793213E-1,2.747148584E0
1.111007962E1,-2.152074738E0,1.940115509E0,-6.161187744E-1,2.962275512E0
1.112008763E1,-2.642754364E0,1.757944336E0,-5.824388123E-1,3.227034844E0
1.113009562E1,-3.148851929E0,1.596430206E0,-5.794450378E-1,3.577654878E0
1.114010362E1,-3.621119843E0,1.437909851E0,-6.164181519E-1,3.944624823E0
1.115011163E1,-4.155658264E0,1.066681824E0,-7.617658997E-1,4.357475531E0
1.116011962E1,-4.824467468E0,5.355862427E-1,-8.000862122E-1,4.919601297E0
1.117012762E1,-5.740263062E0,-3.487747192E-2,-7.451504517E-1,5.788530526E0
1.118013562E1,-6.893165588E0,-6.108796692E-1,-6.849755859E-1,6.953998659E0
1.119014362E1,-8.041278076E0,-1.076411591E0,-7.214996338E-1,8.145021592E0
1.120015162E1,-9.308842163E0,-1.386267242E0,-7.701484680E-1,9.442955467E0
1.121015962E1,-1.066232758E1,-1.680255890E0,-6.538403320E-1,1.081369485E1
1.122016762E1,-1.206835373E1,-2.143991547E0,-4.131408691E-1,1.226427930E1
1.123017562E1,-1.347228424E1,-2.749033356E0,-2.305206299E-1,1.375182776E1
1.124018362E1,-1.480526230E1,-3.632795563E0,1.751358032E-1,1.524544745E1
1.125019162E1,-1.618524261E1,-4.743336182E0,7.957452393E-1,1.688474244E1
1.126019963E1,-1.768153107E1,-5.822891235E0,1.356030121E0,1.866497846E1
1.127020762E1,-1.886766449E1,-6.689439240E0,1.783990173E0,2.009776061E1
1.128021562E1,-1.995545242E1,-7.203769684E0,1.711091766E0,2.128478833E1
1.129022363E1,-2.095387619E1,-7.497758331E0,9.647438049E-1,2.227581734E1
1.130023162E1,-2.180964661E1,-7.427404633E0,-8.173004150E-2,2.303982866E1
1.131023962E1,-2.219359818E1,-7.014712830E0,-1.079704742E0,2.330081025E1
1.132024763E1,-2.225751526E1,-6.471492462E0,-1.931283875E0,2.325955841E1
1.133025562E1,-2.205812988E1,-5.945037231E0,-2.564916229E0,2.298876588E1
1.134026362E1,-2.130205215E1,-5.474116516E0,-2.839595032E0,2.217671476E1
1.135027163E1,-2.014810181E1,-5.039121094E0,-2.716401215E0,2.094558625E1
1.136027962E1,-1.866528534E1,-4.736749878E0,-2.249073029E0,1.938783138E1
1.137028762E1,-1.713651443E1,-4.457131348E0,-1.687440948E0,1.778689416E1
1.138029563E1,-1.569486237E1,-4.191284180E0,-1.166524200E0,1.628669231E1
1.139030362E1,-1.427416672E1,-3.949985962E0,-8.445437622E-1,1.483467151E1
1.140031162E1,-1.285751266E1,-3.653602295E0,-7.586224365E-1,1.338805250E1
1.141031962E1,-1.149459686E1,-3.322790222E0,-8.345146179E-1,1.199429475E1
1.142032762E1,-1.017553986E1,-2.925815735E0,-9.851014709E-1,1.063355227E1
1.143033562E1,-8.872200165E0,-2.337389374E0,-1.187779999E0,9.251494267E0
1.144034362E1,-7.635172577E0,-1.710942078E0,-1.401385803E0,7.949029201E0
1.145035162E1,-6.544540558E0,-1.135089569E0,-1.737886047E0,6.865834790E0
1.146035962E1,-5.606141968E0,-5.529501343E-1,-2.126777344E0,6.021441977E0
1.147036762E1,-4.810097351E0,2.439926147E-2,-2.334096222E0,5.346553752E0
1.148037562E1,-4.126618652E0,5.581892395E-1,-2.373763733E0,4.793256825E0
1.149038363E1,-3.527714081E0,1.016236725E0,-2.207908630E0,4.283965947E0
1.150039162E1,-3.081641693E0,1.398392029E0,-1.886676636E0,3.874476032E0
1.151039962E1,-2.728975067E0,1.637594604E0,-1.459614716E0,3.501356326E0
1.152040763E1,-2.418670349E0,1.727108459E0,-1.103505249E0,3.170267138E0
1.153041562E1,-2.198777618E0,1.757345581E0,-8.518785095E-1,2.940847412E0
1.154042362E1,-2.010169830E0,1.794169006E0,-6.999444580E-1,2.783836815E0
1.155043163E1,-1.869612122E0,1.815125427E0,-7.605683899E-1,2.714515441E0
1.156043962E1,-1.854194183E0,1.763033752E0,-1.010847931E0,2.751024831E0
1.157044762E1,-1.951791229E0,1.751956787E0,-1.373543701E0,2.960652611E0
1.158045563E1,-2.083666992E0,1.875300293E0,-1.690734100E0,3.273683113E0
1.159046362E1,-2.163301392E0,2.041155396E0,-1.849703522E0,3.502512152E0
1.160047162E1,-2.309846649E0,2.100282440E0,-1.850901031E0,3.629381834E0
1.161047963E1,-2.548600159E0,2.049687653E0,-1.560205536E0,3.623647825E0
1.162048762E1,-2.835703125E0,1.914967804E0,-1.292113037E0,3.657577067E0
1.163049562E1,-3.206332397E0,1.891017609E0,-1.089284821E0,3.878537928E0
1.164050362E1,-3.635639648E0,1.881886597E0,-8.457412720E-1,4.180269263E0
1.165051162E1,-4.085603943E0,1.628613281E0,-6.361770630E-1,4.444014182E0
1.166051962E1,-4.747976532E0,1.151106262E0,-5.017565918E-1,4.911220465E0
1.167052762E1,-5.596262512E0,6.018983459E-1,-4.619393921E-1,5.647461706E0
1.168053562E1,-6.544690247E0,1.086740112E-1,-5.525010681E-1,6.568868844E0
1.169054362E1,-7.645351410E0,-4.249662781E-1,-7.952961731E-1,7.698343362E0
1.170055162E1,-9.169481964E0,-1.285676422E0,-1.018631744E0,9.315040203E0
1.171055962E1,-1.112696136E1,-2.311343536E0,-1.052311707E0,1.141310379E1
1.172056763E1,-1.325059525E1,-3.321293335E0,-9.657916260E-1,1.369459810E1
1.173057562E1,-1.566627182E1,-4.046235809E0,-7.470964050E-1,1.619760013E1
1.174058362E1,-1.825109665E1,-4.754413147E0,-2.974314880E-1,1.886254062E1
1.175059163E1,-2.064461929E1,-5.530249786E0,2.609074402E-1,2.137409743E1
1.176059962E1,-2.268996597E1,-6.052064667E0,8.810678101E-1,2.349975155E1
1.177060762E1,-2.433968536E1,-6.408024445E0,1.564845886E0,2.521768831E1
1.178061563E1,-2.477078888E1,-6.478228455E0,2.131717072E0,2.569248223E1
1.179062362E1,-2.403402100E1,-6.065536652E0,2.115999756E0,2.487774819E1
1.180063162E1,-2.288830353E1,-5.501509552E0,1.601070557E0,2.359458566E1
1.181063963E1,-2.187311462E1,-5.447621613E0,5.533992004E-1,2.254808141E1
1.182064762E1,-2.082738922E1,-5.724246368E0,-6.533912659E-1,2.160958256E1
1.183065562E1,-1.969379654E1,-5.874683533E0,-1.500928802E0,2.060607474E1
1.184066363E1,-1.837429047E1,-6.082301788E0,-2.227817230E0,1.948261057E1
1.185067162E1,-1.690494598E1,-6.108946381E0,-2.811752930E0,1.819347078E1
1.186067962E1,-1.532198776E1,-5.818699951E0,-3.187321930E0,1.669669426E1
1.187068762E1,-1.366179016E1,-5.320984955E0,-3.358416138E0,1.504115522E1
1.188069562E1,-1.204545135E1,-4.670587463E0,-3.311114502E0,1.333681989E1
1.189070362E1,-1.059421921E1,-3.961661682E0,-3.073857880E0,1.172095756E1
1.190071162E1,-9.158854065E0,-3.211870880E0,-2.663112030E0,1.006443680E1
1.191071962E1,-7.774832153E0,-2.388732605E0,-2.261497192E0,8.442063019E0
1.192072762E1,-6.513405304E0,-1.508562927E0,-1.954335938E0,6.965604045E0
1.193073562E1,-5.411846008E0,-5.963598633E-1,-1.830393677E0,5.744045901E0
1.194074362E1,-4.416266327E0,3.125500488E-1,-1.942959595E0,4.834892738E0
1.195075163E1,-3.505111084E0,1.189276886E0,-2.187101898E0,4.299255509E0
1.196075962E1,-2.566263428E0,1.937720490E0,-2.526146851E0,4.089240343E0
1.197076762E1,-1.746717682E0,2.506837006E0,-2.929408264E0,4.232810793E0
1.198077563E1,-1.180295563E0,2.866988068E0,-3.248095551E0,4.490305435E0
1.199078362E1,-9.514215088E-1,2.986739044E0,-3.399430847E0,4.624061320E0
1.200079162E1,-1.043779449E0,2.927312622E0,-3.332220612E0,4.556569865E0
1.201079963E1,-1.241218872E0,2.783312073E0,-2.940185852E0,4.234636139E0
1.202080762E1,-1.499880981E0,2.623145142E0,-2.329605560E0,3.815441712E0
1.203081562E1,-1.730551300E0,2.416874084E0,-1.708996124E0,3.428812607E0
1.204082363E1,-1.925446014E0,2.271825714E0,-1.177451477E0,3.202331402E0
1.205083162E1,-2.053878937E0,2.091001740E0,-7.295828247E-1,3.020430112E0
1.206083962E1,-2.110161896E0,1.960772552E0,-3.719764709E-1,2.904441207E0
1.207084763E1,-2.307301941E0,1.886077881E0,-1.814227295E-1,2.985606509E0
1.208085567E1,-2.725981293E0,1.722019043E0,-1.683998108E-1,3.228727627E0
1.209086367E1,-3.285966797E0,1.497935028E0,-2.631527710E-1,3.620861295E0
1.210087167E1,-3.826343079E0,1.236129456E0,-3.796105957E-1,4.038938176E0
1.211087967E1,-4.374952240E0,8.973838806E-1,-4.219725037E-1,4.485929750E0
1.212088767E1,-5.149441681E0,4.531077576E-1,-3.338058472E-1,5.180104498E0
1.213089567E1,-6.074368286E0,-1.718426514E-1,-1.824705505E-1,6.079537439E0
1.214090367E1,-7.060517578E0,-7.445516968E-1,1.411564636E-1,7.101069697E0
1.215091167E1,-8.110883331E0,-1.402283936E0,4.808001709E-1,8.245240897E0
1.216091967E1,-9.133107605E0,-2.088756409E0,8.244854736E-1,9.405122761E0
1.217092767E1,-1.005818390E1,-2.428699493E0,1.097667389E0,1.040531202E1
1.218093567E1,-1.081815353E1,-2.413880310E0,1.181044006E0,1.114693361E1
1.219094367E1,-1.142574005E1,-2.247426453E0,1.053209839E0,1.169220733E1
1.220095167E1,-1.212089447E1,-2.449356537E0,8.541238403E-1,1.239536033E1
1.221095967E1,-1.312201263E1,-3.177592163E0,7.117698669E-1,1.352001937E1
1.222096767E1,-1.459210556E1,-4.279001770E0,8.722361755E-1,1.523155267E1
1.223097567E1,-1.596909210E1,-5.378016357E0,1.391656036E0,1.690773991E1
1.224098367E1,-1.676573547E1,-5.919590149E0,1.544787598E0,1.784706705E1
1.225099167E1,-1.694147003E1,-6.146069183E0,1.029409332E0,1.805123976E1
1.226099967E1,-1.680929489E1,-6.208040314E0,1.541793823E-1,1.791970788E1
1.227100767E1,-1.660691574E1,-6.115083618E0,-5.706134033E-1,1.770619942E1
1.228101567E1,-1.660377228E1,-6.202352142E0,-1.043779449E0,1.775510917E1
1.229102367E1,-1.692455521E1,-6.446793823E0,-1.335971832E0,1.816002589E1
1.230103167E1,-1.738664429E1,-6.718329163E0,-1.434916077E0,1.869466048E1
1.231103967E1,-1.780996399E1,-6.879543915E0,-1.252744904E0,1.913353892E1
1.232104767E1,-1.809721664E1,-6.833439789E0,-9.138496399E-1,1.936595649E1
1.233105567E1,-1.818732925E1,-6.598129120E0,-5.489085388E-1,1.935498783E1
1.234106267E1,-1.814870956E1,-6.284680939E0,-1.913021851E-1,1.920701616E1
1.235107167E1,-1.783885391E1,-5.880970459E0,1.056802368E-1,1.878354841E1
1.236107867E1,-1.734533020E1,-5.382956085E0,1.820214844E-1,1.816231890E1
1.237108667E1,-1.669568115E1,-4.796176300E0,5.942642212E-2,1.737102783E1
1.238109467E1,-1.584140762E1,-4.008364563E0,-1.630110168E-1,1.634147345E1
1.239110267E1,-1.473416016E1,-2.981799316E0,-4.309538269E-1,1.503902669E1
1.240111067E1,-1.354473358E1,-1.888622589E0,-6.960525513E-1,1.369347261E1
1.241111867E1,-1.232896179E1,-9.304650879E-1,-9.500743103E-1,1.240047198E1
1.242112667E1,-1.107232498E1,-2.083666992E-1,-1.123862915E0,1.113116638E1
1.243113467E1,-9.867330780E0,3.617976379E-1,-1.254690857E0,9.953359403E0
1.244114267E1,-8.826994171E0,8.687933350E-1,-1.398392029E0,8.979205322E0
1.245115067E1,-7.946824493E0,1.225351868E0,-1.540296936E0,8.186942126E0
1.246115867E1,-7.211104431E0,1.435664520E0,-1.693129120E0,7.545054403E0
1.247116667E1,-6.421945496E0,1.587598572E0,-1.864672394E0,6.873052910E0
1.248117467E1,-5.514831848E0,1.761686554E0,-2.007924500E0,6.127697008E0
1.249118267E1,-4.594994659E0,1.943408661E0,-2.184856567E0,5.446504509E0
1.250119067E1,-3.750151520E0,2.184257813E0,-2.320324860E0,4.921232170E0
1.251119867E1,-2.973416748E0,2.495011597E0,-2.450703735E0,4.590450830E0
1.252120667E1,-2.435734863E0,2.795736237E0,-2.537672882E0,4.493186963E0
1.253121467E1,-2.113155670E0,2.957100677E0,-2.465822296E0,4.392055430E0
1.254122267E1,-1.980232086E0,2.992726593E0,-2.276466064E0,4.249709322E0
1.255123067E1,-2.005080414E0,2.984194336E0,-2.102827148E0,4.165050458E0
1.256123867E1,-2.057022400E0,2.964734802E0,-1.911225586E0,4.083353627E0
1.257124667E1,-2.139800262E0,2.896776123E0,-1.716480560E0,3.989531625E0
1.258125467E1,-2.235900421E0,2.768043823E0,-1.533860321E0,3.874796096E0
1.259126267E1,-2.299967194E0,2.558180237E0,-1.403930511E0,3.715529047E0
1.260127067E1,-2.401456146E0,2.345472565E0,-1.319955139E0,3.607009113E0
1.261127867E1,-2.561623077E0,2.186503143E0,-1.255888367E0,3.594435196E0
1.262128667E1,-2.584675140E0,1.915416870E0,-1.152902527E0,3.417389589E0
1.263129467E1,-2.607577515E0,1.509910126E0,-1.122066650E0,3.215326212E0
1.264130267E1,-2.807711334E0,9.373507690E-1,-1.196761322E0,3.192821176E0
1.265131067E1,-3.229085083E0,2.474354553E-1,-1.327738953E0,3.500157926E0
1.266131867E1,-3.866160278E0,-4.493655396E-1,-1.307081909E0,4.105799289E0
1.267132667E1,-4.667593689E0,-1.042282562E0,-1.094374237E0,4.906163344E0
1.268133467E1,-5.646108856E0,-1.602567444E0,-8.183482361E-1,5.925914399E0
1.269134267E1,-6.739435272E0,-2.098186798E0,-6.200106812E-1,7.085674906E0
1.270135067E1,-8.217162323E0,-2.527793427E0,-6.318360901E-1,8.620366181E0
1.271135867E1,-9.898016968E0,-3.093317413E0,-4.635859680E-1,1.038047516E1
1.272136667E1,-1.156764496E1,-3.773652649E0,-1.372645569E-1,1.216838961E1
1.273137467E1,-1.307411224E1,-4.557273102E0,2.785707092E-1,1.384842051E1
1.274138267E1,-1.452669159E1,-5.334307251E0,7.670050049E-1,1.549412466E1
1.275139067E1,-1.578332840E1,-5.887407074E0,1.196761322E0,1.688808027E1
1.276139867E1,-1.707184891E1,-6.267766113E0,1.449735260E0,1.824375645E1
1.277140667E1,-1.841829895E1,-6.528523865E0,1.596729584E0,1.960624659E1
1.278141467E1,-1.981953506E1,-6.665339355E0,1.584006042E0,2.097021206E1
1.279142267E1,-2.123858414E1,-6.581663361E0,1.549727325E0,2.228895250E1
1.280143067E1,-2.211890350E1,-6.494544525E0,1.340612183E0,2.309160544E1
1.281143867E1,-2.229688339E1,-6.618935852E0,9.545649719E-1,2.327815532E1
1.282144667E1,-2.220901611E1,-6.907386017E0,4.204756165E-1,2.326218343E1
1.283145467E1,-2.195155151E1,-7.095694427E0,-1.121168518E-1,2.307015525E1
1.284146267E1,-2.165576660E1,-7.066355438E0,-6.860234070E-1,2.278982743E1
1.285147067E1,-2.129875900E1,-7.012018433E0,-1.299298096E0,2.246093749E1
1.286147867E1,-2.080583405E1,-6.904392242E0,-1.821562042E0,2.199707823E1
1.287148667E1,-2.011337402E1,-6.537954254E0,-2.217488708E0,2.126522788E1
1.288149467E1,-1.916554504E1,-6.003415833E0,-2.330952759E0,2.021861665E1
1.289150267E1,-1.795995209E1,-5.239254913E0,-2.221530304E0,1.883998057E1
1.290151067E1,-1.652129379E1,-4.250411224E0,-2.101030884E0,1.718817835E1
1.291151867E1,-1.499671417E1,-3.121458893E0,-2.052681427E0,1.545504586E1
1.292152667E1,-1.337932755E1,-2.033820648E0,-2.036515045E0,1.368540191E1
1.293153467E1,-1.178574142E1,-1.080752563E0,-2.046993256E0,1.201090789E1
1.294154267E1,-1.024349854E1,-3.128494263E-1,-2.084415436E0,1.045810330E1
1.295155067E1,-8.779093781E0,2.276765442E-1,-2.110760651E0,9.032144526E0
1.296155867E1,-7.397466888E0,5.782475281E-1,-2.206860809E0,7.741260957E0
1.297156667E1,-6.088439026E0,8.693920898E-1,-2.285896454E0,6.561269311E0
1.298157467E1,-4.834197235E0,1.155746613E0,-2.403252411E0,5.520945145E0
1.299158267E1,-3.630101166E0,1.422192535E0,-2.603236542E0,4.687974677E0
1.300159067E1,-2.509531403E0,1.632205811E0,-2.806064758E0,4.103150387E0
1.301159867E1,-1.498384094E0,1.780996399E0,-3.017275543E0,3.810650177E0
1.302160667E1,-6.596781921E-1,1.874701538E0,-3.263962555E0,3.821404550E0
1.303161467E1,-7.469467163E-2,1.931882629E0,-3.473077698E0,3.974923708E0
1.304162267E1,2.673440552E-1,1.942360840E0,-3.586392059E0,4.087352013E0
1.305163067E1,3.906875610E-1,1.889670410E0,-3.657943268E0,4.135703082E0
1.306163867E1,3.942800903E-1,1.852397919E0,-3.633544006E0,4.097496417E0
1.307164667E1,3.119512939E-1,1.861828308E0,-3.441343689E0,3.925119698E0
1.308165350E1,3.098556519E-2,1.910477142E0,-3.075055389E0,3.620338198E0
1.309166150E1,-4.131408691E-1,1.931283875E0,-2.520758057E0,3.202306038E0
1.310166950E1,-8.804690552E-1,1.835932159E0,-2.004481659E0,2.857239817E0
1.311167750E1,-1.268312531E0,1.794618073E0,-1.603764954E0,2.720539051E0
1.312168550E1,-1.578317871E0,1.812580719E0,-1.293759613E0,2.729532946E0
1.313169350E1,-1.902843018E0,1.809736633E0,-9.710307312E-1,2.799796227E0
1.314170150E1,-2.308050385E0,1.663640442E0,-6.617738342E-1,2.921085535E0
1.315170950E1,-2.903811493E0,1.295406189E0,-4.007167053E-1,3.204804559E0
1.316171750E1,-3.673810272E0,6.451583862E-1,-1.975891113E-1,3.735258052E0
1.317172550E1,-4.644990692E0,-7.888595581E-2,-2.354603577E-1,4.651623706E0
1.318173350E1,-5.975573730E0,-7.390132141E-1,-3.432362366E-1,6.030873324E0
1.319174150E1,-7.578739929E0,-1.623972931E0,-4.507127380E-1,7.763873322E0
1.320174950E1,-9.432634735E0,-2.571352844E0,-5.215155029E-1,9.790731940E0
1.321175750E1,-1.145867157E1,-3.525019684E0,-5.813909912E-1,1.200270525E1
1.322176550E1,-1.359936996E1,-4.432283020E0,-4.567002869E-1,1.431071526E1
1.323177350E1,-1.566597244E1,-5.118755493E0,-6.466552734E-2,1.648115688E1
1.324178150E1,-1.707918365E1,-5.380261688E0,5.728587341E-1,1.791574440E1
1.325178950E1,-1.798210602E1,-5.328768768E0,1.121318207E0,1.878854087E1
1.326179750E1,-1.869148087E1,-5.169949036E0,1.681603088E0,1.946606326E1
1.327180550E1,-2.001398071E1,-4.941224670E0,1.842518463E0,2.069710123E1
1.328181350E1,-2.160756683E1,-4.843477936E0,1.901196442E0,2.222522825E1
1.329182150E1,-2.301568863E1,-4.881798248E0,1.759441223E0,2.359342092E1
1.330182950E1,-2.393762146E1,-4.952301636E0,1.274449768E0,2.447772936E1
1.331183750E1,-2.422352692E1,-5.155129852E0,6.357279968E-1,2.477415529E1
1.332184550E1,-2.381397858E1,-5.445226593E0,-1.821711731E-1,2.442927045E1
1.333185350E1,-2.285357574E1,-5.633385315E0,-7.729925537E-1,2.355033910E1
1.334186150E1,-2.147314636E1,-5.590125275E0,-1.150657196E0,2.221867519E1
1.335186950E1,-1.974828323E1,-5.355113983E0,-1.327589264E0,2.050449779E1
1.336187750E1,-1.786684570E1,-5.054389343E0,-1.249002686E0,1.860997138E1
1.337188550E1,-1.594424377E1,-4.660258942E0,-1.034199371E0,1.664351199E1
1.338189350E1,-1.405098083E1,-4.129163361E0,-7.689509583E-1,1.466531070E1
1.339190150E1,-1.217897369E1,-3.579207001E0,-5.869294739E-1,1.270758078E1
1.340190950E1,-1.035202286E1,-3.011138306E0,-5.598358154E-1,1.079558925E1
1.341191750E1,-8.734486542E0,-2.347418518E0,-7.241940308E-1,9.073372352E0
1.342192550E1,-7.301666107E0,-1.563348999E0,-1.102008362E0,7.548033549E0
1.343193350E1,-5.911057892E0,-6.893165588E-1,-1.414259033E0,6.116853058E0
1.344194150E1,-4.675227814E0,1.857637024E-1,-1.848506012E0,5.030828733E0
1.345194950E1,-3.573818207E0,9.533674622E-1,-2.370171204E0,4.393039680E0
1.346195750E1,-2.618205414E0,1.612297211E0,-2.883603516E0,4.215408773E0
1.347196550E1,-1.836381226E0,2.173031158E0,-3.308569794E0,4.363598802E0
1.348197350E1,-1.225202179E0,2.558329926E0,-3.589086456E0,4.574681844E0
1.349198150E1,-8.060737610E-1,2.728675690E0,-3.690725098E0,4.660137087E0
1.350198950E1,-5.903723145E-1,2.710862732E0,-3.678899689E0,4.607778113E0
1.351199750E1,-5.505551147E-1,2.564616852E0,-3.441643066E0,4.327271372E0
1.352200550E1,-6.104306030E-1,2.424358521E0,-2.946772156E0,3.864402398E0
1.353201350E1,-7.194039917E-1,2.342029724E0,-2.310744781E0,3.367816322E0
1.354202150E1,-8.000862122E-1,2.322869568E0,-1.785936127E0,3.037339103E0
1.355202950E1,-8.550219727E-1,2.340832214E0,-1.405277710E0,2.861007423E0
1.356203750E1,-9.508227539E-1,2.345622253E0,-1.024918671E0,2.730653026E0
1.357204550E1,-1.139729919E0,2.365830231E0,-6.679110718E-1,2.709657205E0
1.358205350E1,-1.359173584E0,2.334096222E0,-4.055067444E-1,2.731262295E0
1.359206150E1,-1.592687988E0,2.179318085E0,-2.324665833E-1,2.709266147E0
1.360206950E1,-1.907483368E0,1.870959320E0,-1.049317932E-1,2.673946944E0
1.361207750E1,-2.319875793E0,1.521585846E0,-5.044509888E-2,2.774813848E0
1.362208550E1,-2.903961182E0,1.150806885E0,-8.801696777E-2,3.124915042E0
1.363209350E1,-3.906127167E0,5.947132874E-1,-3.317102051E-1,3.965040353E0
1.364210150E1,-5.471721497E0,-4.468208313E-1,-5.610333252E-1,5.518527284E0
1.365210950E1,-7.233857117E0,-1.798060913E0,-7.432044983E-1,7.490932169E0
1.366211750E1,-9.055868225E0,-3.124901733E0,-5.824388123E-1,9.597551517E0
1.367212550E1,-1.092712692E1,-4.121678925E0,-3.288661194E-1,1.168325695E1
1.368213350E1,-1.246577728E1,-4.489015045E0,1.451980591E-2,1.324941773E1
1.369214150E1,-1.373738297E1,-4.194727020E0,3.691323853E-1,1.436828745E1
1.370214950E1,-1.449795135E1,-3.341950378E0,5.974076843E-1,1.489013505E1
1.371215750E1,-1.462638428E1,-2.308050385E0,1.061891785E0,1.484539753E1
1.372216550E1,-1.492651016E1,-1.672023010E0,1.642684021E0,1.510942677E1
1.373217350E1,-1.599184479E1,-1.684896240E0,2.070644073E0,1.621312869E1
1.374218150E1,-1.831486404E1,-2.472857666E0,2.015259247E0,1.859060354E1
1.375218950E1,-2.185979233E1,-3.800297241E0,1.704655151E0,2.225305887E1
1.376219750E1,-2.526970139E1,-5.229974213E0,1.013991394E0,2.582515473E1
1.377220550E1,-2.841660736E1,-6.620133362E0,3.186872864E-1,2.917929576E1
1.378221350E1,-3.073289063E1,-7.714208221E0,2.615061951E-1,3.168734700E1
1.379222150E1,-3.082674545E1,-7.591912537E0,7.828720093E-1,3.175749140E1
1.380222950E1,-2.840732666E1,-6.556515656E0,1.158590698E0,2.917715610E1
1.381223750E1,-2.496089355E1,-5.471721497E0,7.542814636E-1,2.556471951E1
1.382224550E1,-2.163151703E1,-5.023553467E0,1.793270874E-1,2.220789897E1
1.383225350E1,-1.839883942E1,-5.076692963E0,-4.082011414E-1,1.909074989E1
1.384226150E1,-1.529803757E1,-5.032385101E0,-6.569837952E-1,1.611789319E1
1.385226950E1,-1.242865448E1,-4.793930969E0,-8.655001831E-1,1.334924406E1
1.386227750E1,-9.767787781E0,-4.271667023E0,-1.113384705E0,1.071897583E1
1.387228550E1,-7.388335876E0,-3.451073456E0,-1.453178101E0,8.283063540E0
1.388229350E1,-5.469176788E0,-2.401605835E0,-1.863325195E0,6.257122830E0
1.389230150E1,-4.058360596E0,-1.323547668E0,-2.204615479E0,4.804414487E0
1.390230950E1,-3.198398895E0,-4.364923096E-1,-2.550097046E0,4.113790949E0
1.391231750E1,-2.688858490E0,2.733316040E-1,-2.797532501E0,3.889840388E0
1.392232550E1,-2.310445404E0,7.756869507E-1,-2.799179077E0,3.711502622E0
1.393233350E1,-2.063758392E0,1.068627777E0,-2.731968842E0,3.586741945E0
1.394234150E1,-1.966161346E0,1.218466187E0,-2.608026581E0,3.486008166E0
1.395234950E1,-1.824106750E0,1.182690582E0,-2.273023224E0,3.145275350E0
1.396235750E1,-1.653461609E0,9.889933777E-1,-1.785636749E0,2.626888234E0
1.397236550E1,-1.590292969E0,8.259823608E-1,-1.434167633E0,2.295237545E0
1.398237350E1,-1.642983398E0,8.114625549E-1,-1.193917236E0,2.187076655E0
1.399238150E1,-1.750459900E0,9.271719360E-1,-9.916877747E-1,2.215220599E0
1.400238950E1,-1.831890564E0,1.210083618E0,-9.563612366E-1,2.394734268E0
1.401239750E1,-1.816322937E0,1.527872772E0,-1.036744080E0,2.590031372E0
1.402240650E1,-1.797911224E0,1.764530640E0,-1.109492798E0,2.752640081E0
1.403241350E1,-1.828896790E0,1.966460724E0,-1.076261902E0,2.893124769E0
1.404242150E1,-1.926643524E0,2.127825165E0,-9.440867615E-1,3.021737086E0
1.405242950E1,-2.026036835E0,2.171983337E0,-7.825726318E-1,3.071604922E0
1.406243850E1,-2.070344696E0,2.041155396E0,-6.363267517E-1,2.976164351E0
1.407244550E1,-2.166295166E0,1.835632782E0,-4.884342957E-1,2.881137018E0
1.408245775E1,-2.388433228E0,1.584604797E0,-2.514770508E-1,2.877294972E0
1.409246675E1,-2.624492340E0,1.382824402E0,4.056564331E-2,2.966784276E0
1.410247475E1,-2.889890442E0,1.320254517E0,3.167413330E-1,3.192939684E0
1.411248175E1,-3.083737335E0,1.261277161E0,5.348377991E-1,3.374360310E0
1.412249075E1,-3.357817383E0,1.037941589E0,5.873785400E-1,3.563323430E0
1.413249875E1,-4.034709778E0,4.355941772E-1,3.429368591E-1,4.072619669E0
1.414250675E1,-5.116210785E0,-5.971083069E-1,-2.754272461E-2,5.151010554E0
1.415251475E1,-6.551725616E0,-1.636846161E0,-6.381230164E-1,6.783183242E0
1.416252275E1,-8.694070587E0,-2.823728027E0,-1.440753937E0,9.253976186E0
1.417253075E1,-1.178948364E1,-4.264631653E0,-2.031725006E0,1.270066590E1
1.418253875E1,-1.577195206E1,-6.076014862E0,-2.530038757E0,1.709015870E1
1.419254675E1,-2.042637314E1,-8.023764496E0,-2.519710236E0,2.208996279E1
1.420255475E1,-2.397818710E1,-8.851692810E0,-1.495240631E0,2.560354794E1
1.421256275E1,-2.549737793E1,-7.992928619E0,-3.106040955E-1,2.672264328E1
1.422257075E1,-2.583672226E1,-6.181246033E0,6.776408386E-1,2.657448432E1
1.423257875E1,-2.634207138E1,-4.436623993E0,1.657652893E0,2.676445722E1
1.424258675E1,-2.701177872E1,-3.288062439E0,3.135679321E0,2.739124000E1
1.425259475E1,-2.762086212E1,-2.639012146E0,4.607418823E0,2.812658382E1
1.426260275E1,-2.774061310E1,-2.377955017E0,5.333858185E0,2.834865655E1
1.427261075E1,-2.679083817E1,-2.668650513E0,5.281317444E0,2.743652710E1
1.428261875E1,-2.504157578E1,-3.560645599E0,4.260440369E0,2.564975763E1
1.429262675E1,-2.310430435E1,-4.470902710E0,2.519261169E0,2.366737264E1
1.430263475E1,-2.109024261E1,-4.971910858E0,8.008346558E-1,2.168316322E1
1.431264275E1,-1.906839706E1,-4.997956696E0,-5.298980713E-1,1.971963817E1
1.432265075E1,-1.690434723E1,-4.660109253E0,-1.572030945E0,1.760525077E1
1.433265875E1,-1.459509933E1,-4.004322968E0,-2.250569916E0,1.530086899E1
1.434266675E1,-1.211655350E1,-3.087030487E0,-2.571801910E0,1.276537469E1
1.435267475E1,-9.740245056E0,-2.110311584E0,-2.647843781E0,1.031197680E1
1.436268275E1,-7.562723236E0,-1.273401947E0,-2.496508484E0,8.065289200E0
1.437269075E1,-5.693709869E0,-5.092410278E-1,-2.144889679E0,6.105588443E0
1.438269875E1,-4.190535736E0,2.483335876E-1,-1.850002899E0,4.587457908E0
1.439270675E1,-3.013084259E0,8.574169922E-1,-1.649120636E0,3.540259810E0
1.440271475E1,-2.116299133E0,1.323697357E0,-1.547631683E0,2.937015584E0
1.441272275E1,-1.343755646E0,1.710043945E0,-1.610950012E0,2.706490250E0
1.442273075E1,-5.932164001E-1,1.841770020E0,-1.857337646E0,2.682112159E0
1.443273875E1,2.320175171E-2,1.771116943E0,-2.232906647E0,2.850134320E0
1.444274675E1,3.695814514E-1,1.661694489E0,-2.692001953E0,3.185073553E0
1.445275475E1,4.682263184E-1,1.544787598E0,-3.083737335E0,3.480666683E0
1.446276275E1,4.457730103E-1,1.466650085E0,-3.362457733E0,3.695388756E0
1.447277075E1,3.291654968E-1,1.439556427E0,-3.515888672E0,3.813416550E0
1.448277875E1,7.768844604E-2,1.556163940E0,-3.372935944E0,3.715424415E0
1.449278675E1,-1.544787598E-1,1.699416046E0,-2.988984375E0,3.441788224E0
1.450279475E1,-5.053491211E-1,1.691632233E0,-2.539918213E0,3.093247787E0
1.451280275E1,-9.117539978E-1,1.586101685E0,-1.943857727E0,2.669381346E0
1.452281075E1,-1.277144165E0,1.505868530E0,-1.243164825E0,2.333280101E0
1.453281875E1,-1.633852386E0,1.481169891E0,-5.728587341E-1,2.278487436E0
1.454282675E1,-1.924248505E0,1.426533508E0,2.844085693E-2,2.395524794E0
1.455283475E1,-2.187850342E0,1.300944672E0,5.025050354E-1,2.594543788E0
1.456284275E1,-2.561473389E0,1.015338593E0,9.021739197E-1,2.899306151E0
1.457285075E1,-3.046764221E0,5.846841431E-1,1.089434509E0,3.288083837E0
1.458285875E1,-3.566782837E0,-2.634521484E-2,1.058299255E0,3.720568665E0
1.459286675E1,-4.545896759E0,-1.177601166E0,7.872129822E-1,4.761473105E0
1.460287475E1,-6.279741211E0,-2.870730286E0,3.200344849E-1,6.912211232E0
1.461288275E1,-8.843160553E0,-4.849615173E0,-1.612147522E-1,1.008693442E1
1.462289075E1,-1.186702240E1,-6.843019867E0,-4.061054993E-1,1.370467304E1
1.463289875E1,-1.551837936E1,-8.769064636E0,-8.663983154E-1,1.784565041E1
1.464290675E1,-1.943034439E1,-1.075947556E1,-1.246308289E0,2.224540136E1
1.465291475E1,-2.285282730E1,-1.191836563E1,-1.185534668E0,2.580125283E1
1.466292275E1,-2.584196136E1,-1.117171829E1,-8.102650452E-1,2.816506322E1
1.467293075E1,-2.773836777E1,-9.001531219E0,-2.891986084E-1,2.916381742E1
1.468293875E1,-2.784404800E1,-6.076912994E0,6.947053528E-1,2.850793743E1
1.469294675E1,-2.692495926E1,-2.865491180E0,1.216819611E0,2.710433767E1
1.470295475E1,-2.501912247E1,-4.251159668E-2,1.593137054E0,2.506983011E1
1.471296275E1,-2.183509369E1,2.185155945E0,1.716031494E0,2.201115597E1
1.472297075E1,-1.808688812E1,3.554508362E0,1.765279083E0,1.851718828E1
1.473297875E1,-1.478685059E1,3.750450897E0,1.811083832E0,1.536218919E1
1.474298675E1,-1.259450958E1,2.968327332E0,1.368753662E0,1.301176873E1
1.475299475E1,-1.142124939E1,1.898352356E0,5.433700562E-1,1.159068291E1
1.476300275E1,-1.038076309E1,9.454339600E-1,-3.228785706E-1,1.042872659E1
1.477301075E1,-9.129066010E0,2.565664673E-1,-1.121617584E0,9.201287875E0
1.478301875E1,-7.726333008E0,1.586700439E-2,-1.918710022E0,7.961025164E0
1.479302675E1,-6.290369110E0,1.116677856E-1,-2.610571289E0,6.811482635E0
1.480303475E1,-4.962779846E0,2.990780640E-1,-3.182232513E0,5.902985284E0
1.481304275E1,-3.672762451E0,4.510121155E-1,-3.626059570E0,5.180820780E0
1.482305075E1,-2.395618286E0,5.963598633E-1,-3.920048218E0,4.632646122E0
1.483305875E1,-1.133143616E0,6.629713440E-1,-4.100572815E0,4.305605981E0
1.484306675E1,-5.867797852E-2,5.673202515E-1,-4.221521301E0,4.259875288E0
1.485307475E1,6.548881531E-1,2.583627319E-1,-4.314178619E0,4.371243182E0
1.486308275E1,1.059945831E0,-1.576222229E-1,-4.219425659E0,4.353376026E0
1.487309075E1,1.211131439E0,-4.170327759E-1,-3.825444946E0,4.034201871E0
1.488309875E1,9.996212769E-1,-4.646337891E-1,-3.143463135E0,3.331139105E0
1.489310675E1,5.542973328E-1,-3.519181824E-1,-2.436932373E0,2.523832667E0
1.490311475E1,6.436614990E-2,-2.318678284E-1,-1.774260406E0,1.790504309E0
1.491312275E1,-4.056564331E-1,5.912704468E-2,-1.107846222E0,1.181260513E0
1.492313075E1,-8.348139954E-1,5.905220032E-1,-5.782475281E-1,1.174734373E0
1.493313875E1,-1.428479462E0,1.159488831E0,-1.763333130E-1,1.848259007E0
1.494314675E1,-2.413730621E0,1.063538361E0,-7.095245361E-2,2.638606376E0
1.495315475E1,-3.982917480E0,-1.585203552E-1,-2.041754150E-1,3.991296526E0
1.496316275E1,-5.790857849E0,-2.042652283E0,-5.149291992E-2,6.140774747E0
1.497317075E1,-8.460406494E0,-4.186045074E0,-6.735992432E-3,9.439358918E0
1.498317875E1,-1.201147202E1,-6.461014252E0,-1.408570862E-1,1.363964830E1
1.499318675E1,-1.629960480E1,-8.101153564E0,-5.542973328E-1,1.821024577E1
1.500319475E1,-2.073158844E1,-8.826994171E0,-1.161434784E0,2.256243595E1
1.501320275E1,-2.506477753E1,-8.341403961E0,-1.818418579E0,2.647883567E1
1.502321075E1,-2.891881302E1,-7.217690735E0,-1.792223053E0,2.985975334E1
1.503321875E1,-3.103795624E1,-5.884562988E0,-3.535647583E-1,3.159284440E1
1.504322675E1,-3.122566589E1,-4.635260925E0,1.711989899E0,3.161421775E1
1.505323475E1,-3.006917084E1,-3.155887299E0,3.354075165E0,3.041980407E1
1.506324275E1,-2.784314987E1,-1.935475159E0,4.564308472E0,2.828108857E1
1.507325075E1,-2.549857544E1,-1.679806824E0,5.076543274E0,2.605322230E1
1.508325450E1,-2.387819504E1,-2.305954742E0,4.943320312E0,2.449330605E1
1.509326250E1,-2.268233185E1,-3.570674744E0,3.875440979E0,2.328641104E1
1.510327050E1,-2.091151428E1,-4.956941986E0,1.915566559E0,2.157619287E1
1.511327850E1,-1.852008728E1,-5.496869202E0,3.597019958E-1,1.932197168E1
1.512328650E1,-1.588511673E1,-5.485492859E0,-9.813592529E-1,1.683421015E1
1.513329450E1,-1.332573898E1,-5.156477051E0,-2.106719055E0,1.444308970E1
1.514330250E1,-1.092997101E1,-4.536616058E0,-2.930156708E0,1.219143018E1
1.515331050E1,-8.658893738E0,-3.704346771E0,-3.367846527E0,1.000205059E1
1.516331850E1,-6.637197876E0,-2.801274719E0,-3.379971313E0,7.957621616E0
1.517332650E1,-5.183421021E0,-1.827549591E0,-3.010838928E0,6.266812749E0
1.518333450E1,-4.283941498E0,-9.710307312E-1,-2.342628479E0,4.978249052E0
1.519334250E1,-3.767066345E0,-3.571572876E-1,-1.481618958E0,4.063686124E0
1.520335050E1,-3.375181274E0,2.200424194E-2,-8.397537231E-1,3.478148809E0
1.521335850E1,-2.840792542E0,2.130070496E-1,-4.730163574E-1,2.887770549E0
1.522336650E1,-2.095791779E0,3.829037476E-1,-4.173321533E-1,2.170973189E0
1.523337450E1,-1.348994751E0,6.839277649E-1,-7.162605286E-1,1.673491312E0
1.524338250E1,-6.086343384E-1,1.025068359E0,-1.096918945E0,1.620009899E0
1.525339050E1,2.993774414E-2,1.503473511E0,-1.447938995E0,2.087547892E0
1.526339850E1,4.716691589E-1,2.089654541E0,-1.912273407E0,2.871570560E0
1.527340650E1,8.006849670E-1,2.608625336E0,-2.397115173E0,3.632104584E0
1.528341450E1,9.985734558E-1,3.034340057E0,-2.664309540E0,4.159677133E0
1.529342250E1,8.954379272E-1,3.305576019E0,-2.744093628E0,4.388472598E0
1.530343050E1,5.677693176E-1,3.393143921E0,-2.595901794E0,4.309813661E0
1.531343850E1,2.026785278E-1,3.275039520E0,-2.207309875E0,3.954640228E0
1.532344650E1,-1.082249451E-1,2.995720367E0,-1.757345581E0,3.474811743E0
1.533345450E1,-4.123924255E-1,2.619253235E0,-1.244961090E0,2.929246172E0
1.534346250E1,-7.878117371E-1,2.247276764E0,-7.988887024E-1,2.511796836E0
1.535347050E1,-1.142424316E0,1.918710022E0,-3.833528137E-1,2.265731857E0
1.536347850E1,-1.439706116E0,1.658251648E0,-4.071533203E-2,2.196408424E0
1.537348650E1,-1.644929352E0,1.482068024E0,1.290316772E-1,2.217874517E0
1.538349450E1,-1.911375275E0,1.355281677E0,1.923500061E-1,2.350987535E0
1.539350250E1,-2.487676849E0,1.127605133E0,7.574249268E-2,2.732355462E0
1.540351050E1,-3.308270416E0,6.382727051E-1,-9.400451660E-2,3.370590756E0
1.541351850E1,-4.295467529E0,-1.609153748E-1,-3.427871704E-1,4.312126865E0
1.542352650E1,-5.780379639E0,-1.285676422E0,-7.357200623E-1,5.967163199E0
1.543353450E1,-7.933502197E0,-2.805615692E0,-1.074315948E0,8.483283049E0
1.544354250E1,-1.080273560E1,-4.761448517E0,-1.283580780E0,1.187510286E1
1.545355050E1,-1.440065369E1,-7.064110107E0,-1.021775208E0,1.607247656E1
1.546355850E1,-1.864328110E1,-9.162596283E0,-1.730401611E-1,2.077390295E1
1.547356650E1,-2.303709412E1,-1.039228912E1,1.084794159E0,2.529593163E1
1.548357450E1,-2.648083282E1,-1.021236328E1,2.237996063E0,2.846990512E1
1.549358250E1,-2.842454086E1,-8.643924866E0,3.041076050E0,2.986503146E1
1.550359050E1,-2.887405609E1,-6.464606781E0,3.616928558E0,2.980913330E1
1.551359850E1,-2.864114044E1,-4.510270844E0,4.212689667E0,2.929853619E1
1.552360650E1,-2.818623642E1,-3.136876831E0,4.498894501E0,2.871487370E1
1.553361450E1,-2.740246628E1,-2.584226074E0,4.590354309E0,2.790420641E1
1.554362250E1,-2.616693558E1,-2.631527710E0,4.310286713E0,2.664980351E1
1.555363050E1,-2.469684265E1,-3.345093842E0,3.595822449E0,2.518042154E1
1.556363850E1,-2.306328964E1,-4.491559753E0,2.368674316E0,2.361567395E1
1.557364650E1,-2.124382324E1,-5.510790253E0,1.017134857E0,2.197051202E1
1.558365450E1,-1.912991913E1,-6.141877899E0,-1.007405090E-1,2.009195408E1
1.559366250E1,-1.672531952E1,-6.470294952E0,-1.084494781E0,1.796600008E1
1.560367050E1,-1.411025757E1,-6.433471527E0,-1.873953094E0,1.562051935E1
1.561367850E1,-1.128727798E1,-6.107150116E0,-2.568658447E0,1.308808363E1
1.562368650E1,-8.376580811E0,-5.629643097E0,-3.110381927E0,1.056098780E1
1.563369450E1,-5.784720612E0,-5.059628448E0,-3.550167389E0,8.465608134E0
1.564370250E1,-3.832031250E0,-4.411775665E0,-3.945794678E0,7.051065427E0
1.565371050E1,-2.470013580E0,-3.760480042E0,-4.419409790E0,6.306612413E0
1.566371850E1,-1.407822418E0,-3.048261108E0,-4.917424164E0,5.954403425E0
1.567372650E1,-4.974156189E-1,-2.142943726E0,-5.247487793E0,5.689969969E0
1.568373450E1,1.556762695E-1,-1.164129181E0,-5.392536163E0,5.518956253E0
1.569374250E1,4.475692749E-1,-2.275268555E-1,-5.310057678E0,5.333741583E0
1.570375050E1,5.427713013E-1,6.068380737E-1,-4.978646851E0,5.044777259E0
1.571375850E1,5.352868652E-1,1.254990234E0,-4.525988159E0,4.727166311E0
1.572376650E1,3.140469360E-1,1.592388611E0,-4.064797211E0,4.376859985E0
1.573377450E1,2.125579834E-2,1.676064606E0,-3.550616455E0,3.926387854E0
1.574378350E1,-4.025129700E-1,1.645677795E0,-2.926713867E0,3.381704623E0
1.575379150E1,-6.789880371E-1,1.590143280E0,-2.251168671E0,2.838545541E0
1.576379950E1,-8.458909607E-1,1.661844177E0,-1.757944336E0,2.562737965E0
1.577380750E1,-1.005010071E0,1.801952820E0,-1.293460236E0,2.435183481E0
1.578381550E1,-1.213825836E0,1.872306519E0,-8.321195984E-1,2.381454993E0
1.579382350E1,-1.463656311E0,1.830094299E0,-4.650828552E-1,2.389107993E0
1.580383150E1,-1.727856903E0,1.740879822E0,-1.257385254E-1,2.456005336E0
1.581383950E1,-2.025138702E0,1.556613007E0,2.110610962E-1,2.562962661E0
1.582384750E1,-2.400857391E0,1.258283386E0,4.505630493E-1,2.747799184E0
1.583385550E1,-3.022514648E0,6.105802917E-1,5.263055420E-1,3.128162498E0
1.584386350E1,-3.815266113E0,-4.742138672E-1,7.388635254E-1,3.914978112E0
1.585387150E1,-4.798271942E0,-1.512454834E0,8.117619324E-1,5.096066198E0
1.586387950E1,-6.208938446E0,-2.446512451E0,5.345384216E-1,6.694928762E0
1.587388750E1,-7.801327057E0,-3.473826141E0,6.765930176E-2,8.540067312E0
1.588389550E1,-9.570647736E0,-4.368964691E0,-6.230044556E-1,1.053913114E1
1.589390350E1,-1.166239792E1,-5.162015533E0,-1.292562103E0,1.281907354E1
1.590391150E1,-1.426892761E1,-5.969137115E0,-1.677561493E0,1.555786315E1
1.591391950E1,-1.691886703E1,-6.621929626E0,-1.663041687E0,1.824455320E1
1.592392750E1,-1.913455948E1,-6.915020142E0,-1.347647552E0,2.039031692E1
1.593393550E1,-2.147973267E1,-6.803951111E0,-8.704399109E-1,2.254839976E1
1.594394350E1,-2.349244720E1,-6.030808868E0,-4.590953064E-1,2.425853458E1
1.595395150E1,-2.420616302E1,-4.758305054E0,-2.347119141E-1,2.467052665E1
1.596395950E1,-2.413521057E1,-3.520678711E0,-1.520837402E-1,2.439111923E1
1.597396750E1,-2.407294006E1,-2.669848022E0,-2.993774414E-2,2.422055796E1
1.598397550E1,-2.396052383E1,-2.236050110E0,2.737806702E-1,2.406619160E1
1.599398350E1,-2.343496674E1,-2.864593048E0,4.933740234E-1,2.361455012E1
1.600399150E1,-2.272993286E1,-4.492757263E0,1.469943237E-1,2.317016019E1
1.601399950E1,-2.189766357E1,-5.928571472E0,-3.897894287E-1,2.268937120E1
1.602400750E1,-2.076975906E1,-6.841373291E0,-1.048719177E0,2.189262643E1
1.603401550E1,-1.939142532E1,-7.148384857E0,-1.741478577E0,2.074028760E1
1.604402350E1,-1.766491562E1,-6.880891113E0,-2.302212524E0,1.909701780E1
1.605403150E1,-1.562495773E1,-6.106850739E0,-2.613415375E0,1.697830586E1
1.606403950E1,-1.351135300E1,-5.054089966E0,-2.675685883E0,1.467173405E1
1.607404750E1,-1.148816025E1,-4.076173553E0,-2.609373779E0,1.246602776E1
1.608405687E1,-9.661808167E0,-3.161276093E0,-2.426304474E0,1.045137106E1
1.609406487E1,-7.936495972E0,-2.324815521E0,-2.109563141E0,8.534810611E0
1.610407288E1,-6.284680939E0,-1.551074524E0,-1.703906708E0,6.693754160E0
1.611408087E1,-4.795128479E0,-8.517288208E-1,-1.473386078E0,5.088179011E0
1.612408887E1,-3.546724548E0,-3.234773254E-1,-1.390458527E0,3.823253525E0
1.613409688E1,-2.520907745E0,1.245410156E-1,-1.344204712E0,2.859610574E0
1.614410487E1,-1.728305969E0,5.598358154E-1,-1.321302338E0,2.246396566E0
1.615411287E1,-1.129251709E0,9.065148926E-1,-1.303190002E0,1.948148571E0
1.616412088E1,-6.063890076E-1,1.121767273E0,-1.329984283E0,1.842532941E0
1.617412887E1,-2.004331970E-1,1.222657471E0,-1.449136505E0,1.906583690E0
1.618413687E1,4.176315308E-2,1.217418365E0,-1.580563202E0,1.995502862E0
1.619414488E1,1.384620667E-1,1.169967041E0,-1.625769196E0,2.007764951E0
1.620415287E1,6.451583862E-2,1.035097504E0,-1.645977173E0,1.945463952E0
1.621416087E1,-8.547225952E-2,9.358538818E-1,-1.456022186E0,1.732953722E0
1.622416888E1,-2.442919922E-1,9.955796814E-1,-1.303040314E0,1.657941959E0
1.623417687E1,-5.574407959E-1,1.140029297E0,-1.247356110E0,1.779411224E0
1.624418487E1,-9.954299927E-1,1.315314789E0,-1.154100037E0,2.013176783E0
1.625419287E1,-1.443298645E0,1.477727051E0,-1.047222290E0,2.315915098E0
1.626420087E1,-1.803599396E0,1.482666779E0,-8.819659424E-1,2.495823608E0
1.627420887E1,-2.173779602E0,1.260379028E0,-6.909631348E-1,2.606012875E0
1.628421687E1,-2.580034790E0,9.532177734E-1,-5.319937134E-1,2.801467643E0
1.629422487E1,-3.012335815E0,6.409671021E-1,-4.297563171E-1,3.109613542E0
1.630423287E1,-3.571722565E0,2.207908630E-1,-3.332070923E-1,3.594019707E0
1.631424087E1,-4.379742279E0,-3.778143311E-1,-2.254312134E-1,4.401784335E0
1.632424887E1,-5.254672852E0,-1.085392914E0,-7.334747314E-2,5.366101416E0
1.633425688E1,-6.089786224E0,-1.693428497E0,1.945953369E-2,6.320884037E0
1.634426487E1,-6.914870453E0,-2.126477966E0,1.077758789E-2,7.234463220E0
1.635427287E1,-8.086933136E0,-2.628533936E0,-1.782792664E-1,8.505260825E0
1.636428088E1,-9.696835327E0,-3.400478668E0,-4.046086121E-1,1.028375314E1
1.637428887E1,-1.142364441E1,-3.930227051E0,-4.323010254E-1,1.208855742E1
1.638429687E1,-1.342603043E1,-4.085903320E0,-4.468208313E-1,1.404110209E1
1.639430488E1,-1.529579224E1,-4.104165344E0,-4.040098572E-1,1.584199032E1
1.640431287E1,-1.665032547E1,-3.806733856E0,-1.360670471E-1,1.708048814E1
1.641432087E1,-1.760294449E1,-3.189118195E0,2.562670898E-1,1.789133316E1
1.642432888E1,-1.817445602E1,-2.657573547E0,7.050338745E-1,1.838125735E1
1.643433687E1,-1.861738495E1,-2.740201721E0,1.309327240E0,1.886345847E1
1.644434487E1,-1.902528671E1,-3.181035004E0,1.915865936E0,1.938429933E1
1.645435288E1,-1.972957214E1,-3.878584442E0,2.042502594E0,2.021067171E1
1.646436087E1,-2.065240311E1,-4.698878632E0,1.779798889E0,2.125485588E1
1.647436887E1,-2.147284698E1,-5.536387024E0,1.071022797E0,2.220094207E1
