"Time (s)","Acceleration x (m/s^2)","Acceleration y (m/s^2)","Acceleration z (m/s^2)","Absolute acceleration (m/s^2)"
-2.122541773E-3,-8.428822174E0,1.823358307E0,7.415878601E0,1.137387068E1
7.956458256E-3,-8.241860962E0,1.628613281E0,7.307503967E0,1.113464268E1
1.803545828E-2,-8.064180450E0,1.439257050E0,7.348818054E0,1.100488955E1
2.811445831E-2,-7.956703949E0,1.301393738E0,7.632478180E0,1.110213883E1
3.819245833E-2,-7.958949280E0,1.103205872E0,8.027506714E0,1.135793999E1
4.827145825E-2,-7.991282043E0,9.785151672E-1,8.173004150E0,1.147240504E1
5.835045828E-2,-7.810757446E0,9.918374634E-1,8.175848236E0,1.135060209E1
6.842945830E-2,-7.689060516E0,9.288185120E-1,8.081095276E0,1.119323261E1
7.850845833E-2,-7.614515533E0,8.599617004E-1,7.883805542E0,1.099430629E1
8.858745825E-2,-7.640860748E0,7.933502197E-1,7.749385071E0,1.091169678E1
9.866645827E-2,-7.735464020E0,8.156538391E-1,7.676935730E0,1.092877106E1
1.087454583E-1,-7.778424683E0,8.725355530E-1,7.679630127E0,1.096548803E1
1.188244583E-1,-7.777227173E0,9.598040771E-1,7.620952148E0,1.093093765E1
1.289034582E-1,-7.665110321E0,1.028660889E0,7.461533661E0,1.074646658E1
1.389824583E-1,-7.578889618E0,1.086141357E0,7.425758057E0,1.066588738E1
1.490614583E-1,-7.424261169E0,1.080153809E0,7.488777008E0,1.060038524E1
1.591404583E-1,-7.337890778E0,1.071172485E0,7.463030548E0,1.052087812E1
1.692194582E-1,-7.204518127E0,9.945318604E-1,7.297025757E0,1.030246378E1
1.792984583E-1,-7.066056061E0,8.782237244E-1,7.101083221E0,1.005613286E1
1.893774583E-1,-6.874005432E0,7.475454712E-1,6.868616638E0,9.746213082E0
1.994564583E-1,-6.769971771E0,5.929170227E-1,6.705605621E0,9.547209809E0
2.095354582E-1,-6.697672119E0,4.688250732E-1,6.681056671E0,9.471806956E0
2.196144583E-1,-6.663543091E0,3.372486877E-1,6.758745117E0,9.497219528E0
2.296934583E-1,-6.583759003E0,3.210823059E-1,6.759343872E0,9.441276716E0
2.397724583E-1,-6.504423981E0,2.653981018E-1,6.687642975E0,9.332873943E0
2.498514582E-1,-6.567742310E0,1.739382935E-1,6.621330872E0,9.327781949E0
2.599294583E-1,-6.507268066E0,2.112107849E-1,6.444099426E0,9.160543930E0
2.700084583E-1,-6.404581604E0,2.311193848E-1,6.313720551E0,8.996396439E0
2.800874583E-1,-6.373146973E0,1.531315613E-1,6.180796967E0,8.879341347E0
2.901658333E-1,-6.297703857E0,3.547622681E-2,6.038143616E0,8.724764224E0
3.002448332E-1,-6.206244049E0,-1.953437805E-1,5.797593842E0,8.495158547E0
3.103238333E-1,-6.130800934E0,-3.237767029E-1,5.677244110E0,8.361976568E0
3.204028333E-1,-6.092779999E0,-3.385958862E-1,5.985453186E0,8.547646760E0
3.304818333E-1,-6.219865723E0,-5.439688110E-1,5.852379913E0,8.557627143E0
3.405608332E-1,-6.328689423E0,-6.866221619E-1,5.814808044E0,8.621818393E0
3.506398333E-1,-6.384223938E0,-8.913963318E-1,5.677094421E0,8.589662612E0
3.607188333E-1,-6.294261017E0,-9.958790588E-1,5.478457489E0,8.403748765E0
3.707978333E-1,-6.403683472E0,-1.180445251E0,5.545368347E0,8.552878060E0
3.808768332E-1,-6.664590912E0,-1.383872223E0,5.797743530E0,8.941236178E0
3.909558333E-1,-6.656657410E0,-1.462608490E0,5.968388672E0,9.059358410E0
4.010348333E-1,-6.745123444E0,-1.489702148E0,6.036197662E0,9.173417301E0
4.111138333E-1,-6.953639832E0,-1.442400513E0,5.714815979E0,9.115522356E0
4.211928333E-1,-7.256909180E0,-1.481469269E0,5.283712463E0,9.098082184E0
4.312718333E-1,-7.546257477E0,-1.540147247E0,4.921765137E0,9.140121854E0
4.413508333E-1,-7.865393829E0,-1.676663361E0,4.641248474E0,9.285300615E0
4.514298333E-1,-8.109386444E0,-1.825903015E0,4.600084076E0,9.500360195E0
4.615088333E-1,-8.267457733E0,-1.946103058E0,4.721481628E0,9.717538950E0
4.715878332E-1,-8.357270966E0,-2.039359131E0,4.895719299E0,9.898031679E0
4.816668333E-1,-8.391100616E0,-2.175575867E0,5.113366699E0,1.006430419E1
4.917448333E-1,-8.354726257E0,-2.227966919E0,5.334456940E0,1.015980897E1
5.018238333E-1,-8.362360382E0,-2.175126801E0,5.422324219E0,1.020107091E1
5.119028332E-1,-8.476273499E0,-2.178270264E0,5.407954102E0,1.028776173E1
5.219818333E-1,-8.515791321E0,-2.204465790E0,5.190905457E0,1.021390575E1
5.320608333E-1,-8.525970154E0,-2.301164703E0,4.992118835E0,1.014439631E1
5.421398333E-1,-8.503816223E0,-2.498005371E0,4.859045563E0,1.010768247E1
5.522188332E-1,-8.514893188E0,-2.605182495E0,4.996759186E0,1.021067991E1
5.622978333E-1,-8.618777161E0,-2.641706543E0,5.441634064E0,1.052963981E1
5.723768333E-1,-8.819360046E0,-2.528990936E0,6.012247467E0,1.096923089E1
5.824558333E-1,-8.826844482E0,-2.255359955E0,6.354136505E0,1.110742467E1
5.925348332E-1,-8.821306000E0,-1.961670685E0,6.357279968E0,1.104891850E1
6.026138333E-1,-8.694819031E0,-1.640738068E0,6.094576263E0,1.074410346E1
6.126928333E-1,-8.571924591E0,-1.412612457E0,5.557792511E0,1.031321593E1
6.227718333E-1,-8.442144470E0,-1.300196228E0,5.006788330E0,9.900921314E0
6.328508332E-1,-8.513845367E0,-1.259031830E0,4.624034271E0,9.769975283E0
6.429298333E-1,-8.619824982E0,-1.361568604E0,4.532424774E0,9.833520535E0
6.530088333E-1,-8.656648407E0,-1.545835419E0,4.625082092E0,9.935721068E0
6.630878333E-1,-8.772058411E0,-1.714684296E0,4.766987000E0,1.012982310E1
6.731668332E-1,-8.910370789E0,-1.948947144E0,4.976251831E0,1.039019657E1
6.832458333E-1,-9.025481415E0,-2.144141235E0,5.169050903E0,1.061959244E1
6.933248333E-1,-9.141490173E0,-2.280657349E0,5.253625031E0,1.078743790E1
7.034038333E-1,-9.104367371E0,-2.298769684E0,5.007087708E0,1.064165281E1
7.134828332E-1,-8.993597717E0,-2.300865326E0,4.562512207E0,1.034385319E1
7.235608333E-1,-8.747509460E0,-2.120640106E0,4.245770874E0,9.952015200E0
7.336398333E-1,-8.580157471E0,-2.053429871E0,4.021986237E0,9.695981113E0
7.437188333E-1,-8.517288208E0,-1.897603912E0,3.991449738E0,9.595664127E0
7.537978332E-1,-8.471184082E0,-1.741328888E0,4.055815887E0,9.552111210E0
7.638768333E-1,-8.171806641E0,-1.902393951E0,4.468358002E0,9.505984944E0
7.739558333E-1,-8.109386444E0,-1.738933868E0,4.788841553E0,9.577005947E0
7.840348333E-1,-8.053552551E0,-1.700314178E0,4.788542175E0,9.522652633E0
7.941138332E-1,-7.895780640E0,-1.587897949E0,4.656217346E0,9.302963602E0
8.041928333E-1,-7.850874023E0,-1.446591797E0,4.505480804E0,9.166690135E0
8.142718333E-1,-7.845036163E0,-1.338815918E0,4.292174377E0,9.042111554E0
8.243508333E-1,-7.994724884E0,-1.275946655E0,4.213737488E0,9.126842250E0
8.344298332E-1,-8.151299286E0,-1.140029297E0,4.156556396E0,9.220645743E0
8.445088333E-1,-8.279881897E0,-1.050814819E0,4.230203247E0,9.357097601E0
8.545878333E-1,-8.377778320E0,-9.686357117E-1,4.289779358E0,9.461904230E0
8.646668333E-1,-8.503965912E0,-8.996292114E-1,4.449946289E0,9.639958035E0
8.747458333E-1,-8.563242645E0,-7.734416199E-1,4.597838745E0,9.750254236E0
8.848248333E-1,-8.571026459E0,-8.035290527E-1,4.511168976E0,9.718991667E0
8.949038333E-1,-8.477171631E0,-7.349716187E-1,4.515509949E0,9.632883900E0
9.049828333E-1,-8.443192291E0,-6.587800598E-1,4.516857147E0,9.598098026E0
9.150618333E-1,-8.447982330E0,-5.730084229E-1,4.608766022E0,9.640408101E0
9.251408332E-1,-8.472830658E0,-5.273533630E-1,4.768783264E0,9.736953053E0
9.352198333E-1,-8.471932526E0,-5.236111450E-1,4.881199493E0,9.791522754E0
9.452988333E-1,-8.397088165E0,-5.340893555E-1,4.961582336E0,9.767990601E0
9.553778333E-1,-8.305478668E0,-5.761518860E-1,5.000351715E0,9.711665366E0
9.654568332E-1,-8.251441040E0,-6.024971008E-1,5.204078064E0,9.774032458E0
9.755348333E-1,-8.247698822E0,-6.098318481E-1,5.521867218E0,9.944216828E0
9.856138333E-1,-8.344697113E0,-6.292913818E-1,5.843997345E0,1.020697225E1
9.956928333E-1,-8.493338013E0,-6.631210327E-1,6.091582489E0,1.047300804E1
1.005771833E0,-8.665180664E0,-7.903564453E-1,6.159541168E0,1.066067384E1
1.015850833E0,-8.831035767E0,-8.683442688E-1,6.159541168E0,1.080190547E1
1.025929833E0,-8.950487366E0,-8.779243469E-1,6.100563812E0,1.086732967E1
1.036008833E0,-9.094038849E0,-8.934919739E-1,6.059100037E0,1.096414902E1
1.046087833E0,-9.309291229E0,-8.631051636E-1,6.108796692E0,1.116804597E1
1.056166833E0,-9.555229797E0,-7.930508423E-1,6.177803192E0,1.140598958E1
1.066245833E0,-9.739646301E0,-7.105723572E-1,6.275549927E0,1.160810708E1
1.076324833E0,-9.927355957E0,-6.691085815E-1,6.348598022E0,1.180274542E1
1.086403833E0,-1.013856674E1,-6.759942627E-1,6.497388611E0,1.206082761E1
1.096482833E0,-1.023676254E1,-7.232958984E-1,6.559359741E0,1.217947719E1
1.106561833E0,-1.042297531E1,-8.155041504E-1,6.633305969E0,1.238160771E1
1.116640833E0,-1.058104660E1,-9.193881226E-1,6.824308777E0,1.262438165E1
1.126719833E0,-1.062834824E1,-1.052760773E0,6.950196991E0,1.274265787E1
1.136798833E0,-1.071157516E1,-1.267264709E0,7.108567657E0,1.291803145E1
1.146877833E0,-1.068987030E1,-1.351689148E0,7.220534821E0,1.297060190E1
1.156956833E0,-1.075887680E1,-1.551523590E0,7.354506226E0,1.312438255E1
1.167035833E0,-1.083626587E1,-1.604363708E0,7.550448761E0,1.330443225E1
1.177114833E0,-1.062221100E1,-1.245110779E0,7.690856781E0,1.317311449E1
1.187193833E0,-1.034783157E1,-8.996292114E-1,7.602241058E0,1.287171395E1
1.197272833E0,-1.006147705E1,-5.984555054E-1,7.248825989E0,1.241519020E1
1.207351833E0,-9.734856262E0,-3.827540588E-1,6.866371307E0,1.191893376E1
1.217430833E0,-9.522298279E0,-2.507286072E-1,6.569089508E0,1.157108320E1
1.227508833E0,-9.339079285E0,-1.854643250E-1,6.366860046E0,1.130441090E1
1.237587833E0,-9.313332825E0,-2.284249878E-1,6.188730469E0,1.118439677E1
1.247666833E0,-9.402247925E0,-4.373904419E-1,6.052813110E0,1.119062657E1
1.257745833E0,-9.523346100E0,-6.879693604E-1,5.935756531E0,1.124280340E1
1.267824833E0,-9.614057465E0,-9.363029480E-1,5.850583649E0,1.129318791E1
1.277903833E0,-9.701176300E0,-1.228495331E0,5.858517151E0,1.139930900E1
1.287982833E0,-9.741891632E0,-1.455722809E0,5.962850189E0,1.151430258E1
1.298062083E0,-9.753567352E0,-1.648521881E0,6.160888367E0,1.165359369E1
1.308141083E0,-9.758956146E0,-1.797013092E0,6.249803467E0,1.172717035E1
1.318220083E0,-9.751471710E0,-1.943708038E0,6.233786774E0,1.173581267E1
1.328299083E0,-9.792187042E0,-2.162253571E0,6.087091827E0,1.173094005E1
1.338378083E0,-9.841434631E0,-2.331401825E0,5.823340302E0,1.167049966E1
1.348457083E0,-9.844129028E0,-2.417323151E0,5.736221466E0,1.164708394E1
1.358536083E0,-9.871072998E0,-2.480940857E0,5.786367188E0,1.170791164E1
1.368615083E0,-9.812245331E0,-2.493215332E0,5.836512909E0,1.168593873E1
1.378694083E0,-9.774074707E0,-2.544708252E0,6.012696533E0,1.175417356E1
1.388773083E0,-9.747879181E0,-2.532433777E0,6.241720276E0,1.184877383E1
1.398852083E0,-9.718240814E0,-2.595153351E0,6.481222229E0,1.196600464E1
1.408931083E0,-9.647438049E0,-2.668949890E0,6.648424530E0,1.201656786E1
1.419010083E0,-9.611961823E0,-2.612816620E0,6.773414612E0,1.204557040E1
1.429089083E0,-9.466464386E0,-2.469714203E0,6.670578461E0,1.184103261E1
1.439168083E0,-9.141041107E0,-2.318528595E0,6.306834869E0,1.134505943E1
1.449247083E0,-8.832382965E0,-2.298170929E0,5.913303223E0,1.087472912E1
1.459326083E0,-8.592581635E0,-2.332000580E0,5.710325317E0,1.057726340E1
1.469405083E0,-8.351283417E0,-2.463127899E0,5.524411926E0,1.031164686E1
1.479483083E0,-8.065677338E0,-2.647544403E0,5.472769318E0,1.010028942E1
1.489562083E0,-7.686216431E0,-2.880310364E0,5.440735931E0,9.847625007E0
1.499641083E0,-7.254963226E0,-3.031645660E0,5.243446198E0,9.450877994E0
1.509720083E0,-6.858587494E0,-3.182980957E0,5.042863312E0,9.088567575E0
1.519799083E0,-6.588698730E0,-3.312910767E0,4.782105560E0,8.789474518E0
1.529878083E0,-6.311475220E0,-3.242257690E0,4.678071899E0,8.498900580E0
1.539957083E0,-6.205345917E0,-3.157084808E0,4.690046997E0,8.394643725E0
1.550036083E0,-6.064937897E0,-3.069217529E0,4.617148590E0,8.217154558E0
1.560115083E0,-5.985004120E0,-3.075654144E0,4.514611816E0,8.103187187E0
1.570194083E0,-5.961203613E0,-3.141068115E0,4.421804810E0,8.059442611E0
1.580273083E0,-5.865402832E0,-3.146606598E0,4.391717377E0,7.974413143E0
1.590352083E0,-5.841602325E0,-3.190914459E0,4.265679474E0,7.905837981E0
1.600431083E0,-5.743556213E0,-3.252137146E0,4.165986786E0,7.805144450E0
1.610510083E0,-5.636828156E0,-3.306623840E0,4.040547638E0,7.683333788E0
1.620589083E0,-5.513484650E0,-3.167263641E0,3.881578217E0,7.449612165E0
1.630668083E0,-5.423821106E0,-3.058140564E0,3.749253387E0,7.268215741E0
1.640747083E0,-5.347030792E0,-2.972518616E0,3.556005249E0,7.076141501E0
1.650826083E0,-5.393434296E0,-2.892135773E0,3.331472168E0,6.967947304E0
1.660905083E0,-5.796096954E0,-3.018473053E0,3.331771545E0,7.335299660E0
1.670984083E0,-6.503675537E0,-3.070564728E0,3.608396301E0,8.046532614E0
1.681063083E0,-6.899602203E0,-3.103795624E0,3.568579102E0,8.364975472E0
1.691142083E0,-7.296277313E0,-3.319646759E0,3.163521423E0,8.617632217E0
1.701221083E0,-7.562274170E0,-3.354973297E0,2.762505341E0,8.722113976E0
1.711300083E0,-7.661517792E0,-3.246299286E0,2.643053741E0,8.730581138E0
1.721379083E0,-7.830067291E0,-2.996468811E0,2.633174286E0,8.787626866E0
1.731458083E0,-8.230634308E0,-2.782863007E0,2.672392731E0,9.090068786E0
1.741536083E0,-8.615484009E0,-2.865191803E0,2.485132141E0,9.413382523E0
1.751615083E0,-8.869805145E0,-3.106340332E0,2.188000031E0,9.649359445E0
1.761694083E0,-8.896000671E0,-3.189866638E0,2.130220184E0,9.687719812E0
1.771773083E0,-8.886121216E0,-3.084635468E0,2.667453003E0,9.777189359E0
1.781852083E0,-8.792116699E0,-2.893033905E0,3.456462250E0,9.880186866E0
1.791931083E0,-8.579558716E0,-2.700234833E0,4.088897095E0,9.880241665E0
1.802010083E0,-8.326435089E0,-2.403102722E0,4.382736053E0,9.711477709E0
1.812089083E0,-8.208630066E0,-2.018702087E0,4.372108154E0,9.516937290E0
1.822168083E0,-8.209079132E0,-1.554517365E0,4.263434143E0,9.379892064E0
1.832247083E0,-8.352480927E0,-1.271306305E0,3.981270905E0,9.339736365E0
1.842326083E0,-8.705895996E0,-1.330882416E0,3.667223969E0,9.540042177E0
1.852405083E0,-9.237141266E0,-1.598525848E0,3.532653809E0,1.001796918E1
1.862484083E0,-9.854906616E0,-2.148781586E0,3.686084747E0,1.073888577E1
1.872563083E0,-1.062864761E1,-3.031645660E0,3.924987946E0,1.172879175E1
1.882642083E0,-1.105181763E1,-3.800895996E0,4.352798309E0,1.247142078E1
1.892721083E0,-1.130808472E1,-4.304448853E0,5.024301910E0,1.310132320E1
1.902800083E0,-1.133532806E1,-4.270170135E0,5.637426910E0,1.336056127E1
1.912879083E0,-1.161823975E1,-4.308191071E0,6.515201569E0,1.399970916E1
1.922958083E0,-1.157378220E1,-3.631148987E0,6.973698120E0,1.399178840E1
1.933037083E0,-1.116094070E1,-2.706970825E0,6.921007690E0,1.340875221E1
1.943116083E0,-1.083192490E1,-2.142045593E0,6.312972107E0,1.271898475E1
1.953195083E0,-1.058344162E1,-1.742077332E0,5.678441620E0,1.213625845E1
1.963274083E0,-1.021865021E1,-1.441203003E0,5.479804688E0,1.168443998E1
1.973353083E0,-9.807155914E0,-1.281634827E0,5.526058502E0,1.132961683E1
1.983432083E0,-9.437574463E0,-1.127904510E0,5.704936523E0,1.108540848E1
1.993510083E0,-9.122779083E0,-8.687933350E-1,5.919141083E0,1.090945146E1
2.003589083E0,-8.980275421E0,-5.397775269E-1,5.878425751E0,1.074674815E1
2.013668083E0,-8.855884094E0,-2.119592285E-1,5.547763367E0,1.045223843E1
2.023747083E0,-8.816815338E0,1.077758789E-1,5.130730591E0,1.020158050E1
2.033826083E0,-8.750353546E0,2.191442871E-1,4.659660187E0,9.916105307E0
2.043905083E0,-8.708141327E0,7.753875732E-2,4.312532043E0,9.717801719E0
2.053984083E0,-8.655899963E0,-1.896556091E-1,4.236789551E0,9.639033101E0
2.064063083E0,-8.688831482E0,-4.885839844E-1,4.370311890E0,9.738281822E0
2.074142083E0,-8.746611328E0,-7.485932922E-1,4.639302521E0,9.929085029E0
2.084221083E0,-8.792715454E0,-8.960366821E-1,5.011728058E0,1.016032209E1
2.094300083E0,-8.856782227E0,-9.988728333E-1,5.296436005E0,1.036786249E1
2.104379083E0,-8.994346161E0,-1.044228516E0,5.480104065E0,1.058396035E1
2.114458083E0,-9.161997528E0,-1.187181244E0,5.502407684E0,1.075305019E1
2.124537083E0,-9.481283569E0,-1.506916351E0,5.518723755E0,1.107347492E1
2.134616083E0,-9.711355133E0,-1.816322937E0,5.759273529E0,1.143585061E1
2.144695083E0,-9.864935760E0,-2.093396759E0,6.057004395E0,1.176378212E1
2.154774083E0,-1.004306534E1,-2.324067078E0,6.375841370E0,1.212088290E1
2.164853083E0,-1.004605911E1,-2.336790619E0,6.672973480E0,1.228464363E1
2.174932083E0,-9.893675995E0,-2.124981079E0,6.808890839E0,1.219677678E1
2.185011083E0,-9.667496338E0,-1.763931885E0,6.774312744E0,1.193579718E1
2.195090083E0,-9.408834229E0,-1.398242340E0,6.327042847E0,1.142421614E1
2.205169083E0,-9.324559479E0,-1.217118988E0,5.770051117E0,1.103278197E1
2.215248083E0,-9.521549835E0,-1.149459686E0,5.385949860E0,1.099952839E1
2.225327083E0,-9.683513031E0,-1.192120972E0,4.981490936E0,1.095476284E1
2.235406083E0,-9.735305328E0,-1.372346191E0,4.515659637E0,1.081899653E1
2.245485083E0,-9.864187317E0,-1.781295776E0,4.070485382E0,1.081869018E1
2.255563083E0,-9.862091675E0,-2.280058594E0,3.828588409E0,1.082208892E1
2.265642083E0,-9.760003967E0,-2.738704834E0,3.498075714E0,1.072355889E1
2.275721083E0,-9.427395630E0,-3.171005859E0,3.094514923E0,1.041667361E1
2.285800083E0,-8.927734680E0,-3.617227936E0,2.739752655E0,1.001474059E1
2.295878583E0,-8.502319336E0,-4.072131958E0,2.655328217E0,9.794001262E0
2.305957583E0,-8.076454926E0,-4.707111511E0,2.470911713E0,9.669096526E0
2.316036583E0,-7.617359619E0,-4.865631866E0,2.786006470E0,9.458349384E0
2.326115583E0,-7.179220734E0,-4.880750427E0,3.330723724E0,9.298207118E0
2.336194583E0,-6.912625122E0,-4.999004517E0,3.717669067E0,9.305670074E0
2.346273583E0,-6.562503204E0,-5.042414246E0,3.985911255E0,9.185852071E0
2.356352583E0,-6.397396545E0,-5.155878296E0,4.035009155E0,9.153745815E0
2.366431583E0,-6.146817627E0,-5.347779236E0,3.704945526E0,8.950348096E0
2.376510583E0,-5.729784851E0,-5.702092438E0,2.993175659E0,8.619941597E0
2.386589583E0,-5.403613129E0,-5.580694885E0,2.433938599E0,8.140469725E0
2.396668583E0,-5.225633240E0,-5.146447906E0,2.338736572E0,7.698237302E0
2.406747583E0,-5.018014984E0,-4.549938354E0,2.449955292E0,7.203103105E0
2.416826583E0,-4.896018677E0,-4.032314758E0,2.673739929E0,6.883272943E0
2.426905583E0,-4.720882874E0,-3.534300385E0,3.061284027E0,6.644507070E0
2.436984583E0,-4.606670380E0,-2.978206787E0,3.523522797E0,6.519688685E0
2.447063583E0,-4.479135590E0,-2.609822845E0,3.769012299E0,6.409312336E0
2.457142583E0,-4.073778534E0,-2.302960968E0,3.223696289E0,5.682562673E0
2.467221583E0,-3.587140503E0,-1.653760986E0,2.527643738E0,4.689507997E0
2.477300583E0,-3.034789124E0,-9.294172668E-1,1.550326080E0,3.532318281E0
2.487379583E0,-2.725083160E0,-1.140628052E-1,6.508465576E-1,2.804048822E0
2.497458583E0,-2.608325958E0,7.670050049E-1,2.805166626E-1,2.733194208E0
2.507536583E0,-2.483186188E0,1.618135071E0,1.338217163E-1,2.966897875E0
2.517615583E0,-2.644101562E0,2.183509369E0,-2.110610962E-2,3.429202780E0
2.527694583E0,-2.992726593E0,2.488724670E0,-2.294728088E-1,3.899079470E0
2.537773583E0,-3.487747192E0,2.429148560E0,-4.456233215E-1,4.273607767E0
2.547852583E0,-4.063450012E0,2.045945435E0,-7.138655090E-1,4.605119183E0
2.557931583E0,-5.059628448E0,1.334624634E0,-6.637197876E-1,5.274617228E0
2.568010583E0,-6.492748260E0,1.863624573E-1,1.851649475E-1,6.498061018E0
2.578089583E0,-8.077951813E0,-1.236279144E0,1.706301727E0,8.348242761E0
2.588168583E0,-1.060035645E1,-3.074905701E0,3.771557007E0,1.166392919E1
2.598247583E0,-1.383393219E1,-4.849465485E0,6.215674438E0,1.592261298E1
2.608326583E0,-1.696512085E1,-6.003715210E0,8.951235809E0,2.009936676E1
2.618405583E0,-1.985605911E1,-6.321504364E0,1.156195679E1,2.383072273E1
2.628484583E0,-2.251288422E1,-5.693260803E0,1.345851288E1,2.683979775E1
2.638563583E0,-2.521446625E1,-4.878505096E0,1.463791031E1,2.956074320E1
2.648642583E0,-2.784165298E1,-4.973258057E0,1.434272415E1,3.171127044E1
2.658721583E0,-3.023816940E1,-6.724316711E0,1.349413879E1,3.378838715E1
2.668800583E0,-3.209535736E1,-9.337133331E0,1.344908249E1,3.603015186E1
2.678879583E0,-3.286505676E1,-1.175041489E1,1.389665176E1,3.756728811E1
2.688958583E0,-3.195405121E1,-1.379186966E1,1.397224457E1,3.750334219E1
2.699037583E0,-2.988550278E1,-1.502350845E1,1.341091187E1,3.603750324E1
2.709116583E0,-2.711581238E1,-1.531899399E1,1.277159134E1,3.366084377E1
2.719195583E0,-2.408521454E1,-1.505838593E1,1.168350403E1,3.071411422E1
2.729274583E0,-2.020124130E1,-1.404020325E1,9.823022919E0,2.648979495E1
2.739353583E0,-1.618135071E1,-1.257070908E1,7.405849457E0,2.178773608E1
2.749432583E0,-1.239153168E1,-1.086201233E1,5.033283234E0,1.722983776E1
2.759511583E0,-8.931776276E0,-9.127419434E0,3.032693481E0,1.312568637E1
2.769590583E0,-6.144572296E0,-6.949598236E0,1.825603638E0,9.454391201E0
2.779668583E0,-4.025578766E0,-5.238506470E0,7.044351196E-1,6.644054731E0
2.789747583E0,-2.127825165E0,-3.944297791E0,-7.620652771E-1,4.545972776E0
2.799826583E0,-7.596702576E-1,-2.987038422E0,-2.715952148E0,4.108027934E0
2.809905583E0,-7.813751221E-2,-2.348166962E0,-4.892575836E0,5.427457219E0
2.819984583E0,2.059716797E-1,-2.000140686E0,-6.999444580E0,7.282527825E0
2.830063583E0,2.692900085E-1,-1.845063171E0,-8.579259338E0,8.779548167E0
2.840142583E0,4.393363953E-1,-1.938169556E0,-9.576485596E0,9.780521155E0
2.850221583E0,9.415420532E-1,-2.291285248E0,-1.019290375E1,1.048960325E1
2.860300583E0,1.631906433E0,-2.554887085E0,-1.016476227E1,1.060721257E1
2.870379583E0,2.170935516E0,-2.471510468E0,-8.978479156E0,9.562134331E0
2.880458583E0,2.351160736E0,-2.389031982E0,-7.325017548E0,8.055514428E0
2.890537583E0,2.217189331E0,-2.234104156E0,-5.507497101E0,6.343474933E0
2.900616583E0,1.768871613E0,-1.837728424E0,-3.622616730E0,4.430519666E0
2.910695583E0,1.149609375E0,-1.239123230E0,-2.014660492E0,2.629807026E0
2.920774583E0,3.731739807E-1,-6.938072205E-1,-7.445516968E-1,1.083967024E0
2.930853583E0,-1.133143616E-1,-5.538482666E-2,1.510359192E-1,1.967726415E-1
2.940932583E0,-1.766326904E-1,4.448748779E-1,4.785548401E-1,6.768511648E-1
2.951011583E0,-1.709445190E-1,7.102729797E-1,5.343887329E-1,9.051414542E-1
2.961090583E0,-2.145039368E-1,9.187893677E-1,6.613247681E-1,1.152187611E0
2.971169583E0,-2.228865051E-1,1.127305756E0,7.628137207E-1,1.379268441E0
2.981248583E0,-3.460803223E-1,1.263672180E0,9.297166443E-1,1.606552834E0
2.991327583E0,-5.502557373E-1,1.410217438E0,1.213526459E0,1.940139445E0
3.001406583E0,-7.223977661E-1,1.604513397E0,1.503323822E0,2.314369091E0
3.011485583E0,-8.943901062E-1,1.713337097E0,1.673819275E0,2.556780913E0
3.021564583E0,-1.126707001E0,1.718875580E0,1.835932159E0,2.755839041E0
3.031642583E0,-1.421593781E0,1.775607605E0,2.158062286E0,3.135433634E0
3.041721583E0,-1.784588928E0,1.832339630E0,2.534529419E0,3.600842337E0
3.051800583E0,-2.484683075E0,1.560355225E0,2.915786591E0,4.136444107E0
3.061879583E0,-3.506458282E0,1.048270111E0,3.217259674E0,4.872871815E0
3.071958583E0,-4.936135254E0,-1.308279419E-1,3.370690613E0,5.978637169E0
3.082037583E0,-7.028334503E0,-1.868863678E0,3.804937592E0,8.207782125E0
3.092116583E0,-9.708660736E0,-3.455115051E0,5.045857086E0,1.147417043E1
3.102195583E0,-1.283431091E1,-4.712200928E0,6.636299744E0,1.519752771E1
3.112274583E0,-1.609767471E1,-5.879922638E0,7.938292236E0,1.888716773E1
3.122353583E0,-1.857517273E1,-6.705455933E0,8.666827240E0,2.156650356E1
3.132432583E0,-1.986414230E1,-7.275021515E0,9.473499756E0,2.317881112E1
3.142511583E0,-1.973451187E1,-7.208260345E0,1.064316742E1,2.355179375E1
3.152590583E0,-1.941103455E1,-7.321724396E0,1.159878021E1,2.376820592E1
3.162669583E0,-2.004227188E1,-8.145012360E0,1.178783707E1,2.463710598E1
3.172748583E0,-2.105641296E1,-9.566456451E0,1.169473068E1,2.591633349E1
3.182827583E0,-2.120220978E1,-1.083866089E1,1.198138458E1,2.665640347E1
3.192906583E0,-1.992925690E1,-1.138697067E1,1.228031296E1,2.603160517E1
3.202985583E0,-1.742032425E1,-1.086410797E1,1.268013153E1,2.413052578E1
3.213064583E0,-1.436981781E1,-8.778495026E0,1.341345657E1,2.152845689E1
3.223143583E0,-1.194126801E1,-5.704337769E0,1.347812210E1,1.888896838E1
3.233222583E0,-1.015787659E1,-2.924169159E0,1.185789139E1,1.588530170E1
3.243301583E0,-8.559799805E0,-1.043480072E0,8.457263031E0,1.207825821E1
3.253380583E0,-7.393874359E0,-1.874102783E-1,4.546645203E0,8.681963099E0
3.263459583E0,-6.411616974E0,3.531156921E-1,1.330433350E0,6.557711172E0
3.273538583E0,-5.961652679E0,6.355783081E-1,-8.072712708E-1,6.049541252E0
3.283617583E0,-5.973178711E0,8.541238403E-1,-2.002535706E0,6.357557762E0
3.293696583E0,-5.930068359E0,1.026565247E0,-2.535128174E0,6.530422790E0
3.303774583E0,-5.925128632E0,1.073268127E0,-2.570005646E0,6.547059095E0
3.313853583E0,-5.921685791E0,1.002315674E0,-2.608325958E0,6.547851833E0
3.323932583E0,-6.047124939E0,7.499404907E-1,-2.821033630E0,6.714786781E0
3.334011583E0,-6.064937897E0,4.221221924E-1,-3.080294495E0,6.815414368E0
3.344090583E0,-5.993985443E0,-2.619552612E-2,-3.175346832E0,6.783168522E0
3.354169583E0,-6.049220581E0,-4.885839844E-1,-2.742896118E0,6.659974704E0
3.364248583E0,-6.338419189E0,-8.915460205E-1,-1.782493286E0,6.644373141E0
3.374327583E0,-6.968758392E0,-1.410217438E0,-3.303630066E-1,7.117685471E0
3.384406583E0,-7.685168610E0,-1.976938934E0,9.877958679E-1,7.996614583E0
3.394485583E0,-8.522078247E0,-2.634371796E0,2.294578400E0,9.210364946E0
3.404564583E0,-9.557175751E0,-3.275488586E0,3.784280548E0,1.078838325E1
3.414643583E0,-1.059466827E1,-3.904181213E0,5.036726074E0,1.236358509E1
3.424722583E0,-1.109612549E1,-4.119283905E0,5.915249176E0,1.323188095E1
3.434801583E0,-1.212478638E1,-4.931195526E0,6.645879822E0,1.467974293E1
3.444880583E0,-1.269330414E1,-5.354215851E0,6.749614105E0,1.534095460E1
3.454959583E0,-1.244227615E1,-5.590274963E0,6.633605347E0,1.516793097E1
3.465038583E0,-1.214289871E1,-5.961802368E0,6.579268341E0,1.504260112E1
3.475117583E0,-1.182241516E1,-6.056106262E0,6.816524963E0,1.493020214E1
3.485196583E0,-1.137798935E1,-5.766458588E0,7.168592834E0,1.463213619E1
3.495275583E0,-1.018302429E1,-5.160219269E0,6.776109009E0,1.327544726E1
3.505354583E0,-8.574918365E0,-4.486769714E0,5.695506134E0,1.122938634E1
3.515433583E0,-7.551945648E0,-4.048331451E0,4.698130188E0,9.772067226E0
3.525512583E0,-6.687642975E0,-3.524570618E0,3.806584167E0,8.463879112E0
3.535591583E0,-6.160738678E0,-3.202440491E0,2.934946747E0,7.538185363E0
3.545670583E0,-5.915698242E0,-3.057392120E0,2.024390259E0,6.959977600E0
3.555749583E0,-5.723048859E0,-2.939437408E0,1.057700500E0,6.520146537E0
3.565828583E0,-5.741759949E0,-2.883753204E0,3.894900513E-1,6.437044536E0
3.575906583E0,-5.966891785E0,-2.838846588E0,4.909790039E-2,6.607969289E0
3.585985583E0,-6.324647827E0,-2.763852539E0,8.652008057E-2,6.902719516E0
3.596064583E0,-6.791976013E0,-2.756517792E0,5.680686951E-1,7.352008606E0
3.606143583E0,-7.062164154E0,-2.819237366E0,1.191971283E0,7.696951176E0
3.616222583E0,-7.326963501E0,-2.849175110E0,1.933978271E0,8.095830094E0
3.626301583E0,-7.505242767E0,-2.875670013E0,2.625839539E0,8.455363996E0
3.636380583E0,-7.648195496E0,-2.730921021E0,3.134781189E0,8.705152328E0
3.646459583E0,-7.938292236E0,-2.382745056E0,3.753893738E0,9.098663409E0
3.656538583E0,-8.512348480E0,-1.817819824E0,4.487667847E0,9.793043871E0
3.666617583E0,-9.027577057E0,-1.077758789E0,5.122797089E0,1.043560068E1
3.676696583E0,-9.429341583E0,-2.017803955E-1,5.595214691E0,1.096629497E1
3.686775583E0,-9.826465759E0,4.878355408E-1,5.830225983E0,1.143629957E1
3.696854583E0,-1.028451324E1,9.354048157E-1,5.810018005E0,1.184915626E1
3.706933583E0,-1.071172485E1,1.248852997E0,5.768404541E0,1.223009297E1
3.717012583E0,-1.108145599E1,1.408570862E0,5.723497925E0,1.255154044E1
3.727091583E0,-1.135643417E1,1.398541718E0,5.507796478E0,1.269883216E1
3.737170583E0,-1.191986252E1,1.278790741E0,5.410349121E0,1.315257792E1
3.747249583E0,-1.269794449E1,1.289867706E0,5.706433411E0,1.398087748E1
3.757328583E0,-1.357482101E1,1.436562653E0,6.169420624E0,1.498002766E1
3.767407583E0,-1.437385941E1,1.538650360E0,6.553222504E0,1.587198804E1
3.777486583E0,-1.485495895E1,1.785936127E0,6.915918274E0,1.648300030E1
3.787565583E0,-1.500315079E1,2.140099640E0,7.182364197E0,1.677083526E1
3.797644583E0,-1.480196915E1,2.436782684E0,7.273674316E0,1.667160876E1
3.807723583E0,-1.438942703E1,2.528691559E0,7.371720428E0,1.636435619E1
3.817802583E0,-1.348336121E1,2.641856232E0,7.283254395E0,1.555076295E1
3.827881583E0,-1.269315445E1,2.479893036E0,7.117399292E0,1.476222924E1
3.837959583E0,-1.210652435E1,2.239343262E0,6.908583527E0,1.411775890E1
3.848038583E0,-1.154085068E1,1.866169281E0,6.524781647E0,1.338830078E1
3.858117583E0,-1.098550552E1,1.508413239E0,6.103557587E0,1.265741116E1
3.868196583E0,-1.030367340E1,1.177900543E0,5.681734772E0,1.182519536E1
3.878275583E0,-9.766290894E0,8.425978088E-1,5.383704529E0,1.118367933E1
3.888354583E0,-9.390572205E0,5.239105225E-1,5.408103790E0,1.084918961E1
3.898433583E0,-9.197623444E0,1.899549866E-1,5.536536713E0,1.073711314E1
3.908512583E0,-9.090745697E0,-9.011260986E-2,5.619314575E0,1.068767860E1
3.918591583E0,-8.901389465E0,-3.814068604E-1,5.487738190E0,1.046400860E1
3.928670583E0,-8.516839142E0,-6.120771790E-1,5.114115143E0,9.953158350E0
3.938749583E0,-8.239166565E0,-9.086105347E-1,4.748126221E0,9.552703355E0
3.948828583E0,-7.910450134E0,-1.252146149E0,4.452191620E0,9.163247324E0
3.958907583E0,-7.718100128E0,-1.603914642E0,4.313879242E0,8.986165249E0
3.968986583E0,-7.651937714E0,-1.995949402E0,4.331542511E0,9.016552851E0
3.979065583E0,-7.657925262E0,-2.309996338E0,4.349205780E0,9.104696224E0
3.989144583E0,-7.667655029E0,-2.633473663E0,4.251459045E0,9.154399008E0
3.999223583E0,-7.806566162E0,-2.978805542E0,4.130959625E0,9.320975546E0
4.009302583E0,-7.857759705E0,-3.200494537E0,3.950285339E0,9.359076190E0
4.019381583E0,-7.729925537E0,-3.385210419E0,3.814817047E0,9.260897769E0
4.029460583E0,-7.589218140E0,-3.559747467E0,3.753744049E0,9.184695334E0
4.039539583E0,-7.530091095E0,-3.750151520E0,3.742517395E0,9.207189841E0
4.049618583E0,-7.371870117E0,-3.994593201E0,3.789369965E0,9.201117790E0
4.059697583E0,-7.140451355E0,-4.253704376E0,3.956871643E0,9.205263694E0
4.069776583E0,-7.072642365E0,-4.435426483E0,4.245321808E0,9.365790696E0
4.079855583E0,-7.165599060E0,-4.617597656E0,4.501289520E0,9.640001315E0
4.089933583E0,-7.354955292E0,-4.771926727E0,4.590503998E0,9.896432639E0
4.100012583E0,-7.613617401E0,-4.889881439E0,4.533622284E0,1.012086169E1
4.110091583E0,-7.745044098E0,-4.941973114E0,4.598587189E0,1.027403574E1
4.120170583E0,-7.731871490E0,-4.851860504E0,4.852159882E0,1.033759366E1
4.130249583E0,-7.795339508E0,-4.784201202E0,5.178481293E0,1.051059312E1
4.140328583E0,-7.835905151E0,-4.789589996E0,5.598208466E0,1.075553438E1
4.150407583E0,-7.910300446E0,-4.660558319E0,6.104755096E0,1.102550188E1
4.160486583E0,-7.945327606E0,-4.473297729E0,6.549629974E0,1.122658791E1
4.170565583E0,-7.810158691E0,-4.180805969E0,6.868466949E0,1.120952968E1
4.180644583E0,-7.749235382E0,-3.911665649E0,7.142846375E0,1.124153155E1
4.190723583E0,-7.636370087E0,-3.690126343E0,7.046895905E0,1.102678205E1
4.200802583E0,-7.333549805E0,-3.321443024E0,6.477779388E0,1.033317774E1
4.210881583E0,-7.127877502E0,-3.051254883E0,5.495372314E0,9.503468363E0
4.220960583E0,-6.938072205E0,-2.861748962E0,4.432432709E0,8.716244189E0
4.231039583E0,-6.743177490E0,-2.742147675E0,3.379671936E0,8.025708625E0
4.241118583E0,-6.799610138E0,-2.764750671E0,2.454146576E0,7.739598163E0
4.251197583E0,-6.972949677E0,-2.770289154E0,1.823957062E0,7.721615670E0
4.261276583E0,-7.213649139E0,-2.783611450E0,1.511107635E0,7.878367401E0
4.271355583E0,-7.580835571E0,-2.894979858E0,1.527124329E0,8.257244398E0
4.281434583E0,-8.017926636E0,-2.911295929E0,1.712738342E0,8.700360001E0
4.291513583E0,-8.297096100E0,-3.007545776E0,1.754950562E0,8.998165744E0
4.301593375E0,-8.516539764E0,-3.270997925E0,1.659149780E0,9.272737189E0
4.311672375E0,-8.650361481E0,-3.528462524E0,1.630259857E0,9.483488216E0
4.321751375E0,-8.732241211E0,-3.736679535E0,1.848356323E0,9.676323249E0
4.331830375E0,-8.909772034E0,-3.814966736E0,2.257006531E0,9.951486691E0
4.341908375E0,-9.249415741E0,-3.857178955E0,2.716401215E0,1.038308030E1
4.351987375E0,-9.433532867E0,-3.781735840E0,3.002156982E0,1.059745323E1
4.362066375E0,-9.432934113E0,-3.523373108E0,3.154091034E0,1.055190477E1
4.372145375E0,-1.030157776E1,-3.507506104E0,3.423830109E0,1.140823019E1
4.382224375E0,-1.053658905E1,-2.701282654E0,3.230881348E0,1.134703622E1
4.392303375E0,-1.040261765E1,-2.233954468E0,2.904260559E0,1.102904057E1
4.402382375E0,-9.789642334E0,-2.485281830E0,2.632874908E0,1.043770823E1
4.412461375E0,-9.390572205E0,-2.298919373E0,2.943329315E0,1.010599149E1
4.422540375E0,-9.109756165E0,-2.629881134E0,3.600762177E0,1.014245633E1
4.432619375E0,-9.176217957E0,-2.575544128E0,4.210893402E0,1.041959821E1
4.442698375E0,-9.093589783E0,-2.509531403E0,4.192631378E0,1.032323984E1
4.452777375E0,-9.106163635E0,-2.544109497E0,3.983216858E0,1.025966500E1
4.462856375E0,-9.267528076E0,-2.525548096E0,3.881428528E0,1.036006550E1
4.472935375E0,-9.462123413E0,-2.344275055E0,3.925886078E0,1.050904308E1
4.483014375E0,-9.535620575E0,-2.097138977E0,3.893852692E0,1.051133390E1
4.493093375E0,-9.555080109E0,-1.871258698E0,3.695215759E0,1.041421070E1
4.503172375E0,-9.505533142E0,-1.602417755E0,3.477268982E0,1.024764864E1
4.513251375E0,-9.429341583E0,-1.404379578E0,3.243604889E0,1.007004158E1
4.523330375E0,-9.398356018E0,-1.232387238E0,3.094365234E0,9.971106777E0
4.533409375E0,-9.247619476E0,-1.038989410E0,2.963237915E0,9.766204171E0
4.543488375E0,-9.113947449E0,-9.927355957E-1,2.856060791E0,9.602429136E0
4.553567375E0,-9.033414917E0,-1.018931122E0,2.983745270E0,9.567838916E0
4.563646375E0,-8.886420593E0,-9.969268799E-1,3.174598389E0,9.488962488E0
4.573725375E0,-8.784033508E0,-9.491761780E-1,3.250789948E0,9.414234721E0
4.583804375E0,-8.713230743E0,-8.655001831E-1,3.322790222E0,9.365383890E0
4.593883375E0,-8.749156036E0,-7.870632935E-1,3.429218903E0,9.430097680E0
4.603961375E0,-8.902137909E0,-7.725434875E-1,3.488046570E0,9.592254775E0
4.614040375E0,-9.079519043E0,-8.554710388E-1,3.504063263E0,9.769746982E0
4.624119375E0,-9.329349518E0,-1.034498749E0,3.628753967E0,1.006353842E1
4.634198375E0,-9.629176025E0,-1.237626343E0,3.869902496E0,1.045126285E1
4.644277375E0,-9.870623932E0,-1.351240082E0,4.202660522E0,1.081283598E1
4.654356375E0,-1.013422577E1,-1.403780823E0,4.426295471E0,1.114743128E1
4.664435375E0,-1.036489609E1,-1.387764130E0,4.632416840E0,1.143749299E1
4.674514375E0,-1.044677582E1,-1.296753387E0,4.705614624E0,1.153080671E1
4.684593375E0,-1.038794815E1,-1.201850739E0,4.745880890E0,1.148378411E1
4.694672375E0,-1.029050079E1,-1.095871124E0,4.896168365E0,1.144848482E1
4.704751375E0,-1.029858398E1,-1.046773224E0,5.120551758E0,1.154887945E1
4.714830375E0,-1.036130356E1,-1.115929413E0,5.358556824E0,1.171819274E1
4.724909375E0,-1.039887543E1,-1.223555603E0,5.589975586E0,1.186935236E1
4.734988375E0,-1.042746597E1,-1.312770081E0,5.915548553E0,1.206022913E1
4.745067375E0,-1.033166519E1,-1.399739227E0,6.081553345E0,1.207012289E1
4.755146375E0,-1.051218979E1,-1.647623749E0,6.057603149E0,1.224399257E1
4.765225375E0,-1.080602875E1,-2.079026642E0,5.971981201E0,1.252027031E1
4.775304375E0,-1.097397949E1,-2.580334167E0,6.034102020E0,1.278658428E1
4.785383375E0,-1.095751373E1,-2.774630127E0,6.298452301E0,1.293971333E1
4.795462375E0,-1.073956696E1,-2.678230591E0,6.628066864E0,1.290125916E1
4.805541375E0,-1.125464584E1,-2.946622467E0,7.204069061E0,1.368386817E1
4.815620375E0,-1.095481934E1,-2.202220459E0,7.432344360E0,1.342004413E1
4.825699375E0,-1.049003586E1,-1.425785065E0,7.410040741E0,1.292216774E1
4.835778375E0,-1.036968613E1,-9.027726746E-1,7.143445129E0,1.262434938E1
4.845856375E0,-1.026789780E1,-4.402345276E-1,6.886279907E0,1.237111081E1
4.855935375E0,-1.016595978E1,-1.830693054E-1,6.605613556E0,1.212494878E1
4.866014375E0,-9.924062805E0,-1.044827271E-1,6.220913544E0,1.171314238E1
4.876093375E0,-9.866582336E0,-2.755769348E-1,5.753285980E0,1.142478399E1
4.886172375E0,-9.908195801E0,-6.351292419E-1,5.174140320E0,1.119586804E1
4.896251375E0,-1.008931915E1,-1.137035522E0,4.716990967E0,1.119541042E1
4.906330375E0,-1.059391983E1,-1.708247681E0,4.487967224E0,1.163147013E1
4.916409375E0,-1.114642090E1,-2.326013031E0,4.373904419E0,1.219770779E1
4.926488375E0,-1.158366165E1,-2.916085968E0,4.336781616E0,1.270796795E1
4.936567375E0,-1.190399551E1,-3.263064423E0,4.406237183E0,1.310601483E1
4.946646375E0,-1.204335571E1,-3.451522522E0,4.413721619E0,1.328293503E1
4.956725375E0,-1.204365509E1,-3.331621857E0,4.588558044E0,1.331180668E1
4.966804375E0,-1.180969162E1,-2.923420715E0,4.863386536E0,1.310220338E1
4.976883375E0,-1.143247604E1,-2.600242767E0,5.041067047E0,1.276225403E1
4.986962375E0,-1.100541412E1,-2.435136108E0,5.121150513E0,1.238043660E1
4.997041375E0,-1.072714279E1,-2.440075836E0,5.257516937E0,1.219290970E1
5.007120375E0,-1.054976166E1,-2.556683350E0,5.407355347E0,1.212739018E1
5.017199375E0,-1.021969803E1,-2.733316040E0,5.284909973E0,1.182554514E1
5.027278375E0,-9.803713074E0,-2.927612000E0,4.964276733E0,1.137223573E1
5.037357375E0,-9.498647461E0,-3.130739594E0,4.762047272E0,1.107713538E1
5.047436375E0,-9.185947723E0,-3.253783722E0,4.757556610E0,1.084449579E1
5.057515375E0,-8.955726471E0,-3.283272400E0,4.792733459E0,1.067498048E1
5.067594375E0,-8.762777710E0,-3.370840302E0,4.763693848E0,1.052813453E1
5.077673375E0,-8.533005524E0,-3.528013458E0,4.800217896E0,1.040678404E1
5.087752375E0,-8.095465393E0,-3.556005249E0,4.802014160E0,1.006186232E1
5.097830375E0,-7.764952698E0,-3.570075989E0,4.681963806E0,9.744779015E0
5.107909375E0,-7.454647980E0,-3.601660309E0,4.564458160E0,9.453994488E0
5.117988375E0,-7.142696686E0,-3.579656067E0,4.392765198E0,9.117479892E0
5.128067375E0,-6.897656250E0,-3.573369141E0,4.209097137E0,8.835334033E0
5.138146375E0,-6.698270874E0,-3.581003265E0,3.999832306E0,8.584234128E0
5.148225375E0,-6.542744293E0,-3.586392059E0,3.911815338E0,8.424488716E0
5.158304375E0,-6.351591797E0,-3.564687195E0,3.761228485E0,8.197350357E0
5.168383375E0,-6.175408173E0,-3.580254822E0,3.576512604E0,7.984067453E0
5.178462375E0,-5.992338867E0,-3.578608246E0,3.482657776E0,7.800222257E0
5.188541375E0,-5.749244385E0,-3.523373108E0,3.419339447E0,7.560413435E0
5.198620375E0,-5.568869476E0,-3.408561859E0,3.346141663E0,7.336706701E0
5.208699375E0,-5.373825073E0,-3.270997925E0,3.293900299E0,7.101211342E0
5.218778375E0,-5.192851410E0,-3.207380219E0,3.235970764E0,6.908292149E0
5.228857375E0,-5.046455841E0,-3.135679321E0,3.212319946E0,6.754124725E0
5.238936375E0,-5.023852844E0,-3.199446716E0,3.143463135E0,6.734754425E0
5.249015375E0,-5.066663818E0,-3.263663177E0,3.016676788E0,6.739652694E0
5.259094375E0,-5.243146820E0,-3.362457733E0,2.818788300E0,6.836832458E0
5.269173375E0,-5.352718964E0,-3.473077698E0,2.609523468E0,6.893727709E0
5.279252375E0,-5.478008423E0,-3.579207001E0,2.470163269E0,6.994355268E0
5.289331375E0,-5.816304932E0,-3.606300659E0,2.377655640E0,7.244863963E0
5.299410208E0,-6.092929688E0,-3.552263031E0,2.345771942E0,7.432698758E0
5.309489208E0,-6.330335999E0,-3.397185516E0,2.424957275E0,7.582508890E0
5.319568208E0,-6.558910675E0,-3.212769012E0,2.517913971E0,7.725353373E0
5.329647208E0,-6.815327454E0,-3.032543793E0,2.590063934E0,7.896419527E0
5.339725208E0,-7.286547546E0,-3.091221771E0,2.560126190E0,8.318874521E0
5.349804208E0,-7.952812042E0,-3.342399445E0,2.443518677E0,8.966026821E0
5.359883208E0,-8.539741516E0,-3.656147003E0,2.239343262E0,9.555587597E0
5.369962208E0,-8.916058960E0,-4.025279388E0,2.125579834E0,1.001084767E1
5.380041208E0,-9.170230408E0,-4.314028931E0,2.124981079E0,1.035468570E1
5.390120208E0,-9.455836487E0,-4.516557770E0,2.400857391E0,1.075063970E1
5.400199208E0,-9.674232330E0,-4.557572479E0,2.902613983E0,1.108094788E1
5.410278208E0,-9.795180817E0,-4.404590607E0,3.568579102E0,1.131727628E1
5.420357208E0,-9.682764587E0,-4.110152893E0,4.232598267E0,1.133861433E1
5.430436208E0,-9.682764587E0,-3.778742065E0,4.873265991E0,1.147970135E1
5.440515208E0,-9.758956146E0,-3.451821899E0,5.366340637E0,1.165975606E1
5.450594208E0,-9.817783813E0,-3.284918976E0,5.632038116E0,1.178556002E1
5.460673208E0,-9.882449341E0,-3.175197144E0,5.684129791E0,1.183444183E1
5.470752208E0,-9.955796814E0,-3.167712708E0,5.678591309E0,1.189111825E1
5.480831208E0,-1.018841309E1,-3.285817108E0,5.613476715E0,1.208765801E1
5.490910208E0,-1.052072205E1,-3.464844818E0,5.643863525E0,1.243157019E1
5.500989208E0,-1.100376755E1,-3.719465332E0,5.718707886E0,1.294685068E1
5.511068208E0,-1.154668854E1,-3.950734406E0,5.815855865E0,1.351882014E1
5.521147208E0,-1.197285233E1,-4.009711761E0,5.907315674E0,1.393999138E1
5.531226208E0,-1.226444595E1,-3.835025024E0,5.954916687E0,1.416280637E1
5.541305208E0,-1.252235962E1,-3.519630890E0,6.065836029E0,1.435240951E1
5.551384208E0,-1.251218079E1,-3.011587372E0,6.211034088E0,1.428990101E1
5.561463208E0,-1.224378891E1,-2.442919922E0,6.109096069E0,1.389961436E1
5.571542208E0,-1.175400742E1,-1.988165588E0,5.748346252E0,1.323453729E1
5.581621208E0,-1.123578506E1,-1.604064331E0,5.395529938E0,1.256692610E1
5.591700208E0,-1.072834030E1,-1.364412689E0,5.134472809E0,1.197170492E1
5.601778208E0,-1.033435959E1,-1.285676422E0,4.968468018E0,1.153852791E1
5.611857208E0,-1.002689896E1,-1.276545410E0,4.756808167E0,1.117119039E1
5.621936208E0,-9.638157349E0,-1.297651520E0,4.603526917E0,1.075966712E1
5.632015208E0,-9.309740295E0,-1.353036346E0,4.404590607E0,1.038760753E1
5.642094208E0,-9.103618927E0,-1.376387787E0,4.122876434E0,1.008803405E1
5.652173208E0,-8.947792969E0,-1.372046814E0,3.925886078E0,9.867020471E0
5.662252208E0,-8.779243469E0,-1.381028137E0,3.754941559E0,9.647898254E0
5.672331208E0,-8.389004974E0,-1.338666229E0,3.472778320E0,9.177560732E0
5.682410208E0,-7.999065857E0,-1.333576813E0,3.218906250E0,8.724954965E0
5.692489208E0,-7.847580872E0,-1.403481445E0,3.214265900E0,8.595684439E0
5.702568208E0,-7.843688965E0,-1.518592072E0,3.554957428E0,8.744558352E0
5.712647208E0,-7.818391571E0,-1.732347565E0,3.974684601E0,8.940156180E0
5.722726208E0,-7.749235382E0,-1.949096832E0,4.449646912E0,9.145981910E0
5.732805208E0,-7.730224915E0,-2.040406952E0,4.841382294E0,9.346583348E0
5.742884208E0,-7.847281494E0,-2.123484192E0,5.041516113E0,9.565871454E0
5.752963208E0,-7.885601807E0,-2.061213684E0,5.098996582E0,9.614108583E0
5.763042208E0,-8.104596405E0,-1.970502319E0,5.006938019E0,9.728144253E0
5.773121208E0,-8.391699371E0,-1.797911224E0,4.966671753E0,9.915691172E0
5.783200208E0,-8.691675568E0,-1.636546783E0,4.963079224E0,1.014177819E1
5.793279208E0,-8.939859467E0,-1.541344757E0,4.880600739E0,1.030131518E1
5.803358208E0,-9.212592316E0,-1.557361450E0,4.717889099E0,1.046688633E1
5.813437208E0,-9.543404388E0,-1.742975464E0,4.411925354E0,1.065737379E1
5.823516208E0,-9.885742493E0,-2.069446564E0,4.031117249E0,1.087476069E1
5.833595208E0,-1.018242554E1,-2.453398132E0,3.838617554E0,1.115508570E1
5.843673208E0,-1.055470139E1,-2.880310364E0,3.790567474E0,1.157870074E1
5.853752208E0,-1.090347610E1,-3.281326447E0,3.751798096E0,1.198869815E1
5.863831208E0,-1.105047043E1,-3.563190308E0,3.792064362E0,1.221429384E1
5.873910208E0,-1.108564728E1,-3.717369690E0,3.770509186E0,1.228524125E1
5.883989208E0,-1.079779587E1,-3.736080780E0,3.575464783E0,1.197224472E1
5.894068208E0,-1.032747391E1,-3.723506927E0,3.269950104E0,1.145485901E1
5.904147208E0,-9.869875488E0,-3.770958252E0,2.973267059E0,1.097610520E1
5.914226208E0,-9.386380920E0,-3.883224792E0,2.768792267E0,1.052852279E1
5.924305208E0,-8.859626312E0,-4.053271179E0,2.576741638E0,1.007777670E1
5.934384208E0,-8.352929993E0,-4.223018188E0,2.514620819E0,9.691678902E0
5.944463208E0,-7.970774689E0,-4.366719360E0,2.584824829E0,9.448957959E0
5.954542208E0,-7.747588806E0,-4.475992126E0,2.732417908E0,9.355519518E0
5.964621208E0,-7.560328217E0,-4.543651428E0,2.913690948E0,9.289398580E0
5.974700208E0,-7.291187897E0,-4.613705750E0,2.823129272E0,9.078422802E0
5.984779208E0,-7.039112091E0,-4.775818634E0,2.621199188E0,8.901023977E0
5.994858208E0,-6.665788422E0,-4.898413696E0,2.512375488E0,8.645184938E0
6.004937208E0,-6.365213470E0,-4.992567902E0,2.599793701E0,8.497093860E0
6.015016208E0,-6.199508057E0,-5.121449890E0,2.774929504E0,8.506666966E0
6.025095208E0,-5.908962250E0,-5.137616272E0,2.920726318E0,8.357127380E0
6.035174208E0,-5.537285156E0,-5.014123077E0,3.086880798E0,8.082808311E0
6.045253208E0,-5.237308960E0,-4.837340698E0,3.200943604E0,7.815069426E0
6.055332208E0,-4.868475952E0,-4.593797150E0,3.283122711E0,7.455462768E0
6.065411208E0,-4.535119171E0,-4.344565430E0,3.384162598E0,7.134080961E0
6.075489208E0,-4.346661072E0,-4.067491608E0,3.533252563E0,6.922559074E0
6.085568208E0,-4.048630829E0,-3.551514587E0,3.676504669E0,6.520839979E0
6.095647208E0,-3.841611328E0,-2.932701416E0,3.653302917E0,6.058492997E0
6.105726208E0,-3.547323303E0,-2.236349487E0,3.268902283E0,5.316999509E0
6.115805208E0,-3.271896057E0,-1.473685455E0,2.625989227E0,4.446669771E0
6.125884208E0,-3.062032471E0,-6.268963623E-1,1.903591461E0,3.659604125E0
6.135963208E0,-2.747087402E0,5.224136353E-2,1.223705292E0,3.007768774E0
6.146042208E0,-2.532433777E0,4.417314148E-1,6.189628601E-1,2.644137383E0
6.156121208E0,-2.448608093E0,6.554869080E-1,1.532812500E-1,2.539456600E0
6.166200208E0,-3.068169708E0,5.360353088E-1,-1.264869690E-1,3.117209997E0
6.176279208E0,-3.804787903E0,2.631527710E-1,7.933502197E-3,3.813885592E0
6.186358208E0,-4.671784973E0,-2.071691895E-1,3.668870544E-1,4.690746211E0
6.196437208E0,-5.711522827E0,-1.016386414E0,1.089883575E0,5.902743477E0
6.206516208E0,-7.414681091E0,-2.125579834E0,2.408641205E0,8.080664439E0
6.216595208E0,-9.984387360E0,-3.858825531E0,3.925137634E0,1.140110656E1
6.226674208E0,-1.232731522E1,-5.811215515E0,5.267246704E0,1.461084577E1
6.236753208E0,-1.422072784E1,-7.032525787E0,6.588998108E0,1.717848699E1
6.246832208E0,-1.589724152E1,-7.399562531E0,7.410639496E0,1.903663287E1
6.256911208E0,-1.713995728E1,-7.174730072E0,8.146808624E0,2.028855288E1
6.266990208E0,-1.858086090E1,-6.915319519E0,8.968300323E0,2.176006541E1
6.277069208E0,-2.091765152E1,-7.469018097E0,9.980046387E0,2.435027109E1
6.287148208E0,-2.365201538E1,-8.506211243E0,1.100870728E1,2.744020950E1
6.297226958E0,-2.573687988E1,-1.004291565E1,1.196671509E1,3.010729830E1
6.307305958E0,-2.768852142E1,-1.257834320E1,1.295660660E1,3.305665728E1
6.317383958E0,-2.749108200E1,-1.388377853E1,1.324161392E1,3.352400983E1
6.327462958E0,-2.556009750E1,-1.408256516E1,1.317185898E1,3.201773094E1
6.337541958E0,-2.326237564E1,-1.379845596E1,1.265678009E1,2.986184170E1
6.347620958E0,-2.102976837E1,-1.318592972E1,1.183573746E1,2.749917420E1
6.357699958E0,-1.896765656E1,-1.214439560E1,1.097233292E1,2.505295251E1
6.367778958E0,-1.699401077E1,-1.075678116E1,9.884095917E0,2.240982140E1
6.377857958E0,-1.485720428E1,-9.209897919E0,8.607550507E0,1.948457504E1
6.387936958E0,-1.260887970E1,-7.458839264E0,7.296726379E0,1.636643963E1
6.398015958E0,-1.025876678E1,-5.708678741E0,5.877527618E0,1.312922845E1
6.408094958E0,-7.922275543E0,-4.083957367E0,4.456083527E0,9.964830051E0
6.418173958E0,-5.839806061E0,-2.512974243E0,3.016676788E0,7.036953405E0
6.428252958E0,-4.170028381E0,-9.580078125E-1,1.374441833E0,4.493996665E0
6.438331958E0,-3.107687531E0,2.511776733E-1,-6.297404480E-1,3.180783715E0
6.448410958E0,-2.312541046E0,9.539662170E-1,-2.852917328E0,3.794342488E0
6.458489958E0,-1.574276276E0,1.205143890E0,-5.090614014E0,5.463064033E0
6.468568958E0,-8.024812317E-1,1.146316223E0,-7.079677734E0,7.216637294E0
6.478647958E0,2.754272461E-2,7.261399841E-1,-8.598269806E0,8.628921227E0
6.488726958E0,7.708969116E-1,1.184037781E-1,-9.300010529E0,9.332657571E0
6.498805958E0,1.188079376E0,-5.933660889E-1,-9.001980286E0,9.099410145E0
6.508884958E0,1.439556427E0,-1.091979218E0,-7.899223480E0,8.103238421E0
6.518963958E0,1.524579620E0,-1.429377594E0,-6.380930786E0,6.714442719E0
6.529042958E0,1.450783081E0,-1.588945770E0,-4.886139221E0,5.338902200E0
6.539121958E0,1.103654938E0,-1.577419739E0,-3.477268982E0,3.974632917E0
6.549200958E0,8.966354370E-1,-1.335672455E0,-2.412832489E0,2.899954592E0
6.559278958E0,7.473957825E-1,-9.430389404E-1,-1.761985931E0,2.133662888E0
6.569357958E0,4.173321533E-1,-3.760180664E-1,-1.219214630E0,1.342400844E0
6.579436958E0,1.068777466E-1,1.311273193E-1,-7.746391296E-1,7.928953322E-1
6.589515958E0,-2.320175171E-1,5.655239868E-1,-3.996688843E-1,7.303319279E-1
6.599594958E0,-5.671705627E-1,9.150471497E-1,6.301895142E-2,1.078408606E0
6.609673958E0,-7.994874573E-1,1.105600891E0,6.011499023E-1,1.490944241E0
6.619752958E0,-9.984237671E-1,1.148411865E0,1.328038330E0,2.019748904E0
6.629831958E0,-1.022523651E0,1.125509491E0,2.079026642E0,2.575786872E0
6.639910958E0,-1.052910461E0,9.788145447E-1,2.713856506E0,3.071109814E0
6.649989958E0,-1.034648438E0,8.972341919E-1,3.157234497E0,3.441461354E0
6.660068958E0,-1.144519958E0,8.768765259E-1,3.262166290E0,3.566590428E0
6.670147958E0,-1.841320953E0,5.496569824E-1,3.153941345E0,3.693227811E0
6.680226958E0,-3.089575195E0,-3.353027344E-1,2.982697449E0,4.307480340E0
6.690305958E0,-5.066963196E0,-1.808539124E0,3.137625275E0,6.228131514E0
6.700384958E0,-8.204738159E0,-3.724405060E0,3.933370514E0,9.831598289E0
6.710463958E0,-1.183783310E1,-5.420827332E0,5.155578918E0,1.400355867E1
6.720542958E0,-1.565070419E1,-6.566245422E0,6.245612183E0,1.808501568E1
6.730621958E0,-1.908171936E1,-8.091274109E0,6.939569092E0,2.185722649E1
6.740700958E0,-2.185769669E1,-9.859696655E0,8.174650726E0,2.533372134E1
6.750779958E0,-2.152059769E1,-9.395811310E0,9.509724426E0,2.533480321E1
6.760858958E0,-2.038595718E1,-9.236692200E0,1.134610565E1,2.509258549E1
6.770937958E0,-1.917347855E1,-9.414672089E0,1.222388031E1,2.461059893E1
6.781016958E0,-1.742720993E1,-9.557475128E0,1.224663300E1,2.334594176E1
6.791094958E0,-1.528725998E1,-9.380842438E0,1.181088913E1,2.147551221E1
6.801173958E0,-1.389320892E1,-9.506580963E0,1.091470276E1,2.006307733E1
6.811252958E0,-1.361838043E1,-1.006956024E1,1.049931656E1,1.992716681E1
6.821331958E0,-1.343171860E1,-1.014650024E1,1.066756668E1,1.992886125E1
6.831410958E0,-1.243479172E1,-9.340725861E0,1.090452393E1,1.899425826E1
6.841489958E0,-1.088745941E1,-7.542515259E0,1.085123474E1,1.712237146E1
6.851568958E0,-9.655970306E0,-5.396727448E0,9.865684204E0,1.482208334E1
6.861647958E0,-9.212742004E0,-3.683839417E0,7.524402924E0,1.245238642E1
6.871726958E0,-8.562494202E0,-2.215243378E0,4.675377502E0,1.000413739E1
6.881805958E0,-7.840246124E0,-1.221010895E0,1.646725616E0,8.103828240E0
6.891884958E0,-7.205266571E0,-5.602848816E-1,-9.586065674E-1,7.290316321E0
6.901963958E0,-6.723717957E0,1.945953369E-3,-2.363884277E0,7.127154820E0
6.912042958E0,-6.387966156E0,5.245092773E-1,-2.749332733E0,6.974242043E0
6.922121958E0,-6.062692566E0,9.297166443E-1,-2.590063934E0,6.658006111E0
6.932200958E0,-5.859564972E0,1.223854980E0,-2.094294891E0,6.341797361E0
6.942279958E0,-5.726342010E0,1.476080475E0,-1.723665619E0,6.159612776E0
6.952358958E0,-5.784870300E0,1.634301453E0,-1.491797791E0,6.193635950E0
6.962437958E0,-6.282884674E0,1.528172150E0,-1.245559845E0,6.584935024E0
6.972516958E0,-6.857389984E0,1.249601440E0,-1.025816803E0,7.045395750E0
6.982595958E0,-7.256460114E0,9.940827942E-1,-7.035369873E-1,7.357946607E0
6.992674958E0,-7.608228607E0,5.855822754E-1,-5.411247253E-1,7.649893144E0
7.002753958E0,-8.156837769E0,-9.834548950E-2,-1.541793823E-1,8.158887516E0
7.012831958E0,-8.951235809E0,-1.032852173E0,5.887257385E-1,9.029839651E0
7.022910958E0,-1.008078690E1,-2.184257813E0,1.566043396E0,1.043291611E1
7.032989958E0,-1.117411331E1,-3.256029053E0,2.531835022E0,1.191103363E1
7.043068958E0,-1.212418762E1,-4.175716553E0,3.537144470E0,1.330202711E1
7.053147958E0,-1.318862411E1,-5.122048645E0,4.626578979E0,1.488557763E1
7.063226958E0,-1.383632721E1,-5.753285980E0,5.615272980E0,1.600236048E1
7.073305958E0,-1.429197968E1,-6.515650635E0,6.472390594E0,1.698841447E1
7.083384958E0,-1.494043121E1,-7.633825378E0,7.383994904E0,1.833071617E1
7.093463958E0,-1.453148163E1,-7.841743011E0,8.028105469E0,1.836048390E1
7.103542958E0,-1.272099655E1,-6.878196716E0,8.266110535E0,1.665718844E1
7.113621958E0,-1.062191162E1,-5.618117065E0,8.023914185E0,1.444892538E1
7.123700958E0,-8.903634796E0,-4.461472321E0,7.160060577E0,1.226563962E1
7.133779958E0,-7.366930389E0,-3.660787354E0,5.952371979E0,1.015400215E1
7.143858958E0,-6.538702698E0,-3.285667419E0,4.885989532E0,8.799041827E0
7.153937958E0,-6.171516266E0,-2.994373169E0,4.036206665E0,7.958947665E0
7.164016958E0,-6.109694824E0,-2.981200562E0,3.029999084E0,7.442904143E0
7.174095958E0,-6.290219421E0,-3.057990875E0,1.871707764E0,7.240266467E0
7.184174958E0,-6.478378143E0,-3.132386169E0,6.279441833E-1,7.223263832E0
7.194253958E0,-6.482569427E0,-3.196602631E0,-5.161267090E-1,7.246265351E0
7.204332958E0,-6.701414337E0,-3.178639984E0,-1.208437042E0,7.514853715E0
7.214411958E0,-6.836732941E0,-3.233426056E0,-1.437311096E0,7.698170208E0
7.224490958E0,-7.030130768E0,-3.399580536E0,-1.217268677E0,7.903267012E0
7.234569958E0,-7.399263153E0,-3.608545990E0,-3.441343689E-1,8.239485896E0
7.244648958E0,-7.752827911E0,-3.833228760E0,9.467811584E-1,8.700366539E0
7.254726958E0,-7.987390137E0,-4.210893402E0,1.992506561E0,9.246626782E0
7.264805958E0,-8.123606873E0,-4.590204620E0,2.986739044E0,9.797120863E0
7.274884958E0,-8.181536407E0,-4.797972565E0,3.967499542E0,1.028100828E1
7.284963958E0,-8.286468201E0,-4.982538757E0,4.834945679E0,1.081054797E1
7.295042958E0,-8.418493652E0,-5.085225220E0,5.424569550E0,1.123194132E1
7.305123083E0,-8.479716339E0,-4.682861938E0,5.951324158E0,1.136895089E1
7.315202083E0,-8.720415802E0,-4.343667297E0,6.352789307E0,1.163060744E1
7.325281083E0,-8.928782501E0,-4.137695618E0,6.536307678E0,1.181384781E1
7.335360083E0,-9.197623444E0,-3.987258453E0,6.327791290E0,1.185476485E1
7.345439083E0,-9.420060883E0,-3.988455963E0,5.967640228E0,1.184305948E1
7.355518083E0,-9.484726410E0,-3.773203583E0,5.568570099E0,1.162781464E1
7.365597083E0,-8.911867676E0,-2.780767365E0,4.991520081E0,1.058628005E1
7.375676083E0,-8.875343628E0,-2.398761749E0,4.405937805E0,1.019500223E1
7.385755083E0,-9.255253601E0,-2.080373840E0,3.839066620E0,1.023357743E1
7.395834083E0,-9.405241699E0,-1.526974640E0,3.315754852E0,1.008882814E1
7.405913083E0,-9.479038239E0,-1.101110229E0,2.918031921E0,9.978953851E0
7.415992083E0,-9.873168640E0,-1.161734161E0,2.543959808E0,1.026161862E1
7.426071083E0,-1.002779709E1,-8.587641907E-1,2.445015564E0,1.035723378E1
7.436150083E0,-1.055919205E1,-4.005670166E-1,2.752176819E0,1.091931627E1
7.446229083E0,-1.130449219E1,9.864486694E-2,3.209924927E0,1.175180380E1
7.456308083E0,-1.195938034E1,5.330415344E-1,3.908073120E0,1.259301183E1
7.466387083E0,-1.234991821E1,8.699908447E-1,4.441114655E0,1.315297926E1
7.476466083E0,-1.263791931E1,8.828640747E-1,4.893923035E0,1.358112426E1
7.486544083E0,-1.300884796E1,7.644602966E-1,5.288652191E0,1.406358300E1
7.496623083E0,-1.289119263E1,9.891430664E-1,5.361251221E0,1.399658051E1
7.506702083E0,-1.249272125E1,1.552122345E0,4.871619415E0,1.349851265E1
7.516781083E0,-1.236368958E1,9.732760620E-1,5.016368408E0,1.337804314E1
7.526860083E0,-1.212957642E1,6.023474121E-1,5.501958618E0,1.333270397E1
7.536939083E0,-1.227627136E1,1.110241241E0,6.337071991E0,1.385994068E1
7.547018083E0,-1.272369095E1,1.195414124E0,7.396269379E0,1.476570781E1
7.557097083E0,-1.312650330E1,2.695744171E0,8.099656677E0,1.565811495E1
7.567176083E0,-1.241727814E1,3.619772644E0,8.202193451E0,1.531559753E1
7.577255083E0,-1.153216873E1,2.764900360E0,7.953111420E0,1.427892051E1
7.587334083E0,-1.236832993E1,1.513203278E0,7.199877777E0,1.439109479E1
7.597413083E0,-1.184606598E1,1.106648712E0,7.186854858E0,1.389981415E1
7.607492083E0,-1.102607117E1,9.375004578E-1,7.449259186E0,1.333958826E1
7.617571083E0,-1.030322433E1,7.563771057E-1,7.650440826E0,1.285526285E1
7.627650083E0,-9.826316071E0,7.243437195E-1,8.172555084E0,1.280124283E1
7.637729083E0,-1.020667511E1,8.017327881E-1,8.496780853E0,1.330467125E1
7.647808083E0,-1.039827667E1,1.483864288E0,8.826545105E0,1.371983635E1
7.657887083E0,-1.015742752E1,1.714534607E0,9.015751648E0,1.368929292E1
7.667966083E0,-9.536219330E0,2.245630188E0,9.173224182E0,1.342126581E1
7.678045083E0,-8.674012299E0,2.944077759E0,9.405092010E0,1.312866478E1
7.688124083E0,-8.823251953E0,2.177821198E0,9.320218506E0,1.301764776E1
7.698203083E0,-9.892478485E0,1.651216278E0,9.310638428E0,1.368486879E1
7.708281083E0,-1.078881454E1,1.355131989E0,9.658664703E0,1.454388895E1
7.718360083E0,-1.141047180E1,1.144969025E0,9.971364441E0,1.519664205E1
7.728439083E0,-1.145747406E1,9.542655945E-1,9.775122528E0,1.509096932E1
7.738518083E0,-1.025143204E1,1.286574554E0,9.400900726E0,1.396868166E1
7.748597083E0,-8.493637390E0,2.163151703E0,8.623417511E0,1.229570783E1
7.758676083E0,-7.983498230E0,1.963167572E0,7.604935455E0,1.119934436E1
7.768755083E0,-7.636669464E0,2.220033417E0,7.783813477E0,1.112811849E1
7.778834083E0,-7.486531677E0,2.694696350E0,8.215964813E0,1.143729088E1
7.788913083E0,-7.202422485E0,2.686463470E0,8.078999634E0,1.115178061E1
7.798992083E0,-6.834337921E0,2.623893585E0,7.900121613E0,1.077055773E1
7.809071083E0,-6.218518524E0,2.811453552E0,7.203170929E0,9.922696969E0
7.819150083E0,-5.226531372E0,2.803669739E0,6.278244324E0,8.636755524E0
7.829229083E0,-4.183799744E0,2.693349152E0,5.447771301E0,7.378111012E0
7.839308083E0,-3.548969879E0,2.709665222E0,4.839735718E0,6.584870131E0
7.849387083E0,-3.403622131E0,2.563868408E0,4.626878357E0,6.290156449E0
7.859466083E0,-3.735482025E0,2.461481323E0,4.483925629E0,6.333901271E0
7.869545083E0,-4.710105286E0,2.671943665E0,4.435127106E0,6.999623361E0
7.879624083E0,-5.477110291E0,3.238665161E0,4.400848389E0,7.736611384E0
7.889703083E0,-5.822442169E0,3.667074280E0,4.338727570E0,8.134668002E0
7.899782083E0,-5.543123016E0,3.974983978E0,4.264032898E0,8.044170993E0
7.909861083E0,-4.639302521E0,4.057911530E0,4.079915771E0,7.391582142E0
7.919939083E0,-3.612138519E0,4.027524719E0,3.933220825E0,6.688701377E0
7.930018083E0,-3.169209595E0,4.187841339E0,4.028123474E0,6.618737286E0
7.940097083E0,-3.000959473E0,4.569996643E0,3.798650665E0,6.657354876E0
7.950176083E0,-2.494113464E0,4.795278168E0,3.254232788E0,6.309146196E0
7.960255083E0,-1.969454498E0,4.964276733E0,2.712359619E0,5.989965710E0
7.970334083E0,-1.974394226E0,5.179978180E0,2.348765717E0,6.020557025E0
7.980413083E0,-2.179168396E0,5.310057678E0,2.108515320E0,6.114844585E0
7.990492083E0,-2.730172577E0,5.511538696E0,1.784888306E0,6.404430292E0
8.000571083E0,-3.455414429E0,6.043083344E0,1.675465851E0,7.160023114E0
8.010650083E0,-3.771557007E0,6.277196503E0,1.864223328E0,7.556663735E0
8.020729083E0,-3.648662567E0,6.128405914E0,2.035916290E0,7.417213272E0
8.030808083E0,-3.231480103E0,5.750292206E0,2.092947693E0,6.920170095E0
8.040887083E0,-2.800226898E0,5.388344879E0,2.030078430E0,6.402870423E0
8.050966083E0,-2.392624512E0,5.560486908E0,2.183209991E0,6.435065856E0
8.061045083E0,-1.885778503E0,6.176755371E0,2.939886475E0,7.095872037E0
8.071124083E0,-1.698068848E0,6.325545959E0,3.408262482E0,7.383239305E0
8.081203083E0,-1.845212860E0,6.393205261E0,3.732488251E0,7.629505394E0
8.091282083E0,-1.572779388E0,6.533313904E0,4.034859467E0,7.838234271E0
8.101361083E0,-1.649420013E0,6.345454559E0,4.055965576E0,7.709490042E0
8.111440083E0,-3.153342590E0,5.556445312E0,5.027744751E0,8.129936733E0
8.121519083E0,-3.263663177E0,5.951623535E0,5.060975647E0,8.466805451E0
8.131598083E0,-1.188827820E0,7.322921906E0,4.420756989E0,8.636063291E0
8.141676083E0,-1.588047638E0,7.039710846E0,4.698878632E0,8.611555289E0
8.151755083E0,-1.204545135E0,6.526278534E0,4.946763153E0,8.277300658E0
8.161834083E0,-8.821156311E-1,6.284082184E0,5.135221252E0,8.163229397E0
8.171913083E0,-5.782475281E-1,6.626569977E0,5.138065338E0,8.405088654E0
8.181992083E0,-3.068618774E-1,6.958130493E0,4.846920776E0,8.485421921E0
8.192071083E0,-6.586303711E-3,7.062613220E0,3.942501526E0,8.088502158E0
8.202150083E0,2.318678284E-1,7.042255554E0,3.202889557E0,7.739872576E0
8.212229083E0,4.317022705E-1,7.175328827E0,3.004552002E0,7.790959078E0
8.222308083E0,1.104702759E-1,7.399412842E0,3.255879364E0,8.084816913E0
8.232387083E0,-4.465214539E-1,7.749684448E0,3.814068604E0,8.648936916E0
8.242466083E0,-7.836204529E-1,8.239166565E0,4.635709991E0,9.486186474E0
8.252545083E0,-1.321452026E0,8.078849945E0,5.582341461E0,9.908409967E0
8.262624083E0,-1.132245483E0,7.359146576E0,5.886059875E0,9.491297015E0
8.272703083E0,-7.274871826E-2,7.239096222E0,5.476511536E0,9.077553915E0
8.282782083E0,2.110610962E-1,7.336393890E0,5.013823700E0,8.888512260E0
8.292861083E0,1.188528442E-1,7.482190704E0,4.656367035E0,8.813572357E0
8.302938958E0,2.342628479E-1,7.899822235E0,4.186943207E0,8.943856207E0
8.313017958E0,2.447410583E-1,8.030650177E0,4.170926514E0,9.052506196E0
8.323096958E0,7.813751221E-2,7.957602081E0,4.575235748E0,9.179450883E0
8.333175958E0,-1.272354126E-1,7.968529358E0,5.107079773E0,9.465511755E0
8.343254958E0,-2.550695801E-1,7.941286011E0,5.716312866E0,9.788019043E0
8.353332958E0,-2.993774414E-3,7.842790833E0,6.139033813E0,9.959774755E0
8.363411958E0,1.074765015E-1,7.662266235E0,6.247109070E0,9.886771303E0
8.373490958E0,2.243833923E-1,7.815547485E0,6.190676422E0,9.972843374E0
8.383569958E0,2.345622253E-1,7.801925812E0,5.999074860E0,9.844489067E0
8.393648958E0,-1.586700439E-1,7.662864990E0,5.749843140E0,9.581511998E0
8.403727958E0,-5.388793945E-2,8.059091034E0,5.436694336E0,9.721599534E0
8.413806958E0,-8.906478882E-2,8.068820801E0,5.492228851E0,9.761064461E0
8.423885958E0,-1.848655701E-1,8.058342590E0,5.637726288E0,9.836412877E0
8.433964958E0,-1.460961914E-1,7.942932587E0,5.873935089E0,9.880011923E0
8.444043958E0,7.185058594E-3,7.772736511E0,6.078559570E0,9.867338595E0
8.454122958E0,2.155517578E-1,7.629035339E0,6.188880157E0,9.826030754E0
8.464201958E0,2.546205139E-1,7.490423584E0,6.244414673E0,9.755203313E0
8.474280958E0,3.049159241E-1,7.355104980E0,6.371799774E0,9.736034889E0
8.484359958E0,3.104544067E-1,7.331454163E0,6.242468719E0,9.634055106E0
8.494438958E0,2.436932373E-1,7.544311523E0,6.014043732E0,9.651152510E0
8.504517958E0,1.865121460E-1,7.590864716E0,5.743406525E0,9.520647689E0
8.514596958E0,3.532653809E-2,7.655829620E0,5.673202515E0,9.528809050E0
8.524675958E0,1.856140137E-2,7.699987793E0,5.730832672E0,9.598572793E0
8.534754958E0,6.122268677E-2,7.663164368E0,5.861361237E0,9.647973460E0
8.544833958E0,1.124162292E-1,7.588320007E0,6.106401672E0,9.740809993E0
8.554912958E0,1.155596924E-1,7.386689301E0,6.349645844E0,9.741382613E0
8.564990958E0,1.079255676E-1,7.244634705E0,6.538852386E0,9.759762828E0
8.575069958E0,1.764830017E-1,7.245233459E0,6.633006592E0,9.824526990E0
8.585148958E0,1.766326904E-1,7.369026031E0,6.460714874E0,9.801764150E0
8.595227958E0,1.061293030E-1,7.521708527E0,6.315217438E0,9.821880363E0
8.605306958E0,-3.535647583E-1,7.175478516E0,6.304140472E0,9.557964588E0
8.615385958E0,-3.574566650E-1,7.105274506E0,6.284082184E0,9.492227871E0
8.625464958E0,-9.056167603E-2,7.348368988E0,6.305936737E0,9.683571982E0
8.635543958E0,-9.460327148E-2,7.431146851E0,6.348448334E0,9.774133698E0
8.645622958E0,-1.360670471E-1,7.387587433E0,6.475234680E0,9.824643835E0
8.655701958E0,-8.592132568E-2,7.341632996E0,6.690487061E0,9.933255993E0
8.665780958E0,-7.499404907E-2,7.398215332E0,6.749314728E0,1.001461250E1
8.675859958E0,-5.388793945E-2,7.383246460E0,6.663094025E0,9.945453945E0
8.685938958E0,2.859054565E-2,7.367229767E0,6.635551300E0,9.915010485E0
8.696017958E0,6.481521606E-2,7.430997162E0,6.697522430E0,1.000403551E1
8.706096958E0,4.535568237E-2,7.410190430E0,6.662046204E0,9.964729749E0
8.716175958E0,4.999603271E-2,7.425009613E0,6.606362000E0,9.938676281E0
8.726254958E0,2.035766602E-2,7.467072144E0,6.491850128E0,9.894528737E0
8.736333958E0,-3.143463135E-3,7.488627319E0,6.492448883E0,9.911177605E0
8.746412958E0,4.326004028E-2,7.324269104E0,6.538852386E0,9.818522286E0
8.756491958E0,1.486408997E-1,7.262148285E0,6.573430481E0,9.796472841E0
8.766570958E0,2.103126526E-1,7.314389648E0,6.530619507E0,9.807829448E0
8.776648958E0,8.472381592E-2,7.339687042E0,6.528823242E0,9.823630537E0
8.786727958E0,-3.577560425E-2,7.384144592E0,6.595734100E0,9.901039318E0
8.796806958E0,-2.484832764E-2,7.400011597E0,6.553372192E0,9.884709210E0
8.806885958E0,-4.490661621E-4,7.394473114E0,6.533762970E0,9.867537250E0
8.816964958E0,7.140151978E-2,7.350464630E0,6.467750244E0,9.791129745E0
8.827043958E0,1.115180969E-1,7.309599609E0,6.460565186E0,9.756105025E0
8.837122958E0,5.822891235E-2,7.214098206E0,6.629114685E0,9.797538723E0
8.847201958E0,6.436614990E-2,7.232060852E0,6.699917450E0,9.858790038E0
8.857280958E0,6.032455444E-2,7.220385132E0,6.688990173E0,9.842773493E0
8.867359958E0,-2.409988403E-2,7.182813263E0,6.669380951E0,9.801736042E0
8.877438958E0,-1.233435059E-1,7.247329102E0,6.608307953E0,9.808604729E0
8.887517958E0,-2.272274780E-1,7.306007080E0,6.506070557E0,9.785618318E0
8.897596958E0,-2.083666992E-1,7.332352295E0,6.435267792E0,9.758046854E0
8.907675958E0,-9.415420532E-2,7.283104706E0,6.441704407E0,9.723581379E0
8.917754958E0,2.095642090E-2,7.235354004E0,6.481222229E0,9.713754594E0
8.927833958E0,8.173004150E-2,7.219636688E0,6.612199860E0,9.790353451E0
8.937912958E0,9.774673462E-2,7.194339294E0,6.759942627E0,9.872431141E0
8.947991958E0,1.294807434E-1,7.186854858E0,6.854396210E0,9.932290542E0
8.958070958E0,1.916015625E-1,7.152875519E0,6.918013916E0,9.952851646E0
8.968149958E0,1.624122620E-1,7.165898438E0,6.860234070E0,9.921657606E0
8.978228958E0,1.225950623E-1,7.205116882E0,6.752308502E0,9.875343485E0
8.988307958E0,1.386117554E-1,7.231761475E0,6.623875580E0,9.807819072E0
8.998385958E0,1.492396545E-1,7.248676300E0,6.539600830E0,9.763808662E0
9.008464958E0,1.618135071E-1,7.263196106E0,6.532415771E0,9.769987569E0
9.018543958E0,1.196012878E-1,7.307803345E0,6.569388885E0,9.827266381E0
9.028622958E0,1.496887207E-3,7.417674866E0,6.642586670E0,9.957201430E0
9.038701958E0,1.194515991E-1,7.238946533E0,6.493197327E0,9.725133784E0
9.048780958E0,-1.407073975E-2,7.357200623E0,6.469097443E0,9.796827074E0
9.058859958E0,5.149291992E-2,7.306007080E0,6.553372192E0,9.814635911E0
9.068938958E0,1.811233521E-2,7.302713928E0,6.559808807E0,9.816366454E0
9.079017958E0,4.505630493E-2,7.306755524E0,6.680158539E0,9.900263858E0
9.089096958E0,8.831634521E-2,7.265591125E0,6.699917450E0,9.883597929E0
9.099175958E0,9.550140381E-2,7.308851166E0,6.658303986E0,9.887438386E0
9.109254958E0,1.654060364E-1,7.347770233E0,6.549180908E0,9.844229636E0
9.119333958E0,1.868115234E-1,7.348219299E0,6.497538300E0,9.810669160E0
9.129412958E0,1.672023010E-1,7.313790894E0,6.533014526E0,9.808148278E0
9.139491958E0,7.005432129E-2,7.307354279E0,6.528523865E0,9.799181497E0
9.149570958E0,1.008901978E-1,7.295229492E0,6.472540283E0,9.753170248E0
9.159649958E0,5.074447632E-2,7.264094238E0,6.466103668E0,9.725231964E0
9.169728958E0,4.505630493E-2,7.231911163E0,6.540199585E0,9.750732268E0
9.179807958E0,9.550140381E-2,7.197183380E0,6.572981415E0,9.747443450E0
9.189886958E0,9.804611206E-2,7.187004547E0,6.506070557E0,9.694926585E0
9.199965958E0,4.400848389E-2,7.237000580E0,6.554719391E0,9.764243976E0
9.210044958E0,2.799179077E-2,7.250771942E0,6.605164490E0,9.808296245E0
9.220122958E0,2.305206299E-2,7.242838440E0,6.593189392E0,9.794354824E0
9.230201958E0,6.795867920E-2,7.242539063E0,6.599775696E0,9.798776949E0
9.240280958E0,1.011895752E-1,7.235054626E0,6.559060364E0,9.766141901E0
9.250359958E0,1.151106262E-1,7.239994354E0,6.550977173E0,9.764531255E0
9.260438958E0,1.432521057E-1,7.249724121E0,6.585704956E0,9.795434180E0
9.270517958E0,1.884580994E-1,7.237449646E0,6.537205811E0,9.754550407E0
9.280596958E0,1.950444031E-1,7.190746765E0,6.450236664E0,9.661802853E0
9.290675958E0,1.703457642E-1,7.162156219E0,6.401737518E0,9.607691848E0
9.300754875E0,1.161584473E-1,7.162754974E0,6.439159698E0,9.632306537E0
9.310833875E0,1.945953369E-2,7.160509644E0,6.520440674E0,9.684493978E0
9.320912875E0,-1.437011719E-2,7.202422485E0,6.515351257E0,9.712100605E0
9.330991875E0,-2.754272461E-2,7.205416260E0,6.464457092E0,9.680288610E0
9.341070875E0,-8.891510010E-2,7.206464081E0,6.498885498E0,9.704459962E0
9.351149875E0,-1.465452576E-1,7.249125366E0,6.546486511E0,9.768714333E0
9.361228875E0,-8.262817383E-2,7.275769958E0,6.678362274E0,9.876445645E0
9.371307875E0,-5.074447632E-2,7.288044434E0,6.777905273E0,9.952796922E0
9.381386875E0,5.239105225E-3,7.294481049E0,6.780599670E0,9.959217495E0
9.391465875E0,9.445358276E-2,7.272027740E0,6.796017609E0,9.953751266E0
9.401544875E0,1.496887207E-1,7.254514160E0,6.755901031E0,9.914261504E0
9.411623875E0,1.540296936E-1,7.250322876E0,6.698719940E0,9.872373362E0
9.421702875E0,7.379653931E-2,7.282056885E0,6.710395660E0,9.902686924E0
9.431780875E0,2.574645996E-2,7.290289764E0,6.737788696E0,9.927073297E0
9.441859875E0,5.014572144E-2,7.267986145E0,6.681056671E0,9.872317633E0
9.451938875E0,6.227050781E-2,7.246131592E0,6.639143829E0,9.827946451E0
9.462017875E0,7.574249268E-2,7.276817780E0,6.616241455E0,9.835266388E0
9.472096875E0,8.217910767E-2,7.250771942E0,6.626420288E0,9.822926906E0
9.482175875E0,2.874023438E-2,7.239844666E0,6.666985931E0,9.841995641E0
9.492254875E0,-3.652404785E-2,7.270680542E0,6.691983948E0,9.881638463E0
9.502333875E0,-2.155517578E-2,7.280110931E0,6.614594879E0,9.836327832E0
9.512412875E0,1.676513672E-2,7.248975677E0,6.603966980E0,9.806136309E0
9.522491875E0,5.239105225E-3,7.236850891E0,6.636449432E0,9.819088519E0
9.532570875E0,5.194198608E-2,7.244035950E0,6.619085541E0,9.812800222E0
9.542649875E0,5.388793945E-3,7.228618011E0,6.691834259E0,9.850563088E0
9.552728875E0,-9.729766846E-3,7.218588867E0,6.730304260E0,9.869402988E0
9.562807875E0,-2.005828857E-2,7.211703186E0,6.683451691E0,9.832476376E0
9.572886875E0,7.484436035E-4,7.228618011E0,6.617289276E0,9.800073279E0
9.582965875E0,-7.185058594E-3,7.223528595E0,6.604266357E0,9.787530389E0
9.593044875E0,-6.316864014E-2,7.209308167E0,6.602021027E0,9.775724840E0
9.603123875E0,-1.407073975E-2,7.196584625E0,6.634054413E0,9.787834603E0
9.613202875E0,2.874023438E-2,7.164401550E0,6.618935852E0,9.753962651E0
9.623281875E0,5.119354248E-2,7.116351471E0,6.527625732E0,9.656861640E0
9.633359875E0,6.541397095E-2,7.105723572E0,6.450086975E0,9.596833251E0
9.643438875E0,4.191284180E-2,7.121590576E0,6.499184875E0,9.641483966E0
9.653517875E0,1.796264648E-3,7.164700928E0,6.633455658E0,9.763999005E0
9.663596875E0,-4.236190796E-2,7.179520111E0,6.733298035E0,9.842997815E0
9.673675875E0,-3.682342529E-2,7.211104431E0,6.740183716E0,9.870737541E0
9.683754875E0,-3.487747192E-2,7.188651123E0,6.698719940E0,9.826025150E0
9.693833875E0,7.783813477E-3,7.166946259E0,6.685996399E0,9.801414546E0
9.703912875E0,1.137634277E-2,7.142846375E0,6.674320679E0,9.775834505E0
9.713991875E0,-2.993774414E-2,7.154971161E0,6.662794647E0,9.776877881E0
9.724070875E0,-1.347198486E-2,7.126979370E0,6.623725891E0,9.729735922E0
9.734149875E0,-3.412902832E-2,7.112758942E0,6.612499237E0,9.711727483E0
9.744228875E0,-2.589614868E-2,7.100933533E0,6.585704956E0,9.684804459E0
9.754307875E0,-1.062789917E-2,7.114106140E0,6.586154022E0,9.694743108E0
9.764386875E0,-5.523513794E-2,7.129673767E0,6.647227020E0,9.747867767E0
9.774465875E0,-9.220825195E-2,7.110812988E0,6.706354065E0,9.774832406E0
9.784544875E0,-1.140628052E-1,7.096742249E0,6.787335663E0,9.820625554E0
9.794623875E0,-1.606159973E-1,7.113657074E0,6.816524963E0,9.853675814E0
9.804702875E0,-1.939965820E-1,7.154073029E0,6.807094574E0,9.876990033E0
9.814781875E0,-2.064207458E-1,7.217840424E0,6.801107025E0,9.919419674E0
9.824860875E0,-1.748364258E-1,7.202721863E0,6.792425079E0,9.901858839E0
9.834938875E0,-1.163081360E-1,7.181915131E0,6.765032043E0,9.867071048E0
9.845017875E0,-4.236190796E-2,7.191046143E0,6.687942352E0,9.820463943E0
9.855096875E0,2.859054565E-2,7.171287231E0,6.575376434E0,9.729529959E0
9.865175875E0,2.754272461E-2,7.137756958E0,6.519692230E0,9.667198134E0
9.875254875E0,2.395019531E-3,7.141948242E0,6.543193359E0,9.686114276E0
9.885333875E0,-2.005828857E-2,7.109316101E0,6.627168732E0,9.719163707E0
9.895412875E0,-3.577560425E-2,7.065157928E0,6.713688812E0,9.746350800E0
9.905491875E0,-6.391708374E-2,7.061116333E0,6.786886597E0,9.794145136E0
9.915570875E0,-7.589218140E-2,7.085515594E0,6.797215118E0,9.818982851E0
9.925649875E0,-1.086740112E-1,7.103178864E0,6.819967804E0,9.847787612E0
9.935728875E0,-1.107696533E-1,7.111411743E0,6.775959320E0,9.823343199E0
9.945807875E0,-1.285826111E-1,7.160809021E0,6.701264648E0,9.808193881E0
9.955886875E0,-1.276844788E-1,7.167245636E0,6.649921417E0,9.777891807E0
9.965965875E0,-1.700463867E-1,7.147935791E0,6.654262390E0,9.767349170E0
9.976044875E0,-1.959425354E-1,7.155869293E0,6.715634766E0,9.815528978E0
9.986123875E0,-1.989363098E-1,7.161407776E0,6.764882355E0,9.853373547E0
9.996202875E0,-1.972897339E-1,7.160958710E0,6.781946869E0,9.864738021E0