"Time (s)","Acceleration x (m/s^2)","Acceleration y (m/s^2)","Acceleration z (m/s^2)","Absolute acceleration (m/s^2)"
2.311333315E-3,1.034798126E0,9.643546143E0,9.542655945E-1,9.745738155E0
1.238933334E-2,1.398092651E0,9.447004852E0,7.241940308E-1,9.577318035E0
2.246833337E-2,1.647024994E0,9.215885468E0,9.613009644E-1,9.411128297E0
3.254633339E-2,1.817370758E0,9.263785858E0,1.612446899E0,9.577084624E0
4.262533330E-2,2.062111816E0,9.474248199E0,2.232607269E0,9.949784887E0
5.270333332E-2,2.222578125E0,9.653874664E0,2.571652222E0,1.023477136E1
6.278233335E-2,2.237696686E0,9.646240540E0,2.479144592E0,1.020800671E1
7.286133338E-2,2.193688202E0,9.483079834E0,2.130070496E0,9.963848222E0
8.293933328E-2,2.113155670E0,9.287286987E0,1.840871887E0,9.700924480E0
9.301833331E-2,2.080373840E0,9.241182861E0,1.667232971E0,9.618060188E0
1.030963333E-1,2.006277924E0,9.374705200E0,1.543141022E0,9.710382738E0
1.131753334E-1,1.607357483E0,9.642198944E0,1.389410706E0,9.873502958E0
1.232533334E-1,1.439257050E0,9.967472534E0,1.451830902E0,1.017495860E1
1.333323333E-1,1.119072876E0,1.038989410E1,1.475182343E0,1.055359591E1
1.434113333E-1,6.376739502E-1,1.041968216E1,1.449286194E0,1.053929954E1
1.534893333E-1,1.398092651E-1,1.000534378E1,1.449286194E0,1.011073100E1
1.635683334E-1,3.712280273E-2,9.464518433E0,1.468745728E0,9.577875614E0
1.736463333E-1,3.399430847E-1,9.023385773E0,1.494492188E0,9.152625798E0
1.837253333E-1,7.062313843E-1,8.681047668E0,1.715582428E0,8.877081415E0
1.938043333E-1,1.193917236E0,8.738228760E0,2.145189056E0,9.076558616E0
2.038823334E-1,1.504970398E0,8.761280823E0,2.242486725E0,9.168081820E0
2.139613334E-1,1.749112701E0,8.914861450E0,2.056723022E0,9.314733464E0
2.240392501E-1,1.979783020E0,9.135502625E0,1.754501495E0,9.510795156E0
2.341182500E-1,2.172881470E0,9.282496948E0,1.240171051E0,9.613749930E0
2.441962500E-1,2.252815247E0,9.437275085E0,7.093748474E-1,9.728337486E0
2.542752500E-1,2.150877228E0,9.478738861E0,4.538562012E-1,9.730300545E0
2.643542500E-1,1.839824066E0,9.596992950E0,5.981561279E-1,9.790046835E0
2.744322499E-1,1.435215454E0,9.554032288E0,1.007854156E0,9.713657723E0
2.845112500E-1,1.360670471E0,9.363777924E0,1.181642761E0,9.535619579E0
2.945892500E-1,1.387015686E0,9.200168152E0,1.376088409E0,9.405345600E0
3.046682500E-1,1.479972382E0,9.038803711E0,1.329385529E0,9.255136771E0
3.147462500E-1,1.711540833E0,9.011111298E0,1.032702484E0,9.230166481E0
3.248252500E-1,1.833986206E0,9.080716553E0,6.788383484E-1,9.288904134E0
3.349042500E-1,1.874252472E0,9.284592590E0,3.540138245E-1,9.478491847E0
3.449822500E-1,1.830094299E0,9.435478821E0,4.011657715E-2,9.611405468E0
3.550612500E-1,1.709295502E0,9.502988434E0,8.891510010E-2,9.655899035E0
3.651392499E-1,1.707948303E0,9.712702332E0,6.092330933E-1,9.880528273E0
3.752182500E-1,2.076931000E0,1.001088226E1,8.646020508E-1,1.026055275E1
3.852962500E-1,2.415077820E0,1.038480469E1,1.140178986E0,1.072272248E1
3.953752500E-1,2.405348053E0,1.086770050E1,1.501826935E0,1.123156701E1
4.054542501E-1,2.169588318E0,1.122380997E1,1.752256165E0,1.156509513E1
4.155322500E-1,2.061213684E0,1.148127457E1,1.625020752E0,1.177747681E1
4.256112500E-1,2.060764618E0,1.149250122E1,1.227297821E0,1.174012756E1
4.356892500E-1,2.294279022E0,1.140223892E1,7.542814636E-1,1.165520095E1
4.457682500E-1,3.010240173E0,1.128069168E1,5.843847656E-1,1.169004090E1
4.558462499E-1,3.738475800E0,1.112351852E1,6.596781921E-1,1.175346932E1
4.659252500E-1,4.162244568E0,1.101978424E1,6.741979980E-1,1.179891806E1
4.760042500E-1,4.399351501E0,1.094239517E1,5.421725464E-1,1.180611099E1
4.860822500E-1,4.700076141E0,1.105241638E1,5.263055420E-1,1.202179775E1
4.961612500E-1,5.069358215E0,1.133502869E1,6.752458191E-1,1.243532167E1
5.062392500E-1,5.372178497E0,1.176598251E1,6.596781921E-1,1.295120927E1
5.163182500E-1,5.526208191E0,1.232147736E1,2.779719543E-1,1.350685195E1
5.263962500E-1,5.591921539E0,1.267698807E1,-1.663041687E-1,1.385652446E1
5.364752500E-1,5.646258545E0,1.265648071E1,-2.131567383E-1,1.386045365E1
5.465542499E-1,5.519472198E0,1.257340347E1,2.300715637E-1,1.373346210E1
5.566322500E-1,5.171595612E0,1.251727020E1,5.580395508E-1,1.355503090E1
5.667112500E-1,4.672982483E0,1.219169724E1,5.046006775E-1,1.306632575E1
5.767892500E-1,3.930227051E0,1.128428421E1,3.507206726E-1,1.195427789E1
5.868682500E-1,3.027154999E0,1.033406021E1,1.233435059E-1,1.076901488E1
5.969462499E-1,1.888173523E0,9.870474243E0,-1.176553345E-1,1.005013949E1
6.070252500E-1,8.339158630E-1,9.948462067E0,-1.267863464E-1,9.984156847E0
6.171042500E-1,2.891986084E-1,1.014470398E1,1.070124664E0,1.020508802E1
6.271822500E-1,3.493734741E-1,1.009021729E1,2.548300781E0,1.041289506E1
6.372612499E-1,7.641609192E-1,1.021266266E1,3.525618439E0,1.083108517E1
6.473392500E-1,1.051114197E0,1.043060944E1,4.019740906E0,1.122767880E1
6.574182500E-1,1.042731628E0,1.080093933E1,4.166735229E0,1.162365098E1
6.674962500E-1,9.280700684E-1,1.115630035E1,4.078119507E0,1.191450420E1
6.775752500E-1,5.960604858E-1,1.128503265E1,3.583098907E0,1.185520341E1
6.876542500E-1,1.833686829E-1,1.133592682E1,2.912942505E0,1.170564372E1
6.977322500E-1,-6.750961304E-2,1.162033539E1,2.045047302E0,1.179910889E1
7.078112500E-1,5.330415344E-1,1.266396515E1,-1.996248779E0,1.283141285E1
7.178892500E-1,9.101074219E-1,1.344354401E1,-3.863016815E0,1.401713487E1
7.279682501E-1,7.442523193E-1,1.303863602E1,-2.806064758E0,1.335791676E1
7.380462500E-1,9.433383179E-1,1.270692581E1,-2.646496582E0,1.301383091E1
7.481252500E-1,1.100511475E0,1.226669128E1,-2.187700653E0,1.250875192E1
7.582042500E-1,9.463320923E-1,1.149190247E1,-1.811233521E0,1.167218632E1
7.682822500E-1,4.746629333E-1,1.025247986E1,-1.270557861E0,1.034180668E1
7.783612499E-1,4.412823486E-1,9.128018188E0,-5.155279541E-1,9.153207920E0
7.884392500E-1,8.018824768E-1,8.112230530E0,8.711883545E-1,8.198186923E0
7.985182500E-1,1.363963623E0,7.139253845E0,1.556912384E0,7.433257590E0
8.085962500E-1,2.287692719E0,6.093528442E0,1.102158051E0,6.601467960E0
8.186752500E-1,2.501747589E0,5.272934875E0,1.484912109E0,6.022254327E0
8.287542500E-1,2.888094177E0,4.708309021E0,1.635798340E0,5.760650833E0
8.388322500E-1,3.348237305E0,4.175866241E0,2.417472839E-1,5.357890785E0
8.489112500E-1,3.719165955E0,3.731590118E0,-1.269809418E0,5.419352006E0
8.589892500E-1,2.129172363E0,3.301684113E0,-6.348298645E-1,3.979635899E0
8.690682499E-1,4.269122314E-1,3.125051422E0,6.481521606E-1,3.219984731E0
8.791462500E-1,4.924758911E-1,2.913541260E0,3.168910217E-1,2.971813435E0
8.892252500E-1,-8.479866028E-1,2.668650513E0,1.191671906E0,3.043165912E0
8.993042500E-1,-2.152224426E0,2.352657623E0,1.823358307E0,3.673105415E0
9.093822500E-1,-2.529889069E0,2.324366455E0,1.924098816E0,3.937661028E0
9.194612500E-1,-2.620001678E0,2.577490082E0,1.424437866E0,3.941685826E0
9.295392500E-1,-2.338736572E0,3.072510681E0,2.803669739E-1,3.871513435E0
9.396182500E-1,-1.626068573E0,3.873495026E0,-9.641450500E-1,4.310178464E0
9.496962500E-1,-1.276545410E0,4.762646027E0,-2.483335876E0,5.520808132E0
9.597752499E-1,-1.498384094E0,6.114484863E0,-4.154760132E0,7.542818557E0
9.698542500E-1,-1.493743744E0,8.663384399E0,-5.574407959E0,1.040958807E1
9.799322500E-1,-7.267387390E-1,1.290526337E1,-8.193511505E0,1.530384274E1
9.900112500E-1,8.099656677E-1,1.931792816E1,-1.413660278E1,2.395165821E1
1.000089250E0,1.685045929E0,2.426020065E1,-2.175066925E1,3.262649734E1
1.010168250E0,7.779322815E-1,2.458322891E1,-2.077020813E1,3.219226410E1
1.020246250E0,-6.036946106E-1,2.087154739E1,-1.291514282E1,2.455171790E1
1.030325250E0,-3.646417236E-1,1.564830917E1,-6.865024109E0,1.709184307E1
1.040404250E0,1.306183777E0,1.162258072E1,-3.103795624E0,1.210058040E1
1.050482250E0,2.950963440E0,9.652826843E0,-7.390132141E-1,1.012083948E1
1.060561250E0,4.065994720E0,8.775800629E0,6.524931335E-1,9.693953633E0
1.070639250E0,4.199816437E0,8.730145569E0,5.620811462E-1,9.704114332E0
1.080718250E0,3.262315979E0,9.438173218E0,-5.463638306E-2,9.986230739E0
1.090797250E0,2.501747589E0,9.432485046E0,-1.149309998E0,9.826058651E0
1.100875250E0,1.100960541E0,8.924441528E0,-1.633103943E0,9.139190292E0
1.110954250E0,6.122268677E-2,8.549171906E0,1.004860382E0,8.608242148E0
1.121032250E0,-2.029779053E-1,8.614286499E0,4.653822327E0,9.793119736E0
1.131111250E0,-2.942880249E-1,9.100475464E0,5.307662659E0,1.053928565E1
1.141189250E0,-1.007704468E0,9.476194153E0,3.877686310E0,1.028835142E1
1.151268250E0,-1.844314728E0,9.667795715E0,3.203188934E0,1.035027488E1
1.161347250E0,-2.204765167E0,9.774523773E0,3.283272400E0,1.054429619E1
1.171425250E0,-2.310295715E0,9.744586029E0,2.759062500E0,1.038782215E1
1.181504250E0,-2.407144318E0,9.643695831E0,1.556463318E0,1.006070530E1
1.191582250E0,-2.205513611E0,9.296867065E0,-1.368154907E-1,9.555874947E0
1.201661250E0,-1.038240967E0,8.908424835E0,-6.542893982E-1,8.992556476E0
1.211739250E0,-2.930905151E-1,8.820407867E0,6.039939880E-1,8.845920288E0
1.221818250E0,2.874023438E-2,8.998687134E0,1.846859436E0,9.186298815E0
1.231897083E0,4.549040222E-1,9.110953674E0,2.381098480E0,9.427939568E0
1.241975083E0,9.629475403E-1,9.132209473E0,2.385738831E0,9.487690319E0
1.252054083E0,1.386267242E0,9.013057251E0,1.964514771E0,9.328250434E0
1.262132083E0,1.714384918E0,8.761430511E0,1.003812561E0,8.983842158E0
1.272211083E0,2.182012482E0,8.475674744E0,1.710942078E-1,8.753714301E0
1.282289083E0,2.735261993E0,8.387208710E0,-4.939727783E-2,8.822095454E0
1.292368083E0,2.948418732E0,8.445886688E0,3.165916443E-1,8.951335388E0
1.302447083E0,2.793640594E0,8.465645599E0,1.154549103E0,8.989136044E0
1.312525083E0,2.894231415E0,8.299640808E0,1.584904175E0,8.931547137E0
1.322604083E0,3.004102936E0,7.977510681E0,1.707948303E0,8.693813808E0
1.332682083E0,2.996618500E0,8.026608582E0,1.687590637E0,8.732361073E0
1.342761083E0,2.615061951E0,8.371341705E0,1.434916077E0,8.886894570E0
1.352839083E0,1.836830292E0,8.892108765E0,1.207538910E0,9.159786789E0
1.362918083E0,1.352138214E0,9.324409790E0,8.571176147E-1,9.460842790E0
1.372997083E0,1.113235016E0,9.591753845E0,1.236428833E-1,9.656931272E0
1.383075083E0,1.073118439E0,9.718839569E0,-1.042432251E0,9.833315349E0
1.393154083E0,1.240769806E0,9.667346649E0,-2.361040192E0,1.002853986E1
1.403232083E0,1.468296661E0,9.458979950E0,-2.891986084E0,9.999589006E0
1.413311083E0,1.844165039E0,9.359287262E0,-1.880240021E0,9.722782795E0
1.423389083E0,2.552042999E0,9.445807343E0,1.960922241E-2,9.784507363E0
1.433468083E0,3.374582520E0,9.535770264E0,1.970352631E0,1.030538748E1
1.443547083E0,3.716471558E0,9.791288910E0,2.653531952E0,1.080382947E1
1.453625083E0,3.306174774E0,1.037776932E1,1.846110992E0,1.104703641E1
1.463704083E0,2.290686493E0,1.097637451E1,2.245330811E-2,1.121287413E1
1.473782083E0,9.991722107E-1,1.109343109E1,-2.074086914E0,1.132980119E1
1.483861083E0,3.604504395E-1,1.094434113E1,-2.527494049E0,1.123818283E1
1.493939083E0,7.710466003E-1,1.096290253E1,-1.264420624E0,1.106248183E1
1.504018083E0,1.832788696E0,1.110106522E1,-8.502319336E-2,1.125166620E1
1.514097083E0,3.223396912E0,1.131077911E1,5.971083069E-1,1.177627064E1
1.524175083E0,4.313280487E0,1.159863052E1,8.253836060E-1,1.240217226E1
1.534254083E0,4.731959839E0,1.158860138E1,8.500822449E-1,1.254630486E1
1.544332083E0,4.802163849E0,1.133442993E1,4.282594299E-1,1.231720283E1
1.554411083E0,4.806804199E0,1.112097382E1,-4.017645264E-1,1.212199818E1
1.564489083E0,4.979395294E0,1.091036179E1,-1.072220306E0,1.204076527E1
1.574568083E0,5.063819733E0,1.081456100E1,-1.075363770E0,1.198972090E1
1.584647083E0,5.075794830E0,1.107397156E1,-5.888754272E-1,1.219603679E1
1.594725083E0,4.942871246E0,1.175595337E1,-7.379653931E-2,1.275303343E1
1.604804083E0,4.983436890E0,1.255888367E1,-1.438508606E-1,1.351224982E1
1.614882083E0,5.325176239E0,1.293235703E1,-6.462062073E-1,1.400074793E1
1.624961083E0,5.612279205E0,1.281724640E1,-8.623567200E-1,1.401867120E1
1.635039083E0,5.438640289E0,1.269420227E1,-9.583071899E-1,1.384340753E1
1.645118083E0,4.363575897E0,1.313937653E1,-1.084794159E0,1.388743275E1
1.655197083E0,2.754571838E0,1.326182190E1,1.920506287E-1,1.354623452E1
1.665275083E0,1.539099426E0,1.293011169E1,2.904709625E0,1.334143746E1
1.675354083E0,1.214274902E0,1.292367508E1,5.429958344E0,1.407054685E1
1.685432083E0,1.122066650E0,1.324670334E1,5.866450653E0,1.453098160E1
1.695511083E0,1.097218323E0,1.340193054E1,5.046156464E0,1.436242756E1
1.705589083E0,1.289268951E0,1.362376923E1,3.791016541E0,1.420003904E1
1.715668083E0,1.465302887E0,1.400831955E1,2.794089661E0,1.435921537E1
1.725747083E0,1.605860596E0,1.431338516E1,1.808090057E0,1.451623135E1
1.735825083E0,1.954186249E0,1.488579483E1,-1.441801758E0,1.508259009E1
1.745904083E0,2.340083771E0,1.588002731E1,-7.273824005E0,1.762270624E1
1.755982083E0,1.358425140E0,1.584485046E1,-6.708898773E0,1.726018331E1
1.766061083E0,-5.285508728E-1,1.438179291E1,-1.260528717E0,1.444660050E1
1.776139083E0,-1.313219147E0,1.265079254E1,1.578467560E0,1.281634333E1
1.786218083E0,-6.902146912E-1,1.089269852E1,1.471739502E0,1.101332350E1
1.796297083E0,-1.239422607E-1,9.153764648E0,7.123686218E-1,9.182278474E0
1.806375083E0,-4.879852295E-1,7.824528809E0,7.825726318E-1,7.878692822E0
1.816454083E0,-6.065386963E-1,6.557413788E0,1.106648712E0,6.677741845E0
1.826532083E0,-6.529421997E-1,4.970563660E0,1.709145813E0,5.296604197E0
1.836611083E0,-6.897656250E-1,3.898043976E0,2.604434052E0,4.738522996E0
1.846689083E0,-3.239263916E-1,3.086581421E0,3.555107117E0,4.719184229E0
1.856768083E0,2.344125366E-1,2.377955017E0,3.958667908E0,4.623923756E0
1.866847083E0,1.100960541E0,2.088906097E0,2.898273010E0,3.738399288E0
1.876925083E0,2.246678009E0,2.305206299E0,1.026864624E0,3.378755557E0
1.887004083E0,1.932032318E0,2.472408600E0,-1.669029236E-1,3.142198235E0
1.897082083E0,-4.093986511E-1,2.491419067E0,3.505709839E-1,2.549053989E0
1.907161083E0,-1.365909576E0,2.524500275E0,3.703298950E-1,2.894124192E0
1.917239083E0,-1.698966980E0,2.674338684E0,5.445675659E-1,3.214829705E0
1.927318083E0,-2.034120026E0,2.793490906E0,7.620652771E-1,3.538640870E0
1.937397083E0,-2.038910065E0,2.990481262E0,6.297404480E-1,3.673786257E0
1.947475083E0,-1.698517914E0,3.323838043E0,3.296145630E-1,3.747200048E0
1.957554083E0,-1.383423157E0,3.711232452E0,4.879852295E-2,3.960995739E0
1.967632083E0,-1.164578247E0,4.112547913E0,-6.253994751E-1,4.319770518E0
1.977711083E0,-1.075962524E0,4.623435516E0,-1.921554108E0,5.121154315E0
1.987789083E0,-1.046922913E0,5.655239868E0,-3.759132843E0,6.870870781E0
1.997868083E0,-1.535806274E-1,8.252788239E0,-6.677314453E0,1.061690299E1
2.007947083E0,2.234852600E0,1.451890778E1,-1.254047195E1,1.931467540E1
2.018025083E0,4.488116913E0,2.461870514E1,-2.569541611E1,3.586750960E1
2.028104083E0,4.012106781E0,2.732462814E1,-2.971515701E1,4.056750991E1
2.038182083E0,2.115700378E0,2.425556030E1,-1.689806030E1,2.963701800E1
2.048261083E0,3.218307495E-2,1.810859299E1,-6.546486511E0,1.925561376E1
2.058339083E0,2.608176270E0,1.184157532E1,-1.762734375E0,1.225286587E1
2.068418083E0,3.720064087E0,8.144712982E0,-2.493814087E-1,8.957534117E0
2.078497083E0,1.246008911E0,7.615263977E0,-2.185006256E0,8.019914961E0
2.088575083E0,-3.439846802E-1,9.527836761E0,-3.821403351E0,1.027137393E1
2.098654083E0,-5.444178772E-1,1.162796951E1,-1.102158051E0,1.169276777E1
2.108732083E0,2.694396973E-2,1.229333588E1,3.467239838E0,1.277296305E1
2.118811083E0,6.342311096E-1,1.221714432E1,6.847360840E0,1.401952977E1
2.128889083E0,6.900650024E-1,1.225067459E1,8.159981232E0,1.473568836E1
2.138968083E0,-1.775308228E-1,1.197300201E1,6.613696747E0,1.367937422E1
2.149047083E0,-7.842192078E-1,1.071007828E1,2.558629303E0,1.103935507E1
2.159125083E0,-4.719685364E-1,9.368268585E0,8.979826355E-1,9.423034723E0
2.169204083E0,-5.736071777E-1,8.672515411E0,2.009571075E0,8.920758077E0
2.179282083E0,-6.101312256E-1,8.404871979E0,2.519261169E0,8.795499413E0
2.189361083E0,-6.634204102E-1,8.328830109E0,2.535277863E0,8.731390007E0
2.199439083E0,9.945318604E-1,8.251590729E0,2.249222717E0,8.610275606E0
2.209518083E0,1.273102570E0,8.109087067E0,1.817520447E0,8.407226878E0
2.219597083E0,4.990621948E-1,8.067772980E0,6.671626282E-1,8.110679990E0
2.229674875E0,1.003962250E0,8.305927734E0,-2.621049500E-1,8.370488321E0
2.239753875E0,1.603016510E0,8.820407867E0,5.972579956E-2,8.965089183E0
2.249831875E0,2.287093964E0,9.531429291E0,1.256636810E0,9.882210238E0
2.259910875E0,2.588417358E0,9.947713623E0,1.867217102E0,1.044717237E1
2.269988875E0,3.393443298E0,9.885892181E0,8.089178467E-1,1.048335203E1
2.280067875E0,3.728446655E0,9.236692200E0,-8.978329468E-1,1.000119499E1
2.290146875E0,2.656825104E0,8.145311737E0,-1.286873932E0,8.663767509E0
2.300224875E0,1.724563751E0,7.368427277E0,-4.558021545E-1,7.581266139E0
2.310303875E0,1.429227905E0,7.186854858E0,5.550457764E-1,7.348581562E0
2.320381875E0,1.094523926E0,7.189549255E0,9.764195251E-1,7.337642415E0
2.330460875E0,1.344354401E0,7.232210541E0,6.965016174E-1,7.388996722E0
2.340538875E0,1.714534607E0,7.937394104E0,5.698649597E-1,8.140429973E0
2.350617875E0,1.404978333E0,8.771908722E0,7.429051208E-1,8.914721238E0
2.360696875E0,1.323847046E0,9.288783875E0,1.249002686E0,9.465415182E0
2.370774875E0,1.303040314E0,9.716743927E0,1.617835693E0,9.936318178E0
2.380853875E0,1.180145874E0,1.001058289E1,1.289418640E0,1.016204283E1
2.390931875E0,1.063089294E0,9.778415680E0,3.610491943E-1,9.842658613E0
2.401010875E0,1.004111938E0,9.015901337E0,-7.003935242E-1,9.098641041E0
2.411088875E0,9.484277344E-1,8.217461700E0,-1.214125214E0,8.360639449E0
2.421167875E0,1.155596924E0,7.751630402E0,-7.472460938E-1,7.872836519E0
2.431246875E0,1.506317596E0,7.733667755E0,3.921844482E-1,7.888752645E0
2.441324875E0,1.923949127E0,8.087980957E0,1.451232147E0,8.439377403E0
2.451403875E0,2.322869568E0,8.800499268E0,1.933678894E0,9.305032211E0
2.461481875E0,2.398312683E0,9.776769104E0,1.615141296E0,1.019538127E1
2.471560875E0,1.884880371E0,1.075483521E1,3.965254211E-1,1.092595473E1
2.481638875E0,9.843530273E-1,1.117710709E1,-1.122665405E0,1.127639354E1
2.491717875E0,3.826043701E-1,1.100736008E1,-1.828896790E0,1.116482089E1
2.501796875E0,7.512876892E-1,1.082174606E1,-1.532363434E0,1.095548989E1
2.511874875E0,1.896855469E0,1.110226273E1,-1.878593445E-1,1.126470547E1
2.521953875E0,3.394341431E0,1.167751648E1,1.576671295E0,1.226261951E1
2.532031875E0,4.259841614E0,1.190474396E1,2.232457581E0,1.283951113E1
2.542110875E0,4.544998627E0,1.174846893E1,1.722318420E0,1.271416201E1
2.552188875E0,4.739444275E0,1.145956970E1,8.294252014E-1,1.242867716E1
2.562267875E0,4.917873230E0,1.133907028E1,5.059478760E-2,1.235971488E1
2.572345875E0,5.182522888E0,1.131003067E1,-6.494993591E-1,1.245781629E1
2.582424875E0,5.514382782E0,1.132754425E1,-1.228046265E0,1.265818999E1
2.592503875E0,5.758375397E0,1.144160706E1,-1.154698792E0,1.286089377E1
2.602581875E0,5.683980103E0,1.180310532E1,-6.289920044E-1,1.311550822E1
2.612660875E0,5.457501068E0,1.253852600E1,-5.194198608E-1,1.368461725E1
2.622738875E0,5.170398102E0,1.312844925E1,-6.213578796E-1,1.412357185E1
2.632817875E0,4.672533417E0,1.303728882E1,-6.155200195E-1,1.386298428E1
2.642895875E0,2.847977600E0,1.234946915E1,-1.553768921E-1,1.267456140E1
2.652974875E0,4.698728943E-1,1.220052887E1,-6.496490479E-2,1.220974634E1
2.663053875E0,-4.487667847E-1,1.205847427E1,1.235979767E0,1.212995628E1
2.673131875E0,3.239263916E-1,1.165611099E1,3.390000458E0,1.214339141E1
2.683210875E0,1.768422546E0,1.265378632E1,4.485272827E0,1.354117051E1
2.693288875E0,2.700683899E0,1.386581589E1,4.532724152E0,1.483577204E1
2.703367875E0,3.032543793E0,1.467024307E1,4.038302307E0,1.551516159E1
2.713445875E0,3.025209045E0,1.533516037E1,3.417692871E0,1.599998931E1
2.723524875E0,2.850971375E0,1.599588638E1,2.996618500E0,1.652198963E1
2.733603875E0,2.623893585E0,1.636456970E1,2.575693817E0,1.677254178E1
2.743681875E0,2.286794586E0,1.610261444E1,1.493144989E0,1.633257797E1
2.753760875E0,1.453028412E0,1.530118103E1,-1.866917725E0,1.548298467E1
2.763838875E0,-9.924362183E-2,1.397478928E1,-5.433251495E0,1.499415908E1
2.773917875E0,-1.041983185E0,1.257385254E1,-4.325704651E0,1.333788654E1
2.783995875E0,-1.258433075E0,1.130389343E1,-1.379381561E0,1.145706568E1
2.794074875E0,-1.088536377E0,9.872120819E0,1.601669312E-1,9.933243899E0
2.804153875E0,-1.060394897E0,8.390651550E0,1.310674438E0,8.558349038E0
2.814231875E0,-1.298549652E0,6.873406677E0,1.995949402E0,7.274184804E0
2.824310875E0,-9.867480469E-1,6.292315063E0,1.620230713E0,6.572065743E0
2.834388875E0,-7.321275330E-1,5.837560730E0,9.199868774E-1,5.954788145E0
2.844467875E0,-5.915698242E-1,5.451663208E0,5.430706787E-1,5.510491117E0
2.854545875E0,-5.487588501E-1,4.910987549E0,1.018032990E0,5.045327160E0
2.864624875E0,-1.553768921E-1,3.921395416E0,1.775158539E0,4.307281257E0
2.874703875E0,5.433700562E-1,3.190615082E0,2.681523743E0,4.203075683E0
2.884781875E0,5.441184998E-1,3.066223755E0,2.955454102E0,4.293308981E0
2.894860875E0,4.785548401E-1,2.929557953E0,2.631228333E0,3.966697250E0
2.904938875E0,1.139580231E0,2.771935730E0,1.717977448E0,3.454521284E0
2.915017875E0,1.611099701E0,2.569107513E0,3.887416077E-1,3.057298759E0
2.925095875E0,8.996292114E-1,2.490071869E0,-4.017645264E-1,2.677910634E0
2.935174875E0,-3.565585327E-1,2.843486938E0,6.316864014E-2,2.866451157E0
2.945253875E0,-1.191522217E0,3.399281158E0,9.970765686E-1,3.737512444E0
2.955331875E0,-1.343905334E0,3.665278015E0,1.071322174E0,4.048218828E0
2.965410875E0,-1.280437317E0,3.738775177E0,1.913021851E-1,3.956583889E0
2.975488875E0,-1.378633118E0,3.836072845E0,-1.009650421E0,4.199461647E0
2.985567875E0,-1.590742035E0,4.114044800E0,-2.241738281E0,4.947849569E0
2.995645875E0,-1.674717407E0,4.950804749E0,-3.348686371E0,6.207160902E0
3.005724875E0,-7.622149658E-1,7.173682251E0,-4.531077576E0,8.518999512E0
3.015803875E0,1.433568878E0,1.124311981E1,-6.417454834E0,1.302484508E1
3.025881875E0,4.171824646E0,1.814616486E1,-1.336884933E1,2.292190115E1
3.035960875E0,5.810167694E0,2.499816605E1,-2.501223679E1,3.583682943E1
3.046038875E0,3.937711487E0,2.681344116E1,-2.377520920E1,3.605172355E1
3.056117875E0,1.261726227E0,2.322525284E1,-1.336480774E1,2.682577880E1
3.066195875E0,3.150947571E-1,1.799482956E1,-5.955814819E0,1.895744987E1
3.076274875E0,1.416354675E0,1.327080322E1,-2.502346344E0,1.357873396E1
3.086352875E0,2.813549194E0,9.718390503E0,-1.211430817E0,1.018973688E1
3.096431875E0,2.524350586E0,7.390730896E0,-1.997146912E0,8.061255786E0
3.106510875E0,4.848417664E-1,7.107220459E0,-2.305655365E0,7.487569756E0
3.116588875E0,-8.399034119E-1,7.532635803E0,-2.386487274E0,7.946153874E0
3.126667875E0,-1.504221954E0,7.552993469E0,-2.073937225E0,7.975688663E0
3.136745875E0,-1.100212097E0,7.134314117E0,2.799179077E-1,7.224074932E0
3.146824875E0,-1.004411316E-1,7.331753540E0,4.118236084E0,8.409789940E0
3.156902875E0,9.315129089E-1,8.474177856E0,6.663393402E0,1.082036128E1
3.166981875E0,1.393302612E0,9.518705750E0,6.511309662E0,1.161654875E1
3.177060875E0,1.332678680E0,1.087443649E1,5.521567841E0,1.226854160E1
3.187138875E0,4.899311829E-1,1.224768082E1,4.597090302E0,1.309117860E1
3.197217875E0,-6.788383484E-1,1.260887970E1,3.665876770E0,1.314851023E1
3.207295875E0,-1.167572021E0,1.217852463E1,2.348765717E0,1.245778419E1
3.217374875E0,-8.030799866E-1,1.079555054E1,-2.204914856E-1,1.082762510E1
3.227452583E0,-8.436456299E-1,8.238118744E0,-7.843239899E0,1.140590858E1
3.237531583E0,-3.772155762E-2,6.853198700E0,-7.526797943E0,1.017941269E1
3.247610583E0,1.769021301E0,7.458988953E0,1.422042847E-1,7.667214267E0
3.257688583E0,2.785856781E0,8.832832031E0,4.719685364E0,1.039496751E1
3.267767583E0,2.362237701E0,1.002525238E1,6.376140747E0,1.211367092E1
3.277845583E0,2.174827423E0,1.088102280E1,6.243217163E0,1.273201838E1
3.287924583E0,2.257305908E0,1.142813507E1,5.022505646E0,1.268555336E1
3.298002583E0,2.638862457E0,1.118249588E1,2.819686432E0,1.183057229E1
3.308081583E0,2.403402100E0,1.017314484E1,-1.789977722E0,1.060534006E1
3.318160583E0,1.386865997E0,9.049730988E0,-5.173391876E0,1.051594084E1
3.328238583E0,1.404828644E0,8.519533539E0,-3.084336090E0,9.168921657E0
3.338317583E0,1.755399628E0,8.185278625E0,5.771997070E-1,8.391267695E0
3.348395583E0,1.898352356E0,7.565267944E0,2.793490906E0,8.284963016E0
3.358474583E0,1.690434723E0,6.981332245E0,2.873274994E0,7.736425444E0
3.368552583E0,1.561253357E0,6.892267456E0,2.118245087E0,7.377521601E0
3.378631583E0,1.302740936E0,7.336693268E0,1.484163666E0,7.597824941E0
3.388710583E0,9.964778137E-1,7.932154999E0,9.954299927E-1,8.056235587E0
3.398788583E0,1.073717194E0,8.511600037E0,6.715036011E-1,8.605296095E0
3.408867583E0,1.150806885E0,9.031618652E0,5.328918457E-1,9.120222897E0
3.418945583E0,1.185235291E0,9.356443176E0,6.206094360E-1,9.451611909E0
3.429024583E0,1.217268677E0,9.375004578E0,9.216334534E-1,9.498518942E0
3.439102583E0,1.190773773E0,9.062753906E0,9.478289795E-1,9.189658879E0
3.449181583E0,1.274749146E0,8.518336029E0,4.876858521E-1,8.626985080E0
3.459260583E0,1.434616699E0,7.967182159E0,-2.005828857E-2,8.095339336E0
3.469338583E0,1.620979156E0,7.793842621E0,-3.083587646E-1,7.966595343E0
3.479417583E0,1.879042511E0,8.092770996E0,-1.832189941E-1,8.310072945E0
3.489495583E0,2.256258087E0,8.978628845E0,6.590794373E-1,9.281210169E0
3.499574583E0,2.552941132E0,1.025547363E1,1.160686340E0,1.063200078E1
3.509652583E0,2.598296814E0,1.122830063E1,3.017724609E-1,1.152896127E1
3.519731583E0,2.439327393E0,1.164668060E1,-1.342258759E0,1.197485473E1
3.529809583E0,2.287093964E0,1.156809402E1,-2.274370422E0,1.200934465E1
3.539888583E0,2.330952759E0,1.147932861E1,-1.974244537E0,1.187880329E1
3.549967583E0,2.762954407E0,1.161704224E1,-7.197033691E-1,1.196275722E1
3.560045583E0,3.460803223E0,1.171179520E1,9.882449341E-1,1.225234401E1
3.570124583E0,3.994593201E0,1.160626465E1,2.202519836E0,1.247049508E1
3.580202583E0,4.275708618E0,1.138786880E1,2.261946259E0,1.237261658E1
3.590281583E0,4.456831970E0,1.130763565E1,1.155596924E0,1.220906956E1
3.600359583E0,4.718487854E0,1.137619308E1,-1.398092651E-1,1.231671398E1
3.610438583E0,5.082680511E0,1.155177795E1,-9.063652039E-1,1.265301201E1
3.620517583E0,5.401966553E0,1.171898026E1,-1.362167358E0,1.297579442E1
3.630595583E0,5.662125549E0,1.187570435E1,-1.648671570E0,1.325934151E1
3.640674583E0,5.746100922E0,1.225426712E1,-1.985471191E0,1.367943107E1
3.650752583E0,5.501210175E0,1.260858032E1,-2.430795135E0,1.396955175E1
3.660831583E0,4.858147430E0,1.206101898E1,-2.306553497E0,1.320567925E1
3.670909583E0,3.463946686E0,1.052581146E1,-7.520361328E-1,1.110662829E1
3.680988583E0,1.479673004E0,9.233399048E0,2.303709412E-1,9.354045165E0
3.691067583E0,-9.699829102E-2,9.401499481E0,-2.002835083E-1,9.404132849E0
3.701145583E0,-7.683522034E-1,1.066277664E1,2.616558838E-1,1.069362589E1
3.711224583E0,-1.628613281E-1,1.160491745E1,1.871258698E0,1.175594496E1
3.721302583E0,1.309776306E0,1.234393066E1,3.374881897E0,1.286382393E1
3.731381583E0,2.600392456E0,1.316362610E1,4.038152618E0,1.401248620E1
3.741459583E0,3.331322479E0,1.389710083E1,3.863465881E0,1.480383361E1
3.751538583E0,3.403472443E0,1.450334015E1,3.315305786E0,1.526177423E1
3.761617583E0,3.134781189E0,1.530177979E1,3.014132080E0,1.590774371E1
3.771695583E0,2.848127289E0,1.635109772E1,3.019221497E0,1.686967469E1
3.781774583E0,2.759810944E0,1.710672638E1,2.205663300E0,1.746773009E1
3.791852583E0,2.524649963E0,1.748109787E1,-3.844006348E-1,1.766664665E1
3.801931583E0,1.065933380E0,1.655721909E1,-2.929707642E0,1.684817215E1
3.812009583E0,-5.857319641E-1,1.410861099E1,-3.650309143E0,1.458494919E1
3.822088583E0,-1.156644745E0,1.191162964E1,-2.293829956E0,1.218549973E1
3.832166583E0,-1.061442719E0,1.007479935E1,-1.216669922E0,1.020335867E1
3.842245583E0,-9.289682007E-1,8.508157196E0,-1.279838562E0,8.653883957E0
3.852324583E0,-8.393046570E-1,7.400760040E0,-6.215075684E-1,7.474085438E0
3.862402583E0,-1.158291321E0,6.401438141E0,4.296066284E-1,6.519556036E0
3.872481583E0,-1.015637970E0,5.964047699E0,8.301736450E-1,6.106600832E0
3.882559583E0,-5.795947266E-1,5.425916748E0,1.540147247E0,5.669969678E0
3.892638583E0,1.930984497E-1,4.949756927E0,1.871109009E0,5.295132631E0
3.902716583E0,7.417076111E-1,4.499493256E0,2.142195282E0,5.038310269E0
3.912795583E0,8.869056702E-1,4.017944641E0,2.750081177E0,4.949083479E0
3.922874583E0,1.483115845E0,3.594175873E0,2.406844940E0,4.572814820E0
3.932952583E0,2.047292633E0,3.066223755E0,1.694626007E0,4.057695472E0
3.943031583E0,2.488574982E0,2.752625885E0,1.466949463E-1,3.713687401E0
3.953109583E0,1.494342499E0,2.554438019E0,-8.659492493E-1,3.083517666E0
3.963188583E0,-5.992039490E-1,2.774330750E0,-3.444337463E-1,2.859124182E0
3.973266583E0,-1.814676361E0,3.130889282E0,6.051914978E-1,3.669029128E0
3.983345583E0,-1.992207184E0,3.441194000E0,3.643423462E-1,3.992925113E0
3.993424583E0,-1.725162506E0,3.774401093E0,-1.824705505E-1,4.153984206E0
4.003502583E0,-1.345851288E0,4.133204956E0,-3.207829285E-1,4.358623703E0
4.013581583E0,-8.940907288E-1,4.558919678E0,-1.137634277E-1,4.647159237E0
4.023659583E0,-6.625222778E-1,4.913232880E0,-3.390449524E-1,4.969280086E0
4.033738583E0,-7.560777283E-1,5.307812347E0,-9.514215088E-1,5.445156410E0
4.043816583E0,-8.424481201E-1,6.332431641E0,-1.669777679E0,6.602845358E0
4.053895583E0,-7.908055115E-1,8.549471283E0,-3.432512054E0,9.246673541E0
4.063974583E0,5.057981873E-1,1.279329620E1,-6.987918549E0,1.458613263E1
4.074052583E0,3.218606873E0,1.994692017E1,-1.480241821E1,2.504696866E1
4.084131583E0,5.172194366E0,2.437995163E1,-2.612891464E1,3.610891602E1
4.094209583E0,4.544549561E0,2.326222595E1,-2.440285400E1,3.401886786E1
4.104288583E0,2.666105804E0,1.880165176E1,-1.372016876E1,2.342761746E1
4.114366583E0,1.688937836E0,1.447953964E1,-6.175557861E0,1.583183799E1
4.124445583E0,2.142644348E0,1.159593613E1,-1.786235504E0,1.192674711E1
4.134523583E0,3.253783722E0,9.814790039E0,-5.054988098E-1,1.035242682E1
4.144602583E0,1.046024780E0,9.545949097E0,-1.177002411E0,9.674949440E0
4.154681583E0,-5.303471375E-1,9.936636658E0,-1.720522156E0,1.009842625E1
4.164759583E0,-1.208137665E0,9.379345551E0,-1.121916962E0,9.523151644E0
4.174838583E0,-1.735491028E0,8.457263031E0,9.011260986E-2,8.633964754E0
4.184916583E0,-1.210233307E0,9.185947723E0,1.514550476E0,9.388299280E0
4.194995583E0,-6.159690857E-1,1.025038422E1,2.706222382E0,1.061948370E1
4.205073583E0,-1.077758789E-1,1.066756668E1,4.277055817E0,1.149355476E1
4.215152583E0,3.466790771E-1,1.096948883E1,4.465214539E0,1.184854474E1
4.225231583E0,3.153941345E-1,1.149639313E1,3.127296753E0,1.191832679E1
4.235310333E0,-5.584886169E-1,1.149235153E1,3.537593536E0,1.203746740E1
4.245389333E0,-1.552870789E0,1.072085587E1,3.523822174E0,1.139146527E1
4.255467333E0,-2.006277924E0,9.397308197E0,1.147364044E0,9.677344507E0
4.265546333E0,-1.638941803E0,7.910599823E0,-1.491947479E0,8.215207062E0
4.275624333E0,2.062710571E-1,7.396419067E0,-3.911366272E-1,7.409625539E0
4.285703333E0,1.396745453E0,7.970625000E0,2.157912598E0,8.374864031E0
4.295781333E0,1.522184601E0,8.878337402E0,3.529510345E0,9.674676443E0
4.305860333E0,1.648222504E0,9.616602173E0,3.848197632E0,1.048829346E1
4.315939333E0,2.011966095E0,1.012928604E1,3.479065247E0,1.089744641E1
4.326017333E0,2.451901245E0,1.028361511E1,2.920277252E0,1.096779735E1
4.336096333E0,2.741249542E0,1.001926483E1,2.165696411E0,1.061086037E1
4.346174333E0,3.427272949E0,9.278605042E0,-7.430548096E-1,9.919215787E0
4.356253333E0,4.267176361E0,8.241711273E0,-4.053420868E0,1.012742907E1
4.366331333E0,3.657344513E0,7.848329315E0,-2.341880035E0,8.969773912E0
4.376410333E0,2.968177643E0,7.641908569E0,1.211131439E0,8.287079369E0
4.386489333E0,2.618804169E0,7.546556854E0,3.237916718E0,8.619324817E0
4.396567333E0,2.150128784E0,7.635022888E0,3.323239288E0,8.600031841E0
4.406646333E0,1.995500336E0,7.781717834E0,2.035467224E0,8.287356687E0
4.416724333E0,1.800455933E0,8.104446716E0,7.755372620E-1,8.338174632E0
4.426803333E0,1.325643311E0,8.557255096E0,-2.067201233E-1,8.661794166E0
4.436881333E0,1.321601715E0,8.931776276E0,-5.513035583E-1,9.045838499E0
4.446960333E0,1.483714600E0,9.307195587E0,-1.257385254E-1,9.425556158E0
4.457039333E0,1.614692230E0,9.505982208E0,6.318360901E-1,9.662822858E0
4.467117333E0,1.712289276E0,9.565857697E0,1.105600891E0,9.780589009E0
4.477196333E0,1.872905273E0,9.279503174E0,1.052461395E0,9.524947680E0
4.487274333E0,2.163900146E0,8.885372772E0,4.977149963E-1,9.158604335E0
4.497353333E0,2.389780426E0,8.541088715E0,-1.821711731E-1,8.870988291E0
4.507431333E0,2.443368988E0,8.378077698E0,-4.899311829E-1,8.740839232E0
4.517510333E0,2.672392731E0,8.469238129E0,-2.412982178E-1,8.884137674E0
4.527589333E0,3.114573212E0,8.829538879E0,2.242337036E-1,9.365447339E0
4.537667333E0,3.295247498E0,9.332043915E0,4.583468628E-1,9.907359968E0
4.547746333E0,3.372636566E0,9.844428406E0,1.944456482E-1,1.040794202E1
4.557824333E0,3.364253998E0,1.005653732E1,-6.453080750E-1,1.062396209E1
4.567903333E0,2.240840149E0,9.769284668E0,-1.330283661E0,1.011088236E1
4.577981333E0,1.146765289E0,9.569150848E0,-1.251846771E0,9.718582146E0
4.588060333E0,1.115779724E0,9.808203735E0,-6.536906433E-1,9.893085280E0
4.598138333E0,1.398242340E0,1.020712418E1,4.791535950E-1,1.031358588E1
4.608217333E0,2.211650848E0,1.038719971E1,2.094145203E0,1.082454439E1
4.618296333E0,3.846551056E0,1.031834290E1,3.185375977E0,1.146345390E1
4.628374333E0,4.842430115E0,1.026205994E1,2.909499664E0,1.171427300E1
4.638453333E0,4.578379211E0,1.028092072E1,2.105521545E0,1.144954619E1
4.648531333E0,4.558620300E0,1.042102936E1,1.185235291E0,1.143606814E1
4.658610333E0,4.832700348E0,1.066277664E1,1.571731567E-2,1.170683755E1
4.668688333E0,5.273383942E0,1.102951401E1,-1.140478363E0,1.227841392E1
4.678767333E0,5.685626678E0,1.153516251E1,-1.506766663E0,1.294823040E1
4.688846333E0,5.871390381E0,1.229513214E1,-1.413809967E0,1.369826113E1
4.698924333E0,5.676046600E0,1.311153442E1,-1.943708038E0,1.441900971E1
4.709003333E0,5.026098175E0,1.352991440E1,-2.748284912E0,1.469262796E1
4.719081333E0,3.796555023E0,1.340282867E1,-2.282453613E0,1.411592154E1
4.729160333E0,2.295476532E0,1.291663971E1,-6.179150391E-1,1.313356817E1
4.739238333E0,5.598358154E-2,1.182046921E1,-1.813927917E0,1.195896989E1
4.749317333E0,-1.186582489E0,1.137020554E1,-2.123633881E0,1.162752651E1
4.759396333E0,-9.337582397E-1,1.125704086E1,-3.008743286E-1,1.129970791E1
4.769474333E0,-1.827699280E-1,1.182181641E1,2.300266571E0,1.204491487E1
4.779553333E0,1.972897339E-1,1.269674698E1,4.304598541E0,1.340805264E1
4.789631333E0,5.105882263E-1,1.364547409E1,4.848267975E0,1.449018171E1
4.799710333E0,8.907975769E-1,1.482591934E1,4.544250183E0,1.553227654E1
4.809788333E0,1.255738678E0,1.621488098E1,3.948638763E0,1.673591924E1
4.819867333E0,1.318607941E0,1.730251923E1,2.913241882E0,1.759553570E1
4.829945333E0,9.550140381E-1,1.831830688E1,-2.622546387E-1,1.834505918E1
4.840024333E0,-1.173559570E-1,1.904055496E1,-5.514083405E0,1.982325961E1
4.850103333E0,-1.910477142E0,1.764695297E1,-7.422464905E0,1.923948693E1
4.860181333E0,-3.210074615E0,1.485106705E1,-4.461322632E0,1.583547193E1
4.870260333E0,-3.430715790E0,1.203871536E1,8.373587036E-1,1.254598135E1
4.880338333E0,-3.431913300E0,9.848470001E0,3.379073181E0,1.096305276E1
4.890417333E0,-2.393971710E0,8.223898315E0,2.137105865E0,8.827843765E0
4.900495333E0,-7.816744995E-1,7.012617188E0,5.298980713E-2,7.056247073E0
4.910574333E0,-2.104623413E-1,6.123166809E0,-4.486170959E-1,6.143185124E0
4.920653333E0,-4.442761230E-1,5.381309509E0,3.206332397E-1,5.409129226E0
4.930731333E0,-1.517693939E0,4.504432983E0,1.964215393E0,5.143097657E0
4.940810333E0,-7.027885437E-1,3.200045471E0,2.094294891E0,3.888479632E0
4.950888333E0,1.447489929E-1,2.248773651E0,2.900069275E0,3.672647139E0
4.960967333E0,1.815275116E0,2.110610962E0,2.610122223E0,3.816102776E0
4.971045333E0,2.384691010E0,2.342778168E0,1.263971558E0,3.573931288E0
4.981124333E0,1.128952332E0,2.741249542E0,7.252418518E-1,3.052041639E0
4.991202333E0,8.159532166E-1,2.852318573E0,5.119354248E-2,2.967174021E0
5.001281333E0,3.585044861E-1,2.756517792E0,-3.591032410E-1,2.802832664E0
5.011360333E0,-1.642085266E-1,2.745141449E0,-4.044589233E-1,2.779631817E0
5.021438333E0,-3.266207886E-1,3.011287994E0,-1.526824951E-1,3.032795487E0
5.031517333E0,-3.065625000E-1,3.209475861E0,-8.262817383E-2,3.225142366E0
5.041595333E0,-1.222956848E-1,3.134781189E0,-5.403762817E-1,3.183365493E0
5.051674333E0,-2.053729248E-1,3.205583954E0,-8.916957092E-1,3.333626818E0
5.061752333E0,-6.132746887E-1,3.685336304E0,-9.503736877E-1,3.854999308E0
5.071831333E0,-1.061442719E0,4.609813843E0,-1.071322174E0,4.850234583E0
5.081910333E0,-9.253756714E-1,6.467450867E0,-1.302890625E0,6.661964037E0
5.091988333E0,1.945953369E-2,9.772128754E0,-2.545307007E0,1.009819126E1
5.102067333E0,1.955383759E0,1.486468872E1,-7.002438354E0,1.654740582E1
5.112145333E0,5.992787933E0,2.215752319E1,-1.950234467E1,3.011994005E1
5.122224333E0,9.680968323E0,2.654400146E1,-2.462529144E1,3.747946291E1
5.132302333E0,1.058508820E1,2.418760162E1,-1.763363068E1,3.174947394E1
5.142381333E0,9.722432098E0,1.806877579E1,-1.092084000E1,2.324373229E1
5.152459333E0,8.046068115E0,1.235470825E1,-7.041207733E0,1.633880762E1
5.162538333E0,5.434748383E0,9.094038849E0,-3.876638489E0,1.128123923E1
5.172617333E0,1.872306519E0,7.975115662E0,-1.596430206E0,8.346052415E0
5.182695333E0,7.902067566E-1,8.933273163E0,-2.081870728E0,9.206627061E0
5.192774333E0,6.704557800E-1,9.850266266E0,-7.921527100E-1,9.904784822E0
5.202852333E0,1.757345581E-1,9.549841003E0,3.391946411E-1,9.557478686E0
5.212931333E0,-3.942800903E-1,9.210945740E0,-1.181343384E0,9.294759298E0
5.223009333E0,-1.503323822E0,9.388027496E0,-3.650309143E0,1.018429181E1
5.233088083E0,-1.764231262E0,9.737999725E0,-1.174457703E0,9.965967163E0
5.243167083E0,-1.137185211E0,9.894574127E0,2.567311249E0,1.028527464E1
5.253245083E0,-1.222058716E0,9.931696930E0,3.357368317E0,1.055480712E1
5.263324083E0,-1.825603638E0,1.021176453E1,3.080593872E0,1.082141497E1
5.273402083E0,-1.481618958E0,1.060843964E1,3.325035553E0,1.121561624E1
5.283481083E0,-1.359173584E0,1.038300842E1,4.749473419E0,1.149833529E1
5.293559083E0,-1.542392578E0,9.635013885E0,4.932692413E0,1.093361431E1
5.303638083E0,-9.159452820E-1,8.840765533E0,3.485950928E0,9.547248025E0
5.313717083E0,1.324745178E-1,8.340206451E0,1.982327728E0,8.573576638E0
5.323795083E0,1.145118713E0,8.046666870E0,8.324189758E-1,8.170254949E0
5.333874083E0,1.656305695E0,8.197403412E0,4.326004028E-1,8.374241121E0
5.343952083E0,1.821861420E0,9.075627136E0,1.276096344E0,9.344228637E0
5.354031083E0,2.014510803E0,1.003857468E1,2.235151978E0,1.047984445E1
5.364109083E0,2.200424194E0,1.054482193E1,2.551893311E0,1.107010820E1
5.374188083E0,2.309696960E0,1.049018555E1,2.226470032E0,1.096977036E1
5.384266083E0,2.340383148E0,9.936037903E0,1.415007477E0,1.030555620E1
5.394345083E0,2.447560272E0,9.072034607E0,4.276606750E-1,9.406128686E0
5.404424083E0,2.758912811E0,8.576714630E0,3.459306335E-1,9.016168906E0
5.414502083E0,2.783611450E0,8.509953461E0,1.031504974E0,9.012868751E0
5.424581083E0,2.517913971E0,8.612939301E0,2.125130768E0,9.221648168E0
5.434659083E0,2.743045807E0,8.474327545E0,2.772534485E0,9.328744562E0
5.444738083E0,3.020269318E0,8.235424347E0,2.183209991E0,9.039394161E0
5.454816083E0,3.240611115E0,8.222401428E0,1.204694824E0,8.919682464E0
5.464895083E0,3.339405670E0,8.374485168E0,4.430786133E-1,9.026624548E0
5.474973083E0,3.436853027E0,8.588689728E0,2.981799316E-1,9.255617821E0
5.485052083E0,3.011737061E0,9.022188263E0,5.825885010E-1,9.529420262E0
5.495131083E0,2.341131592E0,9.316476288E0,1.024469604E0,9.660598611E0
5.505209083E0,1.898502045E0,9.445657654E0,1.495390320E0,9.749920550E0
5.515288083E0,1.755998383E0,9.407936096E0,1.508413239E0,9.688555228E0
5.525366083E0,1.724264374E0,9.308692474E0,9.361532593E-1,9.513213239E0
5.535445083E0,1.871558075E0,9.146429901E0,4.294569397E-1,9.345819537E0
5.545523083E0,2.061063995E0,8.905281372E0,3.035687256E-1,9.145718948E0
5.555602083E0,2.206112366E0,8.721613312E0,3.733236694E-1,9.004045818E0
5.565681083E0,2.259251862E0,8.630752258E0,4.001179504E-1,8.930520584E0
5.575759083E0,2.380200348E0,8.628357239E0,1.841171265E-1,8.952530450E0
5.585838083E0,2.412832489E0,8.897347870E0,-1.233435059E-1,9.219532166E0
5.595916083E0,2.329306183E0,9.578281860E0,-3.330574036E-1,9.863066355E0
5.605995083E0,2.112706604E0,1.022523651E1,-3.266207886E-1,1.044632337E1
5.616073083E0,1.789977722E0,1.056652679E1,-3.623963928E-1,1.072319168E1
5.626152083E0,1.631607056E0,1.039258850E1,-4.891827393E-1,1.053125525E1
5.636230083E0,2.102976837E0,9.885293427E0,-2.890489197E-1,1.011064226E1
5.646309083E0,3.465892639E0,9.876461792E0,3.068618774E-1,1.047144085E1
5.656388083E0,4.575834503E0,1.042791504E1,1.192420349E0,1.144995807E1
5.666466083E0,4.639152832E0,1.071995773E1,2.237097931E0,1.189301644E1
5.676545083E0,4.582420807E0,1.070798264E1,2.360890503E0,1.188416074E1
5.686623083E0,4.748425598E0,1.062759979E1,1.460662537E0,1.173145166E1
5.696702083E0,5.006039886E0,1.063972458E1,7.798782349E-1,1.178441278E1
5.706780083E0,5.306914215E0,1.072115524E1,4.339476013E-1,1.197058139E1
5.716859083E0,5.842051392E0,1.085916824E1,-3.348536682E-1,1.233544593E1
5.726938083E0,6.316115570E0,1.108624603E1,-1.039737854E0,1.280153201E1
5.737016083E0,6.267317047E0,1.165596130E1,-1.189576263E0,1.328742972E1
5.747095083E0,6.039490814E0,1.245245499E1,-1.483115845E0,1.391900561E1
5.757173083E0,5.465584259E0,1.289104294E1,-1.841320953E0,1.412239577E1
5.767252083E0,4.368365936E0,1.294792465E1,-1.741029510E0,1.377543312E1
5.777330083E0,3.079995117E0,1.277757889E1,-5.629792786E-1,1.315560101E1
5.787409083E0,1.576970673E0,1.216909424E1,-4.070036316E-1,1.227759517E1
5.797487083E0,1.981878662E-1,1.112336884E1,-2.214494934E0,1.134339458E1
5.807566083E0,-4.343966675E-1,1.066891388E1,-1.842219086E0,1.083550622E1
5.817645083E0,-2.417472839E-1,1.068687653E1,3.929328918E-1,1.069682981E1
5.827723083E0,3.373983765E-1,1.123608444E1,2.884501648E0,1.160533416E1
5.837802083E0,8.782237244E-1,1.234318222E1,4.723128204E0,1.324512606E1
5.847880083E0,1.298549652E0,1.336271210E1,5.043013000E0,1.434155800E1
5.857959083E0,1.608554993E0,1.439825867E1,4.632865906E0,1.521054727E1
5.868037083E0,1.685045929E0,1.527438675E1,3.860023041E0,1.584443272E1
5.878116083E0,1.830842743E0,1.624077713E1,1.038540344E0,1.637661116E1
5.888195083E0,1.956281891E0,1.754112305E1,-4.584815826E0,1.823564018E1
5.898273083E0,5.842350769E-1,1.701676346E1,-6.375991058E0,1.818144194E1
5.908352083E0,-1.233435059E0,1.494956223E1,-4.130809937E0,1.555873914E1
5.918430083E0,-1.689686279E0,1.292247757E1,-1.147214355E0,1.308287304E1
5.928509083E0,-1.656305695E0,1.121422989E1,8.960366821E-1,1.137124366E1
5.938587083E0,-1.619931335E0,9.758357391E0,1.873354340E0,1.006772929E1
5.948666083E0,-1.414408722E0,8.341553650E0,1.026864624E0,8.522706160E0
5.958744083E0,-1.130299530E0,7.109615479E0,7.295828247E-1,7.235779183E0
5.968823083E0,-1.305585022E0,6.135291595E0,1.667382660E0,6.490494599E0
5.978902083E0,-1.091679840E0,5.311554565E0,1.721270599E0,5.689213412E0
5.988980083E0,1.522334290E-1,4.388723602E0,1.274599457E0,4.572600316E0
5.999059083E0,6.291416931E-1,3.504512329E0,1.812580719E0,3.995356655E0
6.009137083E0,1.448986816E0,3.243155823E0,1.514400787E0,3.861480575E0
6.019216083E0,2.158361664E0,3.140020294E0,8.680448914E-1,3.907909218E0
6.029294083E0,1.666484528E0,2.944975891E0,5.634283447E-1,3.430379743E0
6.039373083E0,1.101259918E0,2.765798492E0,5.134323120E-1,3.020931553E0
6.049452083E0,6.921606445E-1,2.634371796E0,4.092489624E-1,2.754357607E0
6.059530083E0,2.475851440E-1,2.679727478E0,3.192860413E-1,2.710015007E0
6.069609083E0,2.986289978E-1,2.779569855E0,5.164260864E-2,2.796042706E0
6.079687083E0,3.124003601E-1,2.705324249E0,-2.902464294E-1,2.738725300E0
6.089766083E0,8.442443848E-2,2.555785217E0,-7.069798279E-1,2.653108750E0
6.099844083E0,-4.162843323E-1,2.619253235E0,-9.994715881E-1,2.834205993E0
6.109923083E0,-1.005608826E0,3.179238739E0,-6.800358582E-1,3.403124570E0
6.120001083E0,-1.177152100E0,4.345014496E0,4.144880676E-1,4.520690035E0
6.130080083E0,-9.550140381E-1,5.698200531E0,4.044589233E-1,5.791815616E0
6.140159083E0,-2.685415649E-1,8.044421539E0,-1.406475220E0,8.170863175E0
6.150237083E0,1.775308228E0,1.226953537E1,-5.902076569E0,1.373053988E1
6.160316083E0,4.935536499E0,1.830902618E1,-1.372735382E1,2.340983134E1
6.170394083E0,7.526947632E0,2.329081650E1,-1.822115891E1,3.051438522E1
6.180473083E0,9.213640137E0,2.464085907E1,-1.666993469E1,3.114401745E1
6.190551083E0,9.316775665E0,2.173435318E1,-1.113055389E1,2.613567766E1
6.200630083E0,8.076155548E0,1.727168335E1,-6.980883179E0,2.030438534E1
6.210708083E0,6.284830627E0,1.343321548E1,-4.738246765E0,1.556924393E1
6.220787083E0,4.348307648E0,1.045306274E1,-4.649331665E0,1.223889640E1
6.230865833E0,2.662213898E0,8.687334595E0,-4.139192505E0,9.984491965E0
6.240943833E0,9.761201477E-1,7.622898102E0,-1.228046265E0,7.782639889E0
6.251022833E0,1.281335449E-1,7.188052368E0,2.022294617E-1,7.192038084E0
6.261100833E0,9.026229858E-2,7.670349426E0,-5.495072937E-1,7.690537424E0
6.271179833E0,-1.679507446E-1,8.685538330E0,-2.341131592E-1,8.690316019E0
6.281257833E0,-1.701960754E-1,1.006072861E1,2.777174835E0,1.043838718E1
6.291336833E0,2.354603577E-1,1.130943192E1,4.635260925E0,1.222474277E1
6.301415833E0,-6.017486572E-2,1.262324982E1,4.792733459E0,1.350260534E1
6.311493833E0,-5.454656982E-1,1.371971970E1,4.285438385E0,1.438378335E1
6.321572833E0,-1.234033813E0,1.347931961E1,4.406536560E0,1.423490292E1
6.331650833E0,-1.743125153E0,1.235680389E1,3.529061279E0,1.296855278E1
6.341729833E0,-1.668131104E0,1.066083069E1,2.129172363E0,1.099860661E1
6.351807833E0,-1.386416931E0,8.824449463E0,8.116122437E-1,8.969491327E0
6.361886833E0,-1.398541718E0,7.195087738E0,-9.638456726E-1,7.392848232E0
6.371964833E0,-1.072819061E0,6.071224823E0,-1.238823853E0,6.288513030E0
6.382043833E0,-1.148112488E-1,6.445596313E0,1.109792175E0,6.541447251E0
6.392122833E0,4.493655396E-1,7.878416748E0,3.259172516E0,8.537774027E0
6.402200833E0,9.918374634E-1,9.198222198E0,4.124523010E0,1.012930023E1
6.412279833E0,1.636097717E0,9.979297943E0,3.995491333E0,1.087323108E1
6.422357833E0,2.205812988E0,1.030038025E1,3.164868622E0,1.099908349E1
6.432436833E0,3.183879089E0,1.015293686E1,6.541397095E-1,1.066053993E1
6.442514833E0,4.259542236E0,9.754465485E0,-2.073039093E0,1.084392863E1
6.452593833E0,4.089795227E0,9.187294922E0,-7.312294006E-1,1.008303077E1
6.462672833E0,3.497027893E0,8.621471558E0,1.850002899E0,9.485857190E0
6.472750833E0,3.292553101E0,8.191116486E0,2.997217255E0,9.323014881E0
6.482829833E0,3.162623291E0,7.779173126E0,2.939287720E0,8.897029443E0
6.492907833E0,3.269051971E0,7.691904602E0,2.029479675E0,8.600632823E0
6.502986833E0,3.351530457E0,8.059989166E0,7.890092468E-1,8.764628763E0
6.513064833E0,3.258124695E0,8.598120117E0,1.044827271E-1,9.195322872E0
6.523143833E0,2.861599274E0,9.064250793E0,1.255888367E-1,9.506059405E0
6.533221833E0,2.387086029E0,9.342073059E0,2.950364685E-1,9.646738064E0
6.543300833E0,2.204465790E0,9.423653412E0,3.008743286E-1,9.682739200E0
6.553379833E0,2.156266022E0,9.372759247E0,3.712280273E-2,9.617664850E0
6.563457833E0,2.183808746E0,9.227112122E0,-2.619552612E-1,9.485633311E0
6.573536833E0,2.342927856E0,8.949888611E0,-1.237925720E-1,9.252304669E0
6.583614833E0,2.543660431E0,8.687334595E0,3.273692322E-1,9.057988814E0
6.593693833E0,2.656226349E0,8.488547974E0,6.843768311E-1,8.920726246E0
6.603771833E0,2.641856232E0,8.362809448E0,5.653742981E-1,8.788380642E0
6.613850833E0,2.506986694E0,8.440198517E0,-9.580078125E-2,8.805175244E0
6.623929833E0,2.364483032E0,9.078920288E0,-2.671943665E-1,9.385572249E0
6.634007833E0,1.768422546E0,9.850715332E0,4.206253052E-1,1.001702733E1
6.644086833E0,9.190887451E-1,1.010638367E1,4.680766296E-1,1.015887842E1
6.654164833E0,4.592449951E-1,9.857601013E0,1.814227295E-1,9.869960380E0
6.664243833E0,4.608915710E-1,9.382788391E0,2.694396973E-2,9.394139929E0
6.674321833E0,1.102008362E0,9.010662231E0,3.535647583E-1,9.084682951E0
6.684400833E0,2.997067566E0,9.133706360E0,1.621278534E0,9.748617848E0
6.694478833E0,4.182153168E0,1.007435028E1,3.217259674E0,1.137249746E1
6.704557833E0,4.011807404E0,1.085482727E1,3.736380157E0,1.216069120E1
6.714636833E0,4.313430176E0,1.163141235E1,2.462080078E0,1.264742154E1
6.724714833E0,5.285508728E0,1.214424591E1,-1.077758789E-2,1.324459993E1
6.734793833E0,6.269712067E0,1.214110245E1,-9.056167603E-1,1.369437110E1
6.744871833E0,6.775659943E0,1.166075134E1,-4.984634399E-2,1.348648116E1
6.754950833E0,7.261699219E0,1.090512268E1,3.905378723E-1,1.310749770E1
6.765028833E0,7.300468597E0,1.025203079E1,1.537303162E-1,1.258668384E1
6.775107833E0,6.190227356E0,1.014021332E1,-5.318440247E-1,1.189225374E1
6.785185833E0,4.183500366E0,1.094164673E1,-1.810784454E0,1.185328009E1
6.795264833E0,3.077600098E0,1.153740784E1,-2.714006195E0,1.224537593E1
6.805343833E0,2.871329041E0,1.160791122E1,-1.645528107E0,1.207045551E1
6.815421833E0,2.228865051E0,1.145043869E1,-4.067042542E-1,1.167243736E1
6.825500833E0,1.122216339E0,1.108295288E1,-1.526375885E0,1.124371102E1
6.835578833E0,3.826043701E-1,1.092069031E1,-2.499352570E0,1.120957743E1
6.845657833E0,6.391708374E-2,1.082069824E1,-1.887724457E0,1.098431152E1
6.855735833E0,4.149371338E-1,1.084494781E1,-1.101708984E-1,1.085344201E1
6.865814833E0,8.713380432E-1,1.129251709E1,2.326013031E0,1.156246119E1
6.875893833E0,1.259480896E0,1.194830338E1,4.383484497E0,1.278918223E1
6.885971833E0,1.607956238E0,1.283416122E1,4.718038788E0,1.376811925E1
6.896050833E0,1.841320953E0,1.434511917E1,3.329077148E0,1.484101282E1
6.906128833E0,1.945354614E0,1.670915314E1,-2.671943665E-1,1.682413730E1
6.916207833E0,1.812880096E0,1.919757843E1,-5.334606628E0,2.000728816E1
6.926285833E0,1.228495331E0,2.013882111E1,-5.704786835E0,2.096725803E1
6.936364833E0,6.661148071E-2,1.862367188E1,-3.021616516E0,1.886731983E1
6.946442833E0,-1.116528168E0,1.574695404E1,-8.502319336E-1,1.580936719E1
6.956521833E0,-1.831890564E0,1.287203247E1,1.805395660E0,1.312648073E1
6.966600833E0,-2.262395325E0,1.081680634E1,2.627037048E0,1.135883161E1
6.976678833E0,-2.406994629E0,9.339528351E0,1.385668488E0,9.743741074E0
6.986757833E0,-2.161205750E0,8.126151581E0,-3.580554199E-1,8.416255313E0
6.996835833E0,-1.820514221E0,7.047344971E0,-8.415499878E-1,7.327178826E0
7.006914833E0,-1.654509430E0,6.232289886E0,-1.957928467E-1,6.451137382E0
7.016992833E0,-1.622176666E0,5.229824524E0,1.477427673E0,5.671447277E0
7.027071833E0,-1.086291046E0,4.397854614E0,2.035167847E0,4.966191862E0
7.037149833E0,8.262817383E-2,3.926784210E0,1.972897339E0,4.395314045E0
7.047228833E0,1.202299805E0,3.645219727E0,1.458417206E0,4.106109158E0
7.057307833E0,1.650467834E0,3.220552826E0,9.623487854E-1,3.744612098E0
7.067385833E0,2.960393829E0,2.768343201E0,-6.496490479E-2,4.053625062E0
7.077464833E0,3.092419281E0,2.319426727E0,-4.212240601E-1,3.888473616E0
7.087542833E0,2.392774200E0,2.075583801E0,-3.272195435E-1,3.184413466E0
7.097621833E0,1.105750580E0,2.238594818E0,2.859054565E-2,2.496959856E0
7.107699833E0,4.058061218E-1,2.619253235E0,3.635939026E-1,2.675325521E0
7.117778833E0,4.391867065E-1,2.766846313E0,3.986210632E-1,2.829703560E0
7.127857833E0,4.249662781E-1,2.830613708E0,4.909790039E-2,2.862757571E0
7.137935833E0,1.809736633E-1,2.944676514E0,-3.579057312E-1,2.971862673E0
7.148014833E0,-2.686912537E-1,3.359613647E0,-3.004252625E-1,3.383704211E0
7.158092833E0,-7.973918152E-1,4.539759521E0,4.520599365E-2,4.609478691E0
7.168171833E0,-1.179247742E0,6.551276550E0,-8.164022827E-1,6.706441856E0
7.178249833E0,-6.265969849E-1,9.539512482E0,-3.334316254E0,1.012484998E1
7.188328833E0,2.017953644E0,1.383991974E1,-8.230035553E0,1.622803132E1
7.198406833E0,5.547164612E0,1.903905807E1,-1.405307648E1,2.430526128E1
7.208485833E0,7.994425507E0,2.260688873E1,-1.709969101E1,2.945134445E1
7.218564833E0,9.255253601E0,2.103351059E1,-1.582883377E1,2.790376794E1
7.228642583E0,8.587941284E0,1.745669861E1,-1.075528427E1,2.222982685E1
7.238721583E0,7.342082062E0,1.457459198E1,-6.637497253E0,1.761764088E1
7.248799583E0,6.173312531E0,1.218226685E1,-5.278772736E0,1.464181869E1
7.258878583E0,4.012705536E0,1.071367081E1,-6.137985992E0,1.298304355E1
7.268956583E0,1.470242615E0,1.014859589E1,-4.549189911E0,1.121832165E1
7.279035583E0,6.198609924E-1,9.504934387E0,-1.615889740E0,9.661216539E0
7.289113583E0,6.361770630E-2,8.417595520E0,-2.282752991E-1,8.420930540E0
7.299192583E0,-1.068777466E-1,7.783514099E0,-1.080153809E0,7.858832409E0
7.309271583E0,-3.716770935E-1,8.389753418E0,-1.715732117E0,8.571455126E0
7.319349583E0,-2.152523804E-1,9.849517822E0,-4.071533203E-2,9.851953748E0
7.329428583E0,4.635859680E-1,1.143996048E1,2.179617462E0,1.165497061E1
7.339506583E0,1.926493835E-1,1.301767960E1,2.447111206E0,1.324709210E1
7.349585583E0,-4.269122314E-1,1.432401306E1,1.475631409E0,1.440614773E1
7.359663583E0,-9.354048157E-1,1.386147491E1,2.773133240E0,1.416706522E1
7.369742583E0,-1.968107300E0,1.170416107E1,5.828878784E0,1.322258147E1
7.379821583E0,-1.979333954E0,9.461973724E0,5.345982971E0,1.104654894E1
7.389899583E0,-1.067579956E0,7.568710785E0,3.033292236E0,8.223501183E0
7.399978583E0,-5.628295898E-1,6.373146973E0,4.878355408E-1,6.416522656E0
7.410056583E0,-2.504292297E-1,5.787265320E0,-7.894583130E-1,5.846229478E0
7.420135583E0,5.287005615E-1,6.804998932E0,1.461261292E0,6.980173301E0
7.430213583E0,7.102729797E-1,8.370742950E0,3.831432495E0,9.233293032E0
7.440292583E0,9.601034546E-1,9.747879181E0,4.615951080E0,1.082820168E1
7.450370583E0,1.448537750E0,1.062550415E1,4.445305939E0,1.160863235E1
7.460449583E0,1.952839050E0,1.087473587E1,3.737128601E0,1.166360111E1
7.470528583E0,2.962040405E0,1.062864761E1,6.405180359E-1,1.105224397E1
7.480606583E0,4.506528625E0,1.002300705E1,-4.425547028E0,1.184714890E1
7.490685583E0,4.490511932E0,9.373807068E0,-3.736978912E0,1.104526902E1
7.500763583E0,3.613785095E0,8.997489624E0,5.403762817E-2,9.696245785E0
7.510842583E0,3.004701691E0,8.699309692E0,2.930755463E0,9.658962106E0
7.520920583E0,2.952160950E0,8.274942169E0,4.354594574E0,9.805733837E0
7.530999583E0,3.164269867E0,7.695497131E0,3.695814514E0,9.104522218E0
7.541077583E0,3.187022552E0,7.419620819E0,1.744622040E0,8.261452167E0
7.551156583E0,3.190465393E0,7.421417084E0,-1.812730408E-1,8.080183220E0
7.561235583E0,3.156186676E0,7.915838928E0,-8.906478882E-1,8.568271350E0
7.571313583E0,2.918181610E0,8.651259613E0,-3.896397400E-1,9.138484334E0
7.581392583E0,2.612666931E0,9.182205505E0,3.594026184E-1,9.553433764E0
7.591470583E0,2.640359344E0,9.396260376E0,7.086264038E-1,9.785875428E0
7.601549583E0,2.796634369E0,9.418563995E0,5.722599792E-1,9.841645849E0
7.611627583E0,2.762954407E0,9.381590881E0,2.523751831E-1,9.783243723E0
7.621706583E0,2.781515808E0,9.163793793E0,6.017486572E-2,9.576824520E0
7.631785583E0,2.903063049E0,8.851393433E0,2.242337036E-1,9.318005233E0
7.641863583E0,3.020269318E0,8.702902222E0,5.932164001E-1,9.231166748E0
7.651942583E0,3.146307220E0,8.755293274E0,6.340814209E-1,9.325045238E0
7.662020583E0,3.190465393E0,8.860075378E0,2.234852600E-1,9.419657679E0
7.672099583E0,2.889591064E0,8.967402191E0,-3.132984924E-1,9.426674627E0
7.682177583E0,2.182311859E0,8.915909271E0,-4.471202087E-1,9.189985836E0
7.692256583E0,1.733994141E0,9.042545929E0,-1.941462708E-1,9.209346629E0
7.702334583E0,1.634002075E0,9.399553528E0,1.559756470E-1,9.541797404E0
7.712413583E0,1.615889740E0,9.787846069E0,5.328918457E-1,9.934636584E0
7.722492583E0,2.006128235E0,1.026445496E1,1.273102570E0,1.053586144E1
7.732570583E0,3.128643951E0,1.077219910E1,2.251318359E0,1.144102796E1
7.742649583E0,4.155957642E0,1.086006638E1,2.655777283E0,1.192753866E1
7.752727583E0,4.285588074E0,1.079659836E1,2.272574158E0,1.183627452E1
7.762806583E0,4.331392822E0,1.063942520E1,1.819466400E0,1.163051118E1
7.772884583E0,4.364773407E0,1.053509216E1,1.683998108E0,1.152715331E1
7.782963583E0,4.588258667E0,1.065154999E1,1.206940155E0,1.166037475E1
7.793041583E0,5.003195801E0,1.102202957E1,2.200424194E-1,1.210642485E1
7.803120583E0,5.335055695E0,1.163021484E1,-6.321354675E-1,1.281110112E1
7.813199583E0,5.591921539E0,1.242566071E1,-1.058149567E0,1.366697885E1
7.823277583E0,5.804030457E0,1.303848633E1,-1.511856079E0,1.435181536E1
7.833356583E0,5.768404541E0,1.297277298E1,-1.733694763E0,1.430290276E1
7.843434583E0,4.953050079E0,1.233554810E1,-1.446741486E0,1.337129436E1
7.853513583E0,3.600911865E0,1.179292648E1,-6.030958557E-1,1.234517744E1
7.863591583E0,1.997595978E0,1.162692169E1,-4.384382629E-1,1.180541934E1
7.873670583E0,5.204676819E-1,1.129985184E1,-3.926335144E0,1.197387347E1
7.883749583E0,-1.586700439E-1,1.100571350E1,-6.344855804E0,1.270464880E1
7.893827583E0,-4.782554626E-1,1.093625793E1,-5.180427246E0,1.211062725E1
7.903906583E0,-1.101708984E-1,1.126467499E1,-1.437011719E0,1.135649783E1
7.913984583E0,3.156935120E-1,1.184801193E1,2.620899811E0,1.213854048E1
7.924063583E0,3.710783386E-1,1.235755234E1,5.499563599E0,1.353114920E1
7.934141583E0,3.626957703E-1,1.281140854E1,6.043831787E0,1.417009667E1
7.944220583E0,4.369413757E-1,1.328442490E1,5.377267914E0,1.433812654E1
7.954298583E0,4.688250732E-1,1.378588211E1,3.574416962E0,1.424944908E1
7.964377583E0,2.722837830E-1,1.517933441E1,-6.340814209E-1,1.519501204E1
7.974456583E0,6.167175293E-2,1.714250198E1,-4.999752960E0,1.785683923E1
7.984534583E0,-4.873864746E-1,1.737511826E1,-5.119204559E0,1.812011411E1
7.994613583E0,-1.141675873E0,1.584395233E1,-2.684966583E0,1.611034745E1
8.004691583E0,-1.168021088E0,1.374935806E1,-1.080752563E-1,1.379930435E1
8.014770583E0,-9.819580078E-1,1.169802383E1,1.274749146E0,1.180817465E1
8.024848583E0,-6.475534058E-1,9.579629059E0,8.705895996E-1,9.640878828E0
8.034927583E0,9.370513916E-2,7.954458618E0,1.393601990E-1,7.956231132E0
8.045005583E0,1.683998108E-1,6.655759277E0,3.359014893E-1,6.666357316E0
8.055084583E0,-1.239422607E-1,5.465284882E0,1.244811401E0,5.606626075E0
8.065163583E0,8.807684326E-1,4.403243408E0,1.423689423E0,4.710753349E0
8.075241583E0,2.242486725E0,3.218756561E0,1.860930176E0,4.341912209E0
8.085320583E0,3.287912750E0,2.287842407E0,1.884880371E0,4.426891364E0
8.095398583E0,4.024381256E0,1.933978271E0,1.012644196E0,4.578358299E0
8.105477583E0,4.691992950E0,2.079775085E0,-3.510200500E-1,5.144266452E0
8.115555583E0,3.924239502E0,2.257156219E0,-7.288343811E-1,4.585369061E0
8.125634583E0,1.933080139E0,2.622995453E0,-2.038760376E-1,3.264731139E0
8.135713583E0,5.384303284E-1,2.777923279E0,2.143542480E-1,2.837730203E0
8.145791583E0,2.013313293E-1,2.644700317E0,3.727249146E-2,2.652614429E0
8.155870583E0,2.457888794E-1,2.384541321E0,-6.682104492E-1,2.488564785E0
8.165948583E0,-3.053649902E-2,2.175875244E0,-1.236279144E0,2.502748824E0
8.176027583E0,-7.101232910E-1,2.551144867E0,-1.056203613E0,2.850996544E0
8.186105583E0,-8.502319336E-1,3.609444122E0,-7.776329041E-1,3.788890886E0
8.196184583E0,-8.529263306E-1,5.399122467E0,-7.854167175E-1,5.522217504E0
8.206262583E0,-7.791297913E-1,8.502918091E0,-2.118843842E0,8.797508654E0
8.216341583E0,-2.664459229E-2,1.274779083E1,-6.772965546E0,1.443537126E1
8.226420583E0,2.415975952E0,1.676259201E1,-1.410636566E1,2.204112027E1
8.236499583E0,5.307812347E0,2.007774811E1,-1.600067642E1,2.621660708E1
8.246578583E0,6.346801758E0,2.240645554E1,-1.324370956E1,2.679042712E1
8.256656583E0,6.895410919E0,2.056528427E1,-1.165775757E1,2.462480295E1
8.266735583E0,7.067103882E0,1.524085648E1,-9.394913177E0,1.924817022E1
8.276813583E0,7.212002563E0,1.080378342E1,-6.161786499E0,1.437714610E1
8.286892583E0,5.041665802E0,8.877139893E0,-5.022805023E0,1.137763495E1
8.296970583E0,2.115999756E0,8.909472656E0,-3.406017151E0,9.770215495E0
8.307049583E0,1.641486511E0,9.634115753E0,-2.833607483E-1,9.777062832E0
8.317128583E0,8.502319336E-1,1.053045181E1,2.083517303E0,1.076821035E1
8.327206583E0,6.060896301E-1,1.153591095E1,2.008672943E0,1.172515898E1
8.337285583E0,5.972579956E-1,1.205488174E1,-2.022294617E-1,1.207136230E1
8.347363583E0,-1.218466187E-1,1.195099777E1,-1.345252533E0,1.202709020E1
8.357442583E0,-3.522175598E-1,1.119536911E1,-8.563691711E-1,1.123359759E1
8.367520583E0,-4.041595459E-2,1.039109161E1,2.535726929E-1,1.039426368E1
8.377599583E0,1.293310547E-1,9.218280487E0,2.850073242E0,9.649680779E0
8.387677583E0,-2.986289978E-1,7.790399780E0,5.683980103E0,9.648167589E0
8.397756583E0,-3.035687256E-1,6.774462433E0,5.624853058E0,8.810474854E0
8.407835583E0,-1.110690308E-1,6.381080475E0,3.945046234E0,7.502927039E0
8.417913583E0,-3.248245239E-1,6.694229279E0,2.301913147E0,7.086396880E0
8.427992583E0,-6.692582703E-1,7.446714478E0,5.472619629E-1,7.496729874E0
8.438070583E0,-2.921923828E-1,8.693322144E0,2.360591125E-1,8.701433801E0
8.448149583E0,8.640032959E-1,1.017988083E1,1.743723907E0,1.036421963E1
8.458227583E0,1.049018555E0,1.109507767E1,3.055595856E0,1.155585801E1
8.468306583E0,1.061293030E0,1.123099503E1,3.460952911E0,1.179999098E1
8.478385583E0,1.338666229E0,1.056173676E1,3.313359833E0,1.114991767E1
8.488463583E0,1.951791229E0,9.676777039E0,2.580783234E0,1.020342810E1
8.498542583E0,3.148552551E0,9.063801727E0,-2.210902405E-1,9.597643764E0
8.508620583E0,4.632267151E0,8.803193665E0,-3.785478058E0,1.064349387E1
8.518699583E0,4.766987000E0,8.777596893E0,-2.031275940E0,1.019296101E1
8.528777583E0,4.286186829E0,8.940907288E0,1.364712067E0,1.000867922E1
8.538856583E0,4.135599976E0,9.048832855E0,2.902015228E0,1.036369893E1
8.548934583E0,4.390070801E0,8.802744598E0,2.672692108E0,1.019334671E1
8.559013583E0,4.805007935E0,8.297694855E0,1.355880432E0,9.683917229E0
8.569092583E0,4.779560852E0,7.790250092E0,-8.173004150E-2,9.139960516E0
8.579170583E0,4.031865692E0,7.631430359E0,-6.180647278E-1,8.653130895E0
8.589249583E0,3.008892975E0,7.927215271E0,-2.427951050E-1,8.482518986E0
8.599327583E0,2.579436035E0,8.327333221E0,5.057981873E-1,8.732342220E0
8.609406583E0,2.495760040E0,8.680897980E0,1.050964508E0,9.093477570E0
8.619484583E0,2.385589142E0,9.083860016E0,1.245410156E0,9.474101266E0
8.629563583E0,2.249073029E0,9.371112671E0,1.023421783E0,9.691412401E0
8.639641583E0,2.019899597E0,9.501341858E0,5.915698242E-1,9.731672330E0
8.649720583E0,1.883084106E0,9.462422791E0,2.725831604E-1,9.651826376E0
8.659799583E0,1.921404419E0,9.248667297E0,9.550140381E-2,9.446627030E0
8.669877583E0,2.034868469E0,8.934770050E0,9.894424438E-2,9.164092726E0
8.679956583E0,2.173330536E0,8.687035217E0,2.573149109E-1,8.958468477E0
8.690034583E0,2.258204041E0,8.733738098E0,4.317022705E-1,9.031280834E0
8.700113583E0,2.257006531E0,9.050180054E0,4.326004028E-1,9.337396885E0
8.710191583E0,2.155667267E0,9.471703491E0,-6.331832886E-2,9.714117438E0
8.720270583E0,1.953886871E0,9.737999725E0,-8.372090149E-1,9.967308137E0
8.730349583E0,1.743274841E0,9.636211395E0,-1.115630035E0,9.855973194E0
8.740427583E0,1.681603088E0,9.628277893E0,-5.887257385E-1,9.791737442E0
8.750506583E0,1.899699554E0,9.934241638E0,5.267546082E-1,1.012795565E1
8.760584583E0,2.794089661E0,1.054182816E1,1.961371307E0,1.108079669E1
8.770663583E0,4.254602509E0,1.088087311E1,3.013233948E0,1.206543082E1
8.780741583E0,4.821024628E0,1.078447357E1,3.028951263E0,1.219515045E1
8.790820583E0,4.776866455E0,1.065783691E1,2.171085205E0,1.187945924E1
8.800898583E0,4.792883148E0,1.047057632E1,1.304088135E0,1.158901822E1
8.810977583E0,4.999154205E0,1.044961990E1,9.725276184E-1,1.162462511E1
8.821056583E0,5.341492310E0,1.059511734E1,5.640270996E-1,1.187881215E1
8.831134583E0,5.628744965E0,1.089434509E1,6.511459351E-2,1.226269810E1
8.841213583E0,5.908064117E0,1.132230515E1,-6.282435608E-1,1.278649699E1
8.851291583E0,6.051166534E0,1.183304306E1,-1.162781982E0,1.334127379E1
8.861370583E0,5.953569489E0,1.233225494E1,-1.623823242E0,1.379007990E1
8.871448583E0,5.387297058E0,1.236982681E1,-1.818867645E0,1.361410535E1
8.881527583E0,4.244273987E0,1.185759201E1,-1.624122620E0,1.269858749E1
8.891605583E0,2.955903168E0,1.145208527E1,-7.544311523E-1,1.185144661E1
8.901684583E0,1.697320404E0,1.122919876E1,-5.165757751E-1,1.136849383E1
8.911763583E0,6.677613831E-1,1.083177521E1,-3.168461151E0,1.130541487E1
8.921841583E0,2.606080627E-1,1.064361649E1,-5.270839233E0,1.188007722E1
8.931920583E0,6.212081909E-2,1.065678909E1,-4.476141815E0,1.155884330E1
8.941998583E0,3.382965088E-1,1.079959213E1,-8.288264465E-1,1.083663177E1
8.952077583E0,7.201524353E-1,1.113848740E1,2.885998535E0,1.152881210E1
8.962155583E0,9.901908875E-1,1.163126266E1,5.219795380E0,1.278722069E1
8.972234583E0,1.522483978E0,1.207898163E1,5.374124451E0,1.330792877E1
8.982312583E0,1.836530914E0,1.295436127E1,4.544250183E0,1.385057874E1
8.992391583E0,1.808988190E0,1.407088943E1,2.958298187E0,1.449185619E1
9.002470583E0,1.594633942E0,1.564756073E1,-7.003935242E-1,1.574419148E1
9.012548583E0,1.321601715E0,1.668056259E1,-3.135230255E0,1.702402620E1
9.022627583E0,7.447013855E-1,1.601504654E1,-2.252964935E0,1.618987791E1
9.032705583E0,5.807922363E-2,1.441996353E1,-1.493144989E0,1.449717915E1
9.042784583E0,-5.691165161E-1,1.276545410E1,-9.921368408E-1,1.281659266E1
9.052862583E0,-7.848179626E-1,1.117950211E1,-8.996292114E-2,1.120737703E1
9.062941583E0,-7.533833313E-1,1.009395950E1,7.634124756E-1,1.015078339E1
9.073020583E0,-6.063890076E-1,8.940458221E0,1.034947815E0,9.020566380E0
9.083098583E0,6.870712280E-2,7.515720978E0,4.770579529E-1,7.531159723E0
9.093177583E0,-8.966354370E-2,6.408473511E0,8.988807678E-1,6.471828098E0
9.103255583E0,-7.150630188E-1,5.315596161E0,1.658101959E0,5.613927304E0
9.113334583E0,1.492396545E-1,4.418361969E0,1.102607117E0,4.556307432E0
9.123412583E0,9.966275024E-1,3.725153503E0,6.873706055E-1,3.916952049E0
9.133491583E0,1.149609375E0,3.478915558E0,6.713539124E-1,3.724939093E0
9.143569583E0,1.827848969E0,3.889062653E0,2.053729248E-1,4.302094630E0
9.153648583E0,2.721340942E0,4.363426208E0,-8.171507263E-1,5.207006828E0
9.163727583E0,2.454296265E0,4.620142365E0,-9.626481628E-1,5.319396311E0
9.173805583E0,1.872007141E0,4.650080109E0,-4.466711426E-1,5.032610740E0
9.183884583E0,6.623725891E-1,4.576283569E0,4.926255798E-1,4.650138570E0
9.193962583E0,-1.496887207E-1,4.567901001E0,9.702822876E-1,4.672212964E0
9.204041583E0,-1.164578247E-1,4.440066833E0,6.508465576E-1,4.489026303E0
9.214119583E0,-2.043251038E-1,4.255201263E0,1.670526123E-1,4.263378134E0
9.224198583E0,-3.222798157E-1,4.223317566E0,-3.005749512E-1,4.246247855E0
9.234279333E0,-7.586224365E-1,4.655019836E0,-3.909869385E-1,4.732609055E0
9.244358333E0,-1.181942139E0,5.707930298E0,2.005828857E-2,5.829052911E0
9.254437333E0,-1.239572296E0,7.347620544E0,2.851570129E-1,7.456901613E0
9.264515333E0,-9.530680847E-1,9.504635010E0,-6.891668701E-1,9.577127775E0
9.274594333E0,3.574566650E-1,1.211326035E1,-4.565356293E0,1.294995481E1
9.284672333E0,4.223467255E0,1.500958740E1,-1.442265793E1,2.124002004E1
9.294751333E0,8.555458832E0,1.819391556E1,-2.146431473E1,2.940971346E1
9.304829333E0,9.821975098E0,1.974184662E1,-1.460917007E1,2.645070043E1
9.314908333E0,9.964329071E0,1.823178680E1,-5.948031006E0,2.161168612E1
9.324987333E0,9.724228363E0,1.476170288E1,-1.196162567E0,1.771720334E1
9.335065333E0,8.348589020E0,1.170071823E1,1.448986816E0,1.444663658E1
9.345144333E0,7.946225739E0,9.143735504E0,-4.478686523E-1,1.212233430E1
9.355222333E0,7.168892212E0,7.409441986E0,-2.822829895E0,1.068930375E1
9.365301333E0,5.486540680E0,6.543193359E0,-9.268725586E-1,8.589214208E0
9.375379333E0,3.627406769E0,6.470145264E0,-7.304809570E-2,7.417964385E0
9.385458333E0,2.178719330E0,6.727160797E0,-1.971550140E0,7.340880074E0
9.395536333E0,5.801934814E-1,6.868766327E0,-3.549868011E0,7.753588732E0
9.405615333E0,-6.330335999E-1,7.960146790E0,-1.325792999E0,8.094590510E0
9.415694333E0,-6.532415771E-1,1.062864761E1,1.095871124E0,1.070494317E1
9.425772333E0,1.809736633E-1,1.448343155E1,1.337618408E0,1.454619414E1
9.435851333E0,1.233584747E0,1.722962082E1,2.142644348E0,1.740610495E1
9.445929333E0,5.572911072E-1,1.701601501E1,5.098697205E0,1.777222703E1
9.456008333E0,-1.172661438E0,1.479747849E1,4.843477936E0,1.561408924E1
9.466086333E0,-1.696871338E0,1.227522354E1,-1.821112976E0,1.252505241E1
9.476165333E0,-2.197729797E0,9.941127319E0,-7.363337860E0,1.256482284E1
9.486243333E0,-1.109193420E0,8.965156860E0,-4.639452209E0,1.015523827E1
9.496322333E0,6.906637573E-1,7.962990875E0,1.296603699E0,8.097371256E0
9.506401333E0,3.148103485E0,7.321125641E0,3.982618103E0,8.909022570E0
9.516479333E0,5.106481018E0,6.411616974E0,2.260299683E0,8.502584034E0
9.526558333E0,5.265001373E0,6.220314789E0,1.106948090E0,8.224225775E0
9.536636333E0,4.275409241E0,7.269033966E0,1.084045715E0,8.502536921E0
9.546715333E0,3.010240173E0,8.425229645E0,1.193168793E0,9.026056295E0
9.556793333E0,2.612217865E0,9.250463562E0,1.233135681E0,9.690994887E0
9.566872333E0,3.034190369E0,9.934840393E0,1.414558411E0,1.048371787E1
9.576950333E0,3.219355316E0,1.054287598E1,1.045725403E0,1.107294108E1
9.587029333E0,2.784509583E0,1.075947556E1,8.689430237E-1,1.114786391E1
9.597108333E0,2.541265411E0,1.077160034E1,1.558858337E0,1.117655775E1
9.607186333E0,2.739453278E0,1.021969803E1,1.999691620E0,1.076780380E1
9.617265333E0,2.657274170E0,9.221873016E0,1.738784180E0,9.753328579E0
9.627343333E0,2.227368164E0,8.378077698E0,1.141825562E0,8.743976239E0
9.637422333E0,1.804347839E0,7.908803558E0,6.577322388E-1,8.138639723E0
9.647500333E0,1.284628601E0,7.675139465E0,1.788780212E-1,7.783960033E0
9.657579333E0,1.066083069E0,8.186476135E0,1.962419128E-1,8.257931673E0
9.667658333E0,1.002764740E0,8.871751099E0,6.466552734E-1,8.951629333E0
9.677736333E0,1.429078217E0,9.525890808E0,6.792874146E-1,9.656411944E0
9.687815333E0,1.964514771E0,1.018332367E1,2.924917603E-1,1.037520846E1
9.697893333E0,2.627785492E0,1.095571747E1,3.502716064E-2,1.126650916E1
9.707972333E0,3.138373718E0,1.148187332E1,2.559677124E-2,1.190308614E1
9.718050333E0,3.523522797E0,1.157348282E1,3.445834351E-1,1.210286971E1
9.728129333E0,3.688779144E0,1.156794434E1,5.725593567E-1,1.215533841E1
9.738207333E0,3.650907898E0,1.162033539E1,5.734574890E-1,1.219385815E1
9.748286333E0,3.244353333E0,1.162108383E1,2.865042114E-1,1.206886501E1
9.758365333E0,2.668949890E0,1.164922531E1,-1.028361511E-1,1.195149861E1
9.768443333E0,2.227218475E0,1.179352524E1,-5.492079163E-1,1.201454822E1
9.778522333E0,2.038011932E0,1.199844910E1,-1.630110168E0,1.227898744E1
9.788600333E0,1.344354401E0,1.193138855E1,-2.079475708E0,1.218562845E1
9.798679333E0,-4.370910645E-2,1.190324707E1,-1.454225922E0,1.199182948E1
9.808757333E0,-1.702709198E0,1.171598648E1,-4.046086121E-1,1.184598100E1
9.818836333E0,-3.000061340E0,1.093895233E1,4.837939453E-1,1.135319791E1
9.828914333E0,-2.779869232E0,9.957892456E0,9.451345825E-1,1.038174236E1
9.838993333E0,-2.132016449E0,8.910071411E0,6.541397095E-1,9.184920547E0
9.849072333E0,-2.156565399E0,8.093220062E0,4.427792358E-1,8.387314156E0
9.859150333E0,-1.776356049E0,6.869065704E0,4.575984192E-1,7.109775016E0
9.869229333E0,-9.779164124E-1,5.952371979E0,8.204438782E-1,6.087707355E0
9.879307333E0,-5.170248413E-1,4.605173492E0,1.023571472E0,4.745801949E0
9.889386333E0,-6.376739502E-2,3.910318451E0,9.014254761E-1,4.013380689E0
9.899464333E0,9.999206543E-2,3.423680420E0,7.903564453E-1,3.515145707E0
9.909543333E0,-5.254074097E-2,2.947520599E0,5.586383057E-1,3.000452461E0
9.919621333E0,-3.300636292E-1,2.936293945E0,4.159849548E-1,2.983924868E0
9.929700333E0,-1.209484863E-1,3.693569183E0,7.613168335E-1,3.773153213E0
9.939779333E0,4.649331665E-1,5.118605804E0,1.767973480E0,5.435256982E0
9.949857333E0,9.385482788E-1,6.609804840E0,2.981799316E0,7.311738511E0
9.959936333E0,1.296603699E0,8.223449249E0,4.464316406E0,9.446503040E0
9.970014333E0,1.431772614E0,9.841883698E0,6.109994202E0,1.167238950E1
9.980093333E0,8.159532166E-1,1.104373444E1,6.573280792E0,1.287780534E1
9.990171333E0,-6.132746887E-1,1.137724091E1,6.404880981E0,1.307058594E1
1.000025033E1,-1.280736694E0,1.067594925E1,6.159391479E0,1.239170215E1