"Time (s)","Acceleration x (m/s^2)","Acceleration y (m/s^2)","Acceleration z (m/s^2)","Absolute acceleration (m/s^2)"
-1.352291671E-3,-7.445966034E0,-1.058448944E0,6.420747986E0,9.888818385E0
8.726708358E-3,-7.443271637E0,-1.032103729E0,6.295608215E0,9.803173648E0
1.880570827E-2,-7.358996887E0,-1.006057892E0,6.207142181E0,9.679648843E0
2.888470830E-2,-7.266638947E0,-1.035845947E0,6.271508331E0,9.654472288E0
3.896370833E-2,-7.169640656E0,-1.084494781E0,6.364764404E0,9.648321200E0
4.904270836E-2,-7.088958435E0,-1.173260193E0,6.409521332E0,9.628698504E0
5.912170827E-2,-7.087311859E0,-1.278042297E0,6.538253632E0,9.726877302E0
6.920070830E-2,-7.113657074E0,-1.338366852E0,6.568640442E0,9.774578254E0
7.928070833E-2,-7.150630188E0,-1.346599731E0,6.573879547E0,9.806158026E0
8.935970836E-2,-7.187154236E0,-1.328936462E0,6.584208069E0,9.837329619E0
9.943870828E-2,-7.259154510E0,-1.258582764E0,6.580016785E0,9.878055257E0
1.095177083E-1,-7.353159027E0,-1.138083344E0,6.505322113E0,9.883491143E0
1.195967083E-1,-7.438331909E0,-1.121318207E0,6.454427948E0,9.911900738E0
1.296757084E-1,-7.523804169E0,-1.147663422E0,6.397546234E0,9.942502618E0
1.397547083E-1,-7.585775299E0,-1.150507507E0,6.430178375E0,1.001073665E1
1.498337083E-1,-7.543563080E0,-1.157393188E0,6.605314178E0,1.009331850E1
1.599127083E-1,-7.491621094E0,-1.185684357E0,6.906338196E0,1.025805738E1
1.699917084E-1,-7.338938599E0,-1.240769806E0,7.058122559E0,1.025751547E1
1.800707083E-1,-7.177873535E0,-1.292113037E0,6.978188782E0,1.009388643E1
1.901497083E-1,-7.076384583E0,-1.321152649E0,6.777755585E0,9.887296589E0
2.002287083E-1,-7.001390533E0,-1.290316772E0,6.560108185E0,9.680878378E0
2.103077084E-1,-7.025490417E0,-1.280287628E0,6.475534058E0,9.639978908E0
2.203867083E-1,-7.027586060E0,-1.254541168E0,6.498137054E0,9.653321944E0
2.304646249E-1,-7.072492676E0,-1.265917511E0,6.471193085E0,9.669490149E0
2.405436250E-1,-7.192093964E0,-1.268761597E0,6.474635925E0,9.759963214E0
2.506226250E-1,-7.315886536E0,-1.232985992E0,6.435567169E0,9.821353015E0
2.607016250E-1,-7.357949066E0,-1.236129456E0,6.386169891E0,9.820926452E0
2.707806249E-1,-7.346273346E0,-1.232985992E0,6.389912109E0,9.814222501E0
2.808596250E-1,-7.254364471E0,-1.289867706E0,6.435417480E0,9.782850338E0
2.909386250E-1,-7.175777893E0,-1.346300354E0,6.467750244E0,9.753773948E0
3.010176250E-1,-7.042405243E0,-1.355581055E0,6.406377869E0,9.616379204E0
3.110966249E-1,-6.896009674E0,-1.349892883E0,6.311624908E0,9.445304082E0
3.211756250E-1,-6.925797729E0,-1.354982300E0,6.311026154E0,9.467402090E0
3.312556250E-1,-6.992409210E0,-1.282982025E0,6.409072266E0,9.571626651E0
3.413346250E-1,-7.102729797E0,-1.213227081E0,6.483916626E0,9.693392870E0
3.514136249E-1,-7.227270813E0,-1.169667664E0,6.446793823E0,9.755137951E0
3.614926250E-1,-7.262297974E0,-1.169517975E0,6.337670746E0,9.709521854E0
3.715716250E-1,-7.250322876E0,-1.208736420E0,6.271807709E0,9.662494371E0
3.816506250E-1,-7.265890503E0,-1.226848755E0,6.351891174E0,9.728558175E0
3.917296249E-1,-7.213649139E0,-1.307980042E0,6.381379852E0,9.719544975E0
4.018086250E-1,-7.086264038E0,-1.363813934E0,6.351591797E0,9.613420038E0
4.118876250E-1,-7.007378082E0,-1.359323273E0,6.345903625E0,9.550999957E0
4.219666250E-1,-6.950047302E0,-1.359323273E0,6.385421448E0,9.535435193E0
4.320456249E-1,-6.931635590E0,-1.321452026E0,6.510710907E0,9.601206378E0
4.421246250E-1,-6.942562866E0,-1.263672180E0,6.606062622E0,9.666235560E0
4.522036250E-1,-7.119045868E0,-1.218316498E0,6.736291809E0,9.876372639E0
4.622826250E-1,-7.228767700E0,-1.194665680E0,6.768474884E0,9.974696026E0
4.723616249E-1,-7.295379181E0,-1.194665680E0,6.626270599E0,9.927600190E0
4.824406250E-1,-7.313491516E0,-1.173858948E0,6.508315887E0,9.860186544E0
4.925196250E-1,-7.345824280E0,-1.217418365E0,6.482569427E0,9.872535045E0
5.025986250E-1,-7.305558014E0,-1.200952606E0,6.602320404E0,9.919884061E0
5.126776249E-1,-7.199428711E0,-1.148561554E0,6.678062897E0,9.886733103E0
5.227566250E-1,-6.989265747E0,-1.036145325E0,6.650669861E0,9.703341817E0
5.328356250E-1,-6.898554382E0,-9.166937256E-1,6.600524139E0,9.591522239E0
5.429146250E-1,-6.917864227E0,-7.343728638E-1,6.576873322E0,9.573474378E0
5.529936249E-1,-7.032525787E0,-4.980143738E-1,6.580765228E0,9.644216311E0
5.630726250E-1,-7.266339569E0,-2.597099304E-1,6.548881531E0,9.785447833E0
5.731516250E-1,-7.472161560E0,7.664062500E-2,6.420149231E0,9.851770821E0
5.832306250E-1,-7.779322815E0,4.920268250E-1,6.429729309E0,1.010452240E1
5.933096249E-1,-7.996371460E0,8.951385498E-1,6.578220520E0,1.039308495E1
6.033896250E-1,-8.036338348E0,1.167721710E0,6.574029236E0,1.044816579E1
6.134686250E-1,-8.053702240E0,1.403331757E0,6.631060638E0,1.052627308E1
6.235476250E-1,-8.023614807E0,1.779050446E0,6.826703796E0,1.068397397E1
6.336266249E-1,-8.048762512E0,2.249222717E0,7.222929840E0,1.104591763E1
6.437056250E-1,-8.320896606E0,2.644850006E0,7.603438568E0,1.157777310E1
6.537846250E-1,-8.562793579E0,2.885250092E0,8.016130371E0,1.207909136E1
6.638636250E-1,-8.765771484E0,3.153941345E0,8.300389252E0,1.247728165E1
6.739426249E-1,-9.017996979E0,3.206781464E0,8.398585052E0,1.273357561E1
6.840216250E-1,-9.026379547E0,3.204536133E0,8.335566101E0,1.269748959E1
6.941006250E-1,-8.993298340E0,3.099155273E0,8.239765320E0,1.258482860E1
7.041796250E-1,-9.119336243E0,2.914888458E0,8.116122437E0,1.255110798E1
7.142586249E-1,-9.185798035E0,2.702031097E0,8.021519165E0,1.249098184E1
7.243376250E-1,-9.134005737E0,2.487976227E0,7.886200562E0,1.232121122E1
7.344166250E-1,-8.934171295E0,2.342628479E0,7.760911102E0,1.206395731E1
7.444956250E-1,-8.576265564E0,2.129771118E0,7.708220673E0,1.172624927E1
7.545746249E-1,-8.245603180E0,1.803300018E0,7.774083710E0,1.147511396E1
7.646536250E-1,-8.010442200E0,1.467997284E0,7.852221222E0,1.131280595E1
7.747326250E-1,-8.047565002E0,1.243464203E0,8.051756287E0,1.145164988E1
7.848116250E-1,-8.041876831E0,9.654922485E-1,8.135132904E0,1.147973630E1
7.948906249E-1,-8.153394928E0,5.887257385E-1,8.006999359E0,1.144274817E1
8.049696250E-1,-8.242609406E0,2.160008240E-1,7.711663513E0,1.128968646E1
8.150486250E-1,-8.272996216E0,-1.395098877E-1,7.380552063E0,1.108758216E1
8.251276250E-1,-8.166717224E0,-4.388873291E-1,7.190297699E0,1.088982430E1
8.352076249E-1,-7.922125854E0,-6.156697083E-1,7.071744232E0,1.063713748E1
8.452866250E-1,-7.522307281E0,-6.087840271E-1,6.953939209E0,1.026221201E1
8.553656250E-1,-7.054080963E0,-5.264552307E-1,6.869365082E0,9.860293605E0
8.654446250E-1,-6.785539398E0,-4.983137512E-1,7.060068512E0,9.804918608E0
8.755236249E-1,-6.625372467E0,-4.122427368E-1,7.191195831E0,9.786664492E0
8.856026250E-1,-6.403084717E0,-4.423301697E-1,7.123386841E0,9.588419575E0
8.956816250E-1,-6.173013153E0,-6.388714600E-1,6.812333679E0,9.215320846E0
9.057606250E-1,-5.949827271E0,-9.201365662E-1,6.428382111E0,8.807450960E0
9.158396249E-1,-5.668861542E0,-1.236428833E0,6.060447235E0,8.390099411E0
9.259186250E-1,-5.251379700E0,-1.412313080E0,5.433550873E0,7.687333222E0
9.359976250E-1,-4.643493805E0,-1.433568878E0,4.630470886E0,6.712556523E0
9.460766250E-1,-4.356241150E0,-1.462458801E0,4.058360596E0,6.130735146E0
9.561556249E-1,-4.315525818E0,-1.471589813E0,3.589086456E0,5.802661566E0
9.662346250E-1,-4.068988495E0,-1.540895691E0,3.146157532E0,5.369295495E0
9.763136250E-1,-3.764521637E0,-1.613644409E0,2.860850830E0,4.995992284E0
9.863926250E-1,-3.478167114E0,-1.926643524E0,2.637365570E0,4.771299497E0
9.964716249E-1,-3.293301544E0,-2.376907196E0,2.109263763E0,4.576517945E0
1.006550625E0,-3.004552002E0,-1.825004883E0,1.914967804E0,4.003133428E0
1.016629625E0,-3.181633759E0,-1.745520172E0,1.813927917E0,4.057088677E0
1.026708625E0,-3.491040344E0,-1.813329163E0,1.557361450E0,4.230945524E0
1.036787625E0,-3.944148102E0,-1.745370483E0,1.329086151E0,4.513213087E0
1.046866625E0,-4.199367371E0,-1.617386627E0,9.964778137E-1,4.609077332E0
1.056945625E0,-4.295916595E0,-1.554517365E0,6.756948853E-1,4.618223382E0
1.067024625E0,-4.331542511E0,-1.617835693E0,4.803511047E-1,4.648697671E0
1.077103625E0,-4.365671539E0,-1.728156281E0,3.706292725E-1,4.709880909E0
1.087183625E0,-4.195774841E0,-1.691332855E0,7.030879211E-1,4.578150934E0
1.097262625E0,-4.225263519E0,-2.032772827E0,1.222507782E0,4.845569363E0
1.107341625E0,-4.224814453E0,-2.092648315E0,1.599423981E0,4.978593296E0
1.117420625E0,-4.496050415E0,-2.055974579E0,1.786684570E0,5.256780627E0
1.127499625E0,-5.289700012E0,-2.079026642E0,1.884880371E0,5.987992319E0
1.137578625E0,-6.045178986E0,-2.163750458E0,2.036365356E0,6.735932666E0
1.147657625E0,-6.637048187E0,-2.406994629E0,2.149979095E0,7.380138338E0
1.157736625E0,-7.098089447E0,-2.746937714E0,2.083367615E0,7.891068446E0
1.167815625E0,-7.524851990E0,-3.204685822E0,2.030228119E0,8.427053750E0
1.177894625E0,-8.138875122E0,-3.627855835E0,2.257455597E0,9.192319184E0
1.187973625E0,-8.796906738E0,-4.302353210E0,2.666554871E0,1.014920323E1
1.198052625E0,-9.222471771E0,-4.632865906E0,4.044738922E0,1.108500541E1
1.208131625E0,-9.102571106E0,-4.927453308E0,5.375621338E0,1.166335722E1
1.218210625E0,-8.780590668E0,-5.002746735E0,5.909561005E0,1.170679968E1
1.228289625E0,-8.648864594E0,-4.746030579E0,6.496939545E0,1.181261565E1
1.238369333E0,-8.864266663E0,-4.738845520E0,6.815327454E0,1.214415780E1
1.248448333E0,-9.615704041E0,-4.621938629E0,6.988816681E0,1.275412245E1
1.258527333E0,-1.032522858E1,-4.533921661E0,7.183412018E0,1.337042254E1
1.268606333E0,-1.082473984E1,-4.500241699E0,7.225773926E0,1.377094683E1
1.278685333E0,-1.140942398E1,-4.634362793E0,7.187603302E0,1.425881886E1
1.288764333E0,-1.176523407E1,-4.996908875E0,6.854845276E0,1.450443845E1
1.298843333E0,-1.246353195E1,-5.163811798E0,7.264992371E0,1.532268564E1
1.308922333E0,-1.306153839E1,-5.278623047E0,7.848628693E0,1.612664313E1
1.319002333E0,-1.366029327E1,-5.016069031E0,7.947123871E0,1.658075205E1
1.329081333E0,-1.397778305E1,-4.537963257E0,7.503895569E0,1.650090841E1
1.339160333E0,-1.433239563E1,-3.795207825E0,6.859485626E0,1.633626977E1
1.349239333E0,-1.496408203E1,-3.138373718E0,6.485862579E0,1.660841817E1
1.359318333E0,-1.522469009E1,-2.652184753E0,5.935606842E0,1.655465799E1
1.369397333E0,-1.551149368E1,-2.344574432E0,5.407954102E0,1.659365641E1
1.379476333E0,-1.524100616E1,-2.068099365E0,5.154680786E0,1.622146843E1
1.389555333E0,-1.481514175E1,-1.634900208E0,5.110971680E0,1.575700972E1
1.399634333E0,-1.451022583E1,-1.214574280E0,5.265899506E0,1.548391236E1
1.409713333E0,-1.425156372E1,-6.677613831E-1,5.436993713E0,1.526806715E1
1.419792333E0,-1.391715912E1,6.885681152E-3,5.377267914E0,1.491986513E1
1.429871333E0,-1.341465408E1,6.310876465E-1,5.102589111E0,1.436619753E1
1.439950333E0,-1.277353729E1,1.229393463E0,4.868475952E0,1.372503994E1
1.450029333E0,-1.235635483E1,1.836081848E0,4.614005127E0,1.331689695E1
1.460108333E0,-1.191926376E1,2.421813812E0,4.086951141E0,1.283110285E1
1.470187333E0,-1.121587646E1,2.969524841E0,3.459605713E0,1.210713981E1
1.480266333E0,-1.062400726E1,3.400029602E0,3.081941071E0,1.157273055E1
1.490345333E0,-9.978848877E0,3.801644440E0,2.759661255E0,1.102930894E1
1.500424333E0,-9.289532318E0,3.858825531E0,2.417921906E0,1.034564118E1
1.510503333E0,-8.897796936E0,3.621119843E0,2.242187347E0,9.864618763E0
1.520582333E0,-8.612190857E0,3.180436249E0,2.183060303E0,9.436670937E0
1.530661333E0,-8.048912201E0,2.663710785E0,2.042652283E0,8.720823993E0
1.540740333E0,-7.579188995E0,2.261646881E0,2.112556915E0,8.186699528E0
1.550819333E0,-7.375013580E0,1.854044495E0,2.214345245E0,7.920330243E0
1.560899333E0,-7.299869843E0,1.550625458E0,2.283800812E0,7.804376027E0
1.570978333E0,-7.437733154E0,1.410666504E0,2.319726105E0,7.917763804E0
1.581057333E0,-7.863148499E0,1.223106537E0,2.209405518E0,8.258726697E0
1.591136333E0,-8.545878754E0,9.467811584E-1,2.230811005E0,8.882846164E0
1.601215333E0,-9.194779358E0,6.505471802E-1,2.338736572E0,9.509830063E0
1.611294333E0,-9.675429840E0,3.332070923E-1,2.484383698E0,9.994855272E0
1.621373333E0,-1.000459534E1,-1.414558411E-1,2.829865265E0,1.039808035E1
1.631452333E0,-1.044363235E1,-5.306465149E-1,3.370241547E0,1.098679073E1
1.641531333E0,-1.143082947E1,-8.933422852E-1,3.972738647E0,1.213443757E1
1.651610333E0,-1.282787430E1,-1.315165100E0,4.570595398E0,1.368116810E1
1.661689333E0,-1.421548874E1,-1.619931335E0,5.098098450E0,1.518864396E1
1.671768333E0,-1.555819656E1,-2.038910065E0,5.439688110E0,1.660737310E1
1.681847333E0,-1.658101959E1,-2.356699219E0,5.985303497E0,1.778505271E1
1.691926333E0,-1.737541763E1,-2.433788910E0,6.500083008E0,1.871041276E1
1.702005333E0,-1.812910034E1,-2.586920471E0,6.716832275E0,1.950569846E1
1.712084333E0,-1.859642853E1,-2.890189819E0,6.924450531E0,2.005313857E1
1.722163333E0,-1.858310623E1,-3.201242981E0,7.356003113E0,2.024081460E1
1.732242333E0,-1.814421890E1,-3.570974121E0,7.895780640E0,2.010740878E1
1.742321333E0,-1.756477386E1,-4.007167053E0,8.217611389E0,1.980171219E1
1.752400333E0,-1.710867233E1,-4.693789215E0,8.387657776E0,1.962373892E1
1.762479333E0,-1.677277084E1,-5.439239044E0,8.251590729E0,1.946792009E1
1.772558333E0,-1.635962997E1,-6.104455719E0,7.687713318E0,1.907885763E1
1.782637333E0,-1.597552872E1,-6.675518188E0,6.841373291E0,1.861677871E1
1.792717333E0,-1.570174805E1,-7.110363922E0,6.112688599E0,1.828844249E1
1.802796333E0,-1.525013718E1,-7.436086578E0,5.546715546E0,1.785015745E1
1.812875333E0,-1.460348190E1,-7.609426117E0,5.182223511E0,1.726326997E1
1.822954333E0,-1.402373749E1,-7.840096436E0,4.920567627E0,1.680310421E1
1.833033333E0,-1.332648743E1,-8.051456909E0,4.650080109E0,1.624944524E1
1.843112333E0,-1.240769806E1,-8.067623291E0,4.324507141E0,1.541878331E1
1.853191333E0,-1.146885040E1,-8.029302979E0,4.016896820E0,1.456501617E1
1.863270333E0,-1.037327866E1,-7.839497681E0,3.867806854E0,1.356549165E1
1.873349333E0,-9.269474030E0,-7.558981018E0,3.769760742E0,1.254083087E1
1.883428333E0,-8.068820801E0,-7.190746765E0,3.590733032E0,1.138885736E1
1.893507333E0,-6.797813873E0,-6.760840759E0,3.282673645E0,1.013386340E1
1.903586333E0,-5.657634888E0,-6.340215454E0,2.927013245E0,8.987467444E0
1.913665333E0,-4.554129639E0,-5.906417542E0,2.526595917E0,7.874614395E0
1.923744333E0,-3.566782837E0,-5.485343170E0,2.263592834E0,6.923494928E0
1.933823333E0,-2.924019470E0,-5.105283508E0,2.132465515E0,6.257892516E0
1.943902333E0,-2.395169220E0,-4.844675446E0,1.951192474E0,5.745856580E0
1.953981333E0,-1.734143829E0,-4.675377502E0,1.621577911E0,5.243655646E0
1.964060333E0,-1.121168518E0,-4.561314697E0,9.578581238E-1,4.793756648E0
1.974139333E0,-7.827223206E-1,-4.435426483E0,2.260299683E-2,4.504017453E0
1.984218333E0,-7.039860535E-1,-4.275858307E0,-7.373666382E-1,4.395710430E0
1.994297333E0,-8.569679260E-1,-4.074676666E0,-1.167721710E0,4.324460423E0
2.004376333E0,-1.350940704E0,-3.918102264E0,-1.189576263E0,4.311804475E0
2.014455333E0,-1.870809631E0,-3.658392334E0,-1.044228516E0,4.239596247E0
2.024535333E0,-2.194436646E0,-3.454216919E0,-1.034648438E0,4.221097500E0
2.034614333E0,-2.471959534E0,-3.319347382E0,-1.099763031E0,4.282304251E0
2.044693333E0,-2.754272461E0,-3.201991425E0,-1.073118439E0,4.357791764E0
2.054772333E0,-2.977608032E0,-3.129991150E0,-8.388555908E-1,4.400758218E0
2.064851333E0,-3.147804108E0,-3.079995117E0,-4.418811035E-1,4.426093032E0
2.074930333E0,-3.478616180E0,-3.069516907E0,1.107696533E-1,4.640579111E0
2.085009333E0,-3.692820740E0,-3.032394104E0,4.022135925E-1,4.795217909E0
2.095088333E0,-3.700305176E0,-3.014880524E0,5.328918457E-1,4.802680156E0
2.105167333E0,-3.834875336E0,-3.170257416E0,6.628216553E-1,5.019575029E0
2.115246333E0,-4.106859741E0,-3.447031860E0,9.363029480E-1,5.442884235E0
2.125325333E0,-4.434378662E0,-3.747157745E0,1.195264435E0,5.927357114E0
2.135404333E0,-5.117857361E0,-3.951931915E0,1.427880707E0,6.621863268E0
2.145483333E0,-6.369404755E0,-4.157753906E0,2.096839600E0,7.890055182E0
2.155562333E0,-7.598648529E0,-4.193679199E0,3.197800140E0,9.249450277E0
2.165641333E0,-8.559350739E0,-4.134851532E0,4.287833405E0,1.042808696E1
2.175720333E0,-9.319769440E0,-4.334087219E0,5.468278656E0,1.164235740E1
2.185799333E0,-1.005788452E1,-4.572691040E0,6.476731567E0,1.280697451E1
2.195878333E0,-1.065110092E1,-4.805606689E0,7.084767151E0,1.366505514E1
2.205957333E0,-1.124506577E1,-5.020859070E0,7.555837555E0,1.444822519E1
2.216036333E0,-1.194022018E1,-5.145100708E0,8.271349640E0,1.540961207E1
2.226115333E0,-1.223869949E1,-5.075345764E0,8.933722229E0,1.597987149E1
2.236194375E0,-1.208960953E1,-5.093907166E0,9.202413483E0,1.602469852E1
2.246273375E0,-1.197704361E1,-5.099894714E0,9.277557220E0,1.598535479E1
2.256352375E0,-1.199066528E1,-4.952301636E0,9.213640137E0,1.591202407E1
2.266432375E0,-1.220112762E1,-4.772226105E0,9.227860565E0,1.602482661E1
2.276511375E0,-1.257924133E1,-4.506378937E0,9.334289246E0,1.629950059E1
2.286590375E0,-1.300585419E1,-4.359234924E0,9.451196136E0,1.665773936E1
2.296669375E0,-1.321392151E1,-4.319567413E0,9.458830261E0,1.681475109E1
2.306748375E0,-1.333007996E1,-4.526886292E0,9.382938080E0,1.691813400E1
2.316827375E0,-1.361718292E1,-4.779261475E0,9.479337616E0,1.726635030E1
2.326906375E0,-1.404753799E1,-4.911735992E0,9.928852844E0,1.788967839E1
2.336985375E0,-1.416848648E1,-4.628674622E0,1.035606445E1,1.814989556E1
2.347064375E0,-1.397538803E1,-3.786226501E0,1.029768585E1,1.776764801E1
2.357143375E0,-1.377690079E1,-2.684517517E0,9.576784973E0,1.699189336E1
2.367222375E0,-1.389605301E1,-1.563199310E0,8.248746643E0,1.623532268E1
2.377301375E0,-1.433029999E1,-8.002359009E-1,6.772965546E0,1.587044226E1
2.387380375E0,-1.460393097E1,-2.318678284E-1,5.589376831E0,1.563872424E1
2.397459375E0,-1.451306992E1,1.947450256E-1,4.741689606E0,1.526927452E1
2.407538375E0,-1.447055832E1,5.050497437E-1,3.996239777E0,1.502072121E1
2.417617375E0,-1.451336929E1,7.222480774E-1,3.238216095E0,1.488776592E1
2.427696375E0,-1.441292816E1,9.859996033E-1,2.414479065E0,1.464699295E1
2.437775375E0,-1.415471512E1,1.262175293E0,1.571881256E0,1.429754725E1
2.447854375E0,-1.369038071E1,1.548380127E0,9.798623657E-1,1.381246304E1
2.457933375E0,-1.335837112E1,1.727258148E0,6.746470642E-1,1.348646167E1
2.468012375E0,-1.317784653E1,1.837129669E0,6.471043396E-1,1.332101455E1
2.478091375E0,-1.293520111E1,1.808090057E0,5.689668274E-1,1.307334466E1
2.488170375E0,-1.260034744E1,1.759291534E0,4.581971741E-1,1.273082115E1
2.498249375E0,-1.232177673E1,1.602717133E0,3.088078308E-1,1.242941054E1
2.508329375E0,-1.197000824E1,1.225501556E0,1.032852173E-1,1.203302203E1
2.518408375E0,-1.144011017E1,7.327262878E-1,-1.508862305E-1,1.146454426E1
2.528487375E0,-1.090108109E1,1.670526123E-1,-2.213896179E-1,1.090460860E1
2.538566375E0,-1.061487625E1,-4.516108704E-1,-6.735992432E-2,1.062469235E1
2.548645375E0,-1.069001999E1,-1.130898285E0,2.019300842E-1,1.075156891E1
2.558724375E0,-1.080572937E1,-1.694476318E0,6.210585022E-1,1.095539825E1
2.568803375E0,-1.066756668E1,-2.043849792E0,7.746391296E-1,1.088918577E1
2.578882375E0,-1.071831116E1,-2.267035675E0,7.429051208E-1,1.098059893E1
2.588961375E0,-1.075618240E1,-2.399360504E0,8.400531006E-1,1.105251464E1
2.599040375E0,-1.090512268E1,-2.444865875E0,1.002615051E0,1.122070884E1
2.609119375E0,-1.110211304E1,-2.469714203E0,1.127754822E0,1.142927089E1
2.619198375E0,-1.141136993E1,-2.666405182E0,1.270408173E0,1.178740927E1
2.629277375E0,-1.172436905E1,-2.974614258E0,1.535057831E0,1.219284881E1
2.639356375E0,-1.207898163E1,-3.304677887E0,1.895657959E0,1.266555219E1
2.649435375E0,-1.232252518E1,-3.666774902E0,2.286944275E0,1.305832987E1
2.659514375E0,-1.249586472E1,-4.080215149E0,2.789299622E0,1.343781913E1
2.669593375E0,-1.265213974E1,-4.478836212E0,3.329226837E0,1.382824519E1
2.679672375E0,-1.264196091E1,-4.777614899E0,3.536545715E0,1.396967914E1
2.689751375E0,-1.257190659E1,-4.942871246E0,3.427722015E0,1.393678907E1
2.699830375E0,-1.262474670E1,-4.966372375E0,3.034489746E0,1.390169817E1
2.709909375E0,-1.265184036E1,-4.850962372E0,2.599943390E0,1.379712311E1
2.719988375E0,-1.276889694E1,-4.641547852E0,2.377356262E0,1.379277051E1
2.730067375E0,-1.309267365E1,-4.409081268E0,2.578986969E0,1.405379929E1
2.740146375E0,-1.334400101E1,-4.406087494E0,2.892734528E0,1.434726047E1
2.750226375E0,-1.324909836E1,-4.485721893E0,3.289858704E0,1.436953300E1
2.760305375E0,-1.266935394E1,-4.422852631E0,3.807182922E0,1.394879194E1
2.770384375E0,-1.199216217E1,-4.192481689E0,4.233197021E0,1.339062408E1
2.780463375E0,-1.138682098E1,-4.027524719E0,4.227808228E0,1.279667964E1
2.790542375E0,-1.081845291E1,-3.964056702E0,3.722159729E0,1.210814362E1
2.800621375E0,-1.043420197E1,-3.914210358E0,3.121309204E0,1.157308017E1
2.810700375E0,-1.002195923E1,-3.549568634E0,2.702929230E0,1.097018371E1
2.820779375E0,-9.740245056E0,-3.010240173E0,2.769241333E0,1.056421399E1
2.830858375E0,-9.454788666E0,-2.393672333E0,2.894979858E0,1.017367212E1
2.840937375E0,-9.223519592E0,-1.785187683E0,2.940485229E0,9.844118148E0
2.851016375E0,-9.009464722E0,-1.355730743E0,3.088227997E0,9.620063024E0
2.861095375E0,-8.493637390E0,-1.002764740E0,3.024759979E0,9.071746589E0
2.871174375E0,-8.076903992E0,-7.473957825E-1,2.676434326E0,8.541561874E0
2.881253375E0,-7.927215271E0,-6.078858948E-1,2.512225800E0,8.337958124E0
2.891332375E0,-7.779921570E0,-6.490502930E-1,2.374063110E0,8.159940047E0
2.901411375E0,-7.483537903E0,-8.327183533E-1,2.152074738E0,7.831231389E0
2.911490375E0,-7.102280731E0,-1.073268127E0,1.735640717E0,7.389637661E0
2.921569375E0,-6.752907257E0,-1.175206146E0,1.309776306E0,6.978422449E0
2.931648375E0,-6.630461884E0,-1.209335175E0,1.149759064E0,6.837211585E0
2.941727375E0,-6.616091766E0,-1.316661987E0,1.157991943E0,6.844502494E0
2.951806375E0,-6.660100250E0,-1.383872223E0,1.504671021E0,6.966783516E0
2.961885375E0,-6.687044220E0,-1.466051331E0,1.832489319E0,7.086881120E0
2.971964375E0,-6.687343597E0,-1.637744293E0,2.111808472E0,7.201562732E0
2.982044375E0,-6.641987915E0,-1.827998657E0,2.510429535E0,7.332110133E0
2.992123375E0,-6.704857178E0,-1.946552124E0,3.080893250E0,7.631256657E0
3.002202375E0,-6.850803680E0,-1.963167572E0,3.628155212E0,7.996939929E0
3.012281375E0,-6.876250763E0,-1.894759827E0,4.071084137E0,8.212591881E0
3.022360375E0,-6.858437805E0,-1.798659668E0,4.465813293E0,8.379548562E0
3.032439375E0,-6.627168732E0,-1.699565735E0,4.816084900E0,8.366753423E0
3.042518375E0,-6.296805725E0,-1.682201843E0,5.144202576E0,8.303155155E0
3.052597375E0,-5.986201630E0,-1.711989899E0,5.330714722E0,8.196465019E0
3.062676375E0,-5.719755707E0,-1.821412354E0,5.312752075E0,8.016138903E0
3.072755375E0,-5.543721771E0,-1.892065430E0,5.038222961E0,7.726347991E0
3.082834375E0,-5.450166321E0,-1.970202942E0,4.661606140E0,7.437511974E0
3.092913375E0,-5.473218384E0,-2.120939484E0,4.185446320E0,7.209193066E0
3.102992375E0,-5.579647064E0,-2.279609528E0,3.791465607E0,7.120694658E0
3.113071375E0,-5.692362671E0,-2.431543579E0,3.481909332E0,7.102048265E0
3.123150375E0,-5.801485748E0,-2.635269928E0,3.236719208E0,7.146903925E0
3.133229375E0,-5.853577423E0,-2.767295380E0,3.136876831E0,7.194601352E0
3.143308375E0,-6.023025055E0,-3.066672821E0,3.019371185E0,7.402561405E0
3.153387375E0,-6.222709808E0,-3.377725983E0,3.051105194E0,7.709759599E0
3.163466375E0,-6.509363708E0,-3.626508636E0,3.122806091E0,8.079313007E0
3.173545375E0,-6.885531464E0,-3.878285065E0,3.092718658E0,8.486256376E0
3.183624375E0,-7.285200348E0,-4.120930481E0,2.994223480E0,8.889408664E0
3.193703375E0,-7.934550018E0,-4.345014496E0,3.071911926E0,9.553683993E0
3.203782375E0,-8.677006073E0,-4.502487030E0,3.392395477E0,1.034752004E1
3.213861375E0,-9.472451935E0,-4.747527466E0,3.875141602E0,1.128198055E1
3.223941375E0,-1.015892441E1,-5.161566467E0,4.282743988E0,1.217322511E1
3.234020458E0,-1.070154602E1,-5.799689484E0,4.780009918E0,1.307700196E1
3.244099458E0,-1.128967300E1,-6.565946045E0,5.447621613E0,1.415079310E1
3.254178458E0,-1.166928360E1,-7.146139526E0,6.018085327E0,1.494847286E1
3.264257458E0,-1.216864517E1,-7.786358185E0,6.665788422E0,1.591024935E1
3.274336458E0,-1.339893677E1,-8.738079071E0,7.537126465E0,1.768315039E1
3.284415458E0,-1.393377457E1,-8.661887512E0,8.620423737E0,1.853348522E1
3.294494458E0,-1.436263275E1,-8.258925476E0,1.000594254E1,1.935494654E1
3.304573458E0,-1.463925751E1,-7.434739380E0,1.128563141E1,1.992357112E1
3.314652458E0,-1.446980988E1,-6.468498688E0,1.193947174E1,1.984358482E1
3.324731458E0,-1.401191208E1,-5.736071777E0,1.186417831E1,1.923525218E1
3.334810458E0,-1.391760818E1,-5.276976471E0,1.109717331E1,1.856592453E1
3.344889458E0,-1.387210281E1,-5.065466309E0,9.986033936E0,1.782736826E1
3.354968458E0,-1.398392029E1,-5.140011292E0,9.192983093E0,1.750658964E1
3.365047458E0,-1.409229492E1,-5.212610321E0,8.981323242E0,1.750509211E1
3.375126458E0,-1.431009201E1,-5.173691254E0,8.955127716E0,1.765616399E1
3.385205458E0,-1.432311493E1,-5.077291718E0,8.996142426E0,1.765958921E1
3.395284458E0,-1.403092255E1,-4.703668671E0,8.981323242E0,1.731055902E1
3.405363458E0,-1.279135025E1,-3.754193115E0,8.581354980E0,1.585409286E1
3.415442458E0,-1.090961334E1,-2.765199738E0,7.742499390E0,1.366061088E1
3.425521458E0,-9.448651428E0,-2.112856293E0,6.754703522E0,1.180538840E1
3.435600458E0,-8.379873962E0,-1.617236938E0,5.806425476E0,1.032241831E1
3.445679458E0,-7.432494049E0,-1.218466187E0,4.952601013E0,9.014149124E0
3.455759458E0,-7.102879486E0,-1.223705292E0,4.420008545E0,8.454870027E0
3.465838458E0,-7.294481049E0,-1.475332031E0,4.312831421E0,8.601544817E0
3.475917458E0,-7.576644287E0,-1.800755310E0,4.492757263E0,8.990724452E0
3.485996458E0,-7.801327057E0,-2.170187073E0,4.663402405E0,9.344396062E0
3.496075458E0,-8.066575470E0,-2.556084595E0,4.873415680E0,9.764905973E0
3.506154458E0,-8.350984039E0,-2.753823395E0,5.021607513E0,1.012615523E1
3.516233458E0,-8.609197083E0,-2.836451569E0,4.915927277E0,1.031164744E1
3.526312458E0,-8.767418060E0,-2.685415649E0,4.738246765E0,1.032133998E1
3.536391458E0,-8.811725922E0,-2.360291748E0,4.737947388E0,1.027937918E1
3.546470458E0,-8.672964478E0,-2.011666718E0,4.792583771E0,1.011118069E1
3.556549458E0,-8.471782837E0,-1.620230713E0,4.838687897E0,9.889850988E0
3.566628458E0,-8.348738708E0,-1.276246033E0,4.782404938E0,9.705752879E0
3.576707458E0,-8.330027618E0,-9.725276184E-1,4.607568512E0,9.568952800E0
3.586786458E0,-8.341403961E0,-6.375242615E-1,4.279001770E0,9.396558592E0
3.596865458E0,-8.336314545E0,-4.314028931E-1,3.672612762E0,9.119667381E0
3.606944458E0,-8.290210419E0,-3.016227722E-1,3.109483795E0,8.859314565E0
3.617023458E0,-8.284222870E0,-2.559677124E-1,2.632126465E0,8.696088647E0
3.627102458E0,-8.124355316E0,-2.505789185E-1,2.185904388E0,8.417013550E0
3.637181458E0,-7.912396088E0,-2.441423035E-1,1.827549591E0,8.124380273E0
3.647260458E0,-7.854167175E0,-1.922003174E-1,1.650168457E0,8.027947366E0
3.657339458E0,-7.952063599E0,-1.008901978E-1,1.456022186E0,8.084893006E0
3.667418458E0,-8.025411072E0,-3.832031250E-2,1.262175293E0,8.124147819E0
3.677497458E0,-8.024812317E0,-5.852828979E-2,1.178050232E0,8.111032032E0
3.687577458E0,-7.981701965E0,1.077758789E-2,1.102607117E0,8.057507361E0
3.697656458E0,-8.066575470E0,1.457968140E-1,1.090632019E0,8.141275989E0
3.707735458E0,-8.434360657E0,1.537303162E-1,1.030606842E0,8.498483580E0
3.717814458E0,-8.815617828E0,6.840774536E-2,9.479786682E-1,8.866705187E0
3.727893458E0,-9.195827179E0,-7.439529419E-2,8.201445007E-1,9.232627425E0
3.737972458E0,-9.461075592E0,-3.174897766E-1,6.649172974E-1,9.489724239E0
3.748051458E0,-9.789642334E0,-5.761518860E-1,3.969744873E-1,9.814613429E0
3.758130458E0,-1.002270767E1,-7.441026306E-1,2.059716797E-1,1.005240181E1
3.768209458E0,-1.025188110E1,-9.213340759E-1,7.529342651E-2,1.029347326E1
3.778288458E0,-1.061352905E1,-1.125359802E0,-1.353186035E-1,1.067388143E1
3.788367458E0,-1.105660767E1,-1.391955414E0,-5.295986938E-1,1.115645946E1
3.798446458E0,-1.150058441E1,-1.709744568E0,-8.466394043E-1,1.165776422E1
3.808525458E0,-1.199635345E1,-2.055974579E0,-7.699987793E-1,1.219559042E1
3.818604458E0,-1.269629791E1,-2.601739655E0,-3.541635132E-1,1.296497056E1
3.828683458E0,-1.323128540E1,-3.145708466E0,2.642005920E-1,1.360265404E1
3.838762458E0,-1.349937790E1,-3.640429688E0,8.948391724E-1,1.401023444E1
3.848841458E0,-1.377734985E1,-4.124972076E0,1.489851837E0,1.445857607E1
3.858920458E0,-1.380833542E1,-4.512965240E0,1.686393127E0,1.462466766E1
3.868999458E0,-1.377974487E1,-4.903353424E0,1.613943787E0,1.471492637E1
3.879078458E0,-1.379082184E1,-5.210963745E0,1.628313904E0,1.483213795E1
3.889157458E0,-1.391177032E1,-5.286706238E0,1.916315002E0,1.500529505E1
3.899236458E0,-1.421578812E1,-5.231171722E0,2.451302490E0,1.534479303E1
3.909315458E0,-1.460542786E1,-5.234764252E0,3.045566711E0,1.581128572E1
3.919395458E0,-1.458851303E1,-5.147046661E0,3.471131744E0,1.585451221E1
3.929474458E0,-1.408466080E1,-4.877906342E0,3.543281708E0,1.532078605E1
3.939553458E0,-1.347722397E1,-4.412673798E0,3.387904816E0,1.458030024E1
3.949632458E0,-1.260004807E1,-3.767814789E0,3.182232513E0,1.353086262E1
3.959711458E0,-1.173230255E1,-3.179238739E0,2.947670288E0,1.250772730E1
3.969790458E0,-1.091934311E1,-2.747087402E0,2.743345184E0,1.158898123E1
3.979869458E0,-1.025382706E1,-2.527194672E0,2.623594208E0,1.088167858E1
3.989948458E0,-9.688901825E0,-2.604284363E0,2.353106689E0,1.030505831E1
4.000027458E0,-9.080417175E0,-2.754422150E0,1.834734650E0,9.664733245E0
4.010106458E0,-8.468938751E0,-2.942730560E0,1.330433350E0,9.063809333E0
4.020185458E0,-7.932903442E0,-3.135230255E0,1.019230499E0,8.590661010E0
4.030264458E0,-7.466772766E0,-3.164269867E0,8.295748901E-1,8.151901240E0
4.040343458E0,-7.123237152E0,-3.331172791E0,6.378236389E-1,7.889489127E0
4.050422458E0,-6.776558075E0,-3.474125519E0,5.037025452E-1,7.631841437E0
4.060501458E0,-6.700067139E0,-3.769461365E0,2.945874023E-1,7.693277610E0
4.070580458E0,-6.727759552E0,-4.085454254E0,1.061293030E-1,7.871781786E0
4.080659458E0,-6.793622589E0,-4.443359985E0,2.424957275E-2,8.117717899E0
4.090738458E0,-6.859934692E0,-4.929998016E0,1.678010559E-1,8.449363385E0
4.100817458E0,-6.868616638E0,-5.586682434E0,4.141886902E-1,8.863434290E0
4.110896458E0,-6.892866211E0,-6.364764404E0,7.450007629E-1,9.411527860E0
4.120975458E0,-6.993307343E0,-7.191644897E0,1.307081909E0,1.011605491E1
4.131054458E0,-6.963369598E0,-7.605534210E0,2.115101624E0,1.052645817E1
4.141133458E0,-6.797664185E0,-7.587272186E0,2.988385620E0,1.061627930E1
4.151212458E0,-6.685397644E0,-7.228767700E0,3.890559540E0,1.058707125E1
4.161291458E0,-6.592291260E0,-6.537804565E0,4.707560577E0,1.040972234E1
4.171371458E0,-6.673422546E0,-5.777086487E0,5.306016083E0,1.029869426E1
4.181450458E0,-6.822213135E0,-5.036726074E0,5.608686676E0,1.016703338E1
4.191529458E0,-6.981781311E0,-4.263583832E0,5.877976685E0,1.007343175E1
4.201608458E0,-7.049889679E0,-3.533851318E0,6.033952332E0,9.929633949E0
4.211687458E0,-7.025939484E0,-3.000510406E0,5.780529327E0,9.580261355E0
4.221766458E0,-6.939569092E0,-2.666255493E0,5.288502502E0,9.123310597E0
4.231845458E0,-6.697223053E0,-2.383942566E0,4.500690765E0,8.413809847E0
4.241924000E0,-6.527625732E0,-2.292183380E0,3.564387817E0,7.782600007E0
4.252003000E0,-6.365512848E0,-2.373314667E0,2.953059082E0,7.407626763E0
4.262082000E0,-6.126310272E0,-2.472857666E0,2.657723236E0,7.121109140E0
4.272161000E0,-5.995632019E0,-2.637215881E0,2.443219299E0,6.990839110E0
4.282240000E0,-5.976621552E0,-2.820883942E0,2.346221008E0,7.012998246E0
4.292319000E0,-6.057154083E0,-2.952610016E0,2.316283264E0,7.125460663E0
4.302398000E0,-6.271807709E0,-2.948119354E0,2.367177429E0,7.323285372E0
4.312477000E0,-6.431226196E0,-2.707719269E0,2.637964325E0,7.459977869E0
4.322556000E0,-6.566694489E0,-2.500550079E0,2.733465729E0,7.539632756E0
4.332635000E0,-6.711593170E0,-2.452350311E0,2.806513824E0,7.676980186E0
4.342714000E0,-6.819219360E0,-2.540966034E0,2.891986084E0,7.830826558E0
4.352793000E0,-6.907685394E0,-2.855162659E0,3.040477295E0,8.069236240E0
4.362872000E0,-6.978937225E0,-3.402274933E0,3.545527039E0,8.535326678E0
4.372951000E0,-6.977440338E0,-3.955524445E0,4.171824646E0,9.040739360E0
4.383030000E0,-6.970255280E0,-4.459077301E0,4.691394196E0,9.511940314E0
4.393110000E0,-6.936425629E0,-4.852459259E0,5.365741882E0,1.002255194E1
4.403189000E0,-6.994355164E0,-5.195246429E0,6.016438751E0,1.058815965E1
4.413268000E0,-6.903194733E0,-5.239554291E0,6.600374451E0,1.089366649E1
4.423347000E0,-6.821165314E0,-5.222789154E0,6.834487610E0,1.097797995E1
4.433426000E0,-6.935228119E0,-5.195545807E0,6.963519287E0,1.111673001E1
4.443505000E0,-7.290888519E0,-5.001698914E0,7.084617462E0,1.132986549E1
4.453584000E0,-7.730075226E0,-4.695735168E0,7.058122559E0,1.147262332E1
4.463663000E0,-8.117769012E0,-4.361779633E0,6.909331970E0,1.151790621E1
4.473742000E0,-8.441246338E0,-4.180805969E0,6.686445465E0,1.155172417E1
4.483821000E0,-8.746162262E0,-4.153412933E0,6.650819550E0,1.174647155E1
4.493900000E0,-9.160500641E0,-4.170327759E0,6.788682861E0,1.214053626E1
4.503979000E0,-9.674082642E0,-4.056564331E0,6.985673218E0,1.260330193E1
4.514058000E0,-1.026071274E1,-3.924838257E0,7.248825989E0,1.316176506E1
4.524137000E0,-1.099239120E1,-3.901187439E0,7.301815796E0,1.376112066E1
4.534216000E0,-1.198767151E1,-4.035458221E0,7.270979919E0,1.458959699E1
4.544295000E0,-1.308788361E1,-4.258195038E0,7.364984436E0,1.560986605E1
4.554374000E0,-1.401191208E1,-4.287384338E0,7.477999420E0,1.645101273E1
4.564453000E0,-1.466485428E1,-4.123175812E0,7.630981293E0,1.703791082E1
4.574532000E0,-1.531495239E1,-4.094734955E0,7.622149658E0,1.759010479E1
4.584611000E0,-1.602567444E1,-4.381987610E0,7.606282654E0,1.827237238E1
4.594690000E0,-1.652952667E1,-4.767885132E0,7.782017212E0,1.888167822E1
4.604769000E0,-1.650407959E1,-4.874014435E0,8.169710999E0,1.904953641E1
4.614848000E0,-1.593885498E1,-4.573439484E0,8.498128052E0,1.863281050E1
4.624927000E0,-1.499312164E1,-3.751498718E0,8.477471008E0,1.762767579E1
4.635007000E0,-1.385848114E1,-2.567161560E0,7.966284027E0,1.618979614E1
4.645086000E0,-1.311123505E1,-1.536554718E0,6.954088898E0,1.492061786E1
4.655165000E0,-1.285646484E1,-7.738906860E-1,5.787714386E0,1.412038360E1
4.665244000E0,-1.259495865E1,-2.731819153E-1,4.594844971E0,1.340970589E1
4.675323000E0,-1.233420090E1,-2.664459229E-2,3.366349640E0,1.278536396E1
4.685402000E0,-1.199111435E1,1.567240906E-1,2.281705170E0,1.220727505E1
4.695481000E0,-1.146914978E1,4.281097412E-1,1.458117828E0,1.156938988E1
4.705560000E0,-1.094000015E1,7.786807251E-1,8.390052795E-1,1.099972167E1
4.715639000E0,-1.063568298E1,9.455836487E-1,4.977149963E-1,1.068922828E1
4.725718000E0,-1.052191956E1,9.578581238E-1,5.016069031E-1,1.057732919E1
4.735797000E0,-1.032792297E1,8.086184692E-1,3.728746033E-1,1.036623810E1
4.745876000E0,-1.014260834E1,7.033872986E-1,2.338137817E-1,1.016965715E1
4.755955000E0,-9.789193268E0,6.688092041E-1,2.957849121E-1,9.816470817E0
4.766034000E0,-9.413773956E0,5.429209900E-1,3.598516846E-1,9.436280864E0
4.776113000E0,-9.217981110E0,3.370989990E-1,5.637277222E-1,9.241352737E0
4.786192000E0,-9.191635895E0,1.076261902E-1,9.485774231E-1,9.241079642E0
4.796271000E0,-9.311087494E0,-2.079176331E-1,1.372346191E0,9.413974407E0
4.806350000E0,-9.600286102E0,-5.352868652E-1,1.741777954E0,9.771684385E0
4.816429000E0,-9.885293427E0,-8.595126343E-1,2.010169830E0,1.012415778E1
4.826508000E0,-1.018317398E1,-1.158291321E0,2.088007965E0,1.045937132E1
4.836587000E0,-1.052775742E1,-1.380579071E0,2.112856293E0,1.082607207E1
4.846666000E0,-1.090197922E1,-1.582209778E0,2.117646332E0,1.121788593E1
4.856745000E0,-1.134939880E1,-1.778451691E0,2.045646057E0,1.166860795E1
4.866825000E0,-1.193468170E1,-1.910327454E0,2.125579834E0,1.227208491E1
4.876904000E0,-1.252565277E1,-2.045496368E0,2.323767700E0,1.290255514E1
4.886983000E0,-1.286963745E1,-2.163900146E0,2.468067627E0,1.328161849E1
4.897062000E0,-1.302845718E1,-2.288890228E0,2.517913971E0,1.346549687E1
4.907141000E0,-1.307486069E1,-2.425256653E0,2.541564789E0,1.353858942E1
4.917220000E0,-1.299717224E1,-2.709365845E0,2.564317474E0,1.352194045E1
4.927299000E0,-1.296678543E1,-3.034938812E0,2.742297363E0,1.359663829E1
4.937378000E0,-1.283026932E1,-3.393892365E0,3.071762238E0,1.362240946E1
4.947457000E0,-1.251412674E1,-3.603456573E0,3.522924042E0,1.349071018E1
4.957536000E0,-1.200683167E1,-3.569477234E0,3.773952026E0,1.308235026E1
4.967615000E0,-1.141496246E1,-3.280278625E0,3.965852966E0,1.252156482E1
4.977694000E0,-1.086889801E1,-2.973117371E0,4.026776276E0,1.196608950E1
4.987773000E0,-1.023496628E1,-2.747087402E0,3.965104523E0,1.131472836E1
4.997852000E0,-9.650282135E0,-2.718646545E0,3.867956543E0,1.074616546E1
5.007931000E0,-9.152118073E0,-2.797532501E0,3.714226227E0,1.026561882E1
5.018010000E0,-8.721313934E0,-2.837798767E0,3.394042053E0,9.779260710E0
5.028089000E0,-8.353977814E0,-2.908601532E0,2.979853363E0,9.334261312E0
5.038168000E0,-7.954308929E0,-3.112028503E0,2.548600159E0,8.913535478E0
5.048247000E0,-7.254364471E0,-3.445534973E0,2.067650299E0,8.292930296E0
5.058326000E0,-6.797514496E0,-3.819756775E0,1.515747986E0,7.943188094E0
5.068405000E0,-6.561305695E0,-4.306394806E0,1.300495605E0,7.955316302E0
5.078484000E0,-6.266119537E0,-4.721032562E0,1.318607941E0,7.955572224E0
5.088564000E0,-6.066434784E0,-4.933590546E0,1.432820435E0,7.949523323E0
5.098643000E0,-6.122268677E0,-5.031037903E0,1.612446899E0,8.086624830E0
5.108722000E0,-6.332281952E0,-5.218448181E0,1.672472076E0,8.374196020E0
5.118801000E0,-6.511010284E0,-5.542524261E0,1.548529816E0,8.689693591E0
5.128880000E0,-6.647376709E0,-6.000122681E0,1.554068298E0,9.088686240E0
5.138959000E0,-6.641688538E0,-6.371051331E0,1.590891724E0,9.339874633E0
5.149038000E0,-6.646328888E0,-6.502627716E0,1.780547333E0,9.467217316E0
5.159117000E0,-6.816524963E0,-6.264772339E0,2.396217041E0,9.563171082E0
5.169196000E0,-7.033573608E0,-5.768404541E0,3.132386169E0,9.620680421E0
5.179275000E0,-7.300468597E0,-5.223986664E0,3.708388367E0,9.712827739E0
5.189354000E0,-7.520211639E0,-4.684807892E0,4.073778534E0,9.751752644E0
5.199433000E0,-7.713010712E0,-4.217779083E0,4.214635620E0,9.749017799E0
5.209512000E0,-7.914192352E0,-3.890110474E0,4.083358612E0,9.718087139E0
5.219591000E0,-8.082741852E0,-3.666774902E0,3.777694244E0,9.646083549E0
5.229670000E0,-8.166268158E0,-3.523522797E0,3.332669678E0,9.497885855E0
5.239749583E0,-8.133636017E0,-3.457360382E0,2.947969666E0,9.316646436E0
5.249828583E0,-7.922425232E0,-3.377725983E0,2.834056549E0,9.066737610E0
5.259907583E0,-7.614066467E0,-3.260968781E0,3.025658112E0,8.818306672E0
5.269986583E0,-7.466024323E0,-3.102149048E0,3.315904541E0,8.738424962E0
5.280065583E0,-7.353608093E0,-2.895279236E0,3.489693146E0,8.639221730E0
5.290144583E0,-7.066205750E0,-2.579585724E0,3.542233887E0,8.314622487E0
5.300223583E0,-6.917714539E0,-2.295476532E0,3.426225128E0,8.053757233E0
5.310303583E0,-6.827452240E0,-2.096989288E0,3.162174225E0,7.810941940E0
5.320382583E0,-6.849007416E0,-1.839674377E0,2.946772156E0,7.679633490E0
5.330461583E0,-7.208260345E0,-1.540746002E0,2.670297089E0,7.839859820E0
5.340540583E0,-7.491920471E0,-1.244811401E0,2.220931549E0,7.912709063E0
5.350619583E0,-7.724686432E0,-1.171014862E0,1.786834259E0,8.014663620E0
5.360698583E0,-7.912246399E0,-1.221010895E0,1.558259583E0,8.156143918E0
5.370777583E0,-8.074209595E0,-1.390308838E0,1.636846161E0,8.354943722E0
5.380856583E0,-8.124205627E0,-1.650617523E0,1.882934418E0,8.501335031E0
5.390935583E0,-8.161478119E0,-2.020049286E0,2.311343536E0,8.719669325E0
5.401014583E0,-8.135581970E0,-2.342029724E0,2.740501099E0,8.898491080E0
5.411093583E0,-8.126301270E0,-2.637066193E0,2.972817993E0,9.045912737E0
5.421172583E0,-8.146359558E0,-3.082539825E0,3.231779480E0,9.290297327E0
5.431251583E0,-8.305778046E0,-3.694018250E0,3.718866577E0,9.821491149E0
5.441330583E0,-8.831335144E0,-4.255949707E0,4.298910370E0,1.070449526E1
5.451409583E0,-9.400751038E0,-4.684358826E0,4.842280426E0,1.156568275E1
5.461488583E0,-9.908195801E0,-4.842579803E0,5.212161255E0,1.219793213E1
5.471567583E0,-1.005803421E1,-4.859943695E0,5.234764252E0,1.233636339E1
5.481646583E0,-1.035202286E1,-5.068759460E0,5.172344055E0,1.263367891E1
5.491725583E0,-1.085497696E1,-5.306465149E0,5.473068695E0,1.326437251E1
5.501804583E0,-1.134880005E1,-5.569019165E0,5.937103729E0,1.396633229E1
5.511883583E0,-1.158246414E1,-5.599705353E0,6.652466125E0,1.448328282E1
5.521962583E0,-1.172077652E1,-5.391188965E0,7.480394440E0,1.491300847E1
5.532042583E0,-1.197599579E1,-4.835394745E0,8.037835236E0,1.521224220E1
5.542121583E0,-1.198108521E1,-3.962260437E0,8.107889557E0,1.499945944E1
5.552200583E0,-1.197719330E1,-3.113974457E0,7.822882233E0,1.464061073E1
5.562279583E0,-1.197345108E1,-2.323168945E0,7.427704010E0,1.428045628E1
5.572358583E0,-1.195923065E1,-1.660197601E0,7.046596527E0,1.397977026E1
5.582437583E0,-1.209544739E1,-1.229543152E0,6.703360291E0,1.388332320E1
5.592516583E0,-1.241248810E1,-1.048569489E0,6.384223938E0,1.399741669E1
5.602595583E0,-1.288340881E1,-1.056203613E0,6.192322998E0,1.433327084E1
5.612674583E0,-1.338396790E1,-1.130449219E0,6.152805176E0,1.477381209E1
5.622753583E0,-1.401924683E1,-1.356928253E0,6.231242065E0,1.540158802E1
5.632832583E0,-1.465257980E1,-1.694176941E0,6.325396271E0,1.604926691E1
5.642911583E0,-1.536120621E1,-2.092199249E0,6.436914368E0,1.678623902E1
5.652990583E0,-1.601699249E1,-2.576292572E0,6.565496979E0,1.750105947E1
5.663069583E0,-1.618524261E1,-2.689606934E0,6.630910950E0,1.769646982E1
5.673148583E0,-1.584275482E1,-2.402054901E0,6.611750793E0,1.733430116E1
5.683227583E0,-1.508083923E1,-1.838626556E0,6.386768646E0,1.648038450E1
5.693306583E0,-1.416504364E1,-1.106499023E0,6.019582214E0,1.543075408E1
5.703385583E0,-1.331121918E1,-4.706213379E-1,5.368585968E0,1.436077142E1
5.713464583E0,-1.256067993E1,-4.924758911E-2,4.638254700E0,1.338979135E1
5.723543583E0,-1.198991684E1,1.236428833E-1,3.975433044E0,1.263239729E1
5.733622583E0,-1.137230118E1,8.577163696E-2,3.379222870E0,1.186405235E1
5.743701583E0,-1.091215805E1,-1.062789917E-1,2.955154724E0,1.130572545E1
5.753781583E0,-1.078207855E1,-4.077520752E-1,2.667602692E0,1.111465626E1
5.763860583E0,-1.034049683E1,-6.822811890E-1,2.313289490E0,1.061803609E1
5.773939583E0,-9.815688171E0,-9.785151672E-1,1.975591736E0,1.006022807E1
5.784018583E0,-9.182355194E0,-1.229393463E0,1.652862854E0,9.410579728E0
5.794097583E0,-8.598718872E0,-1.372346191E0,1.413660278E0,8.821549506E0
5.804176583E0,-8.281678162E0,-1.391506348E0,1.481618958E0,8.527466085E0
5.814255583E0,-8.172704773E0,-1.449136505E0,1.549278259E0,8.443539722E0
5.824334583E0,-8.172405396E0,-1.638043671E0,1.626218262E0,8.492112979E0
5.834413583E0,-8.284671936E0,-1.897454224E0,1.780098267E0,8.683597841E0
5.844492583E0,-8.483907623E0,-2.180216217E0,1.955533447E0,8.975195952E0
5.854571583E0,-8.888665924E0,-2.559976501E0,2.144739990E0,9.495355245E0
5.864650583E0,-9.220974884E0,-2.856509857E0,2.324665833E0,9.929254635E0
5.874729583E0,-9.345066833E0,-2.999013519E0,2.314636688E0,1.008374431E1
5.884808583E0,-9.577683105E0,-3.163371735E0,2.331850891E0,1.035260658E1
5.894887583E0,-9.996961212E0,-3.245401154E0,2.559377747E0,1.081768351E1
5.904966583E0,-1.039423508E1,-3.271297302E0,2.495460663E0,1.117894596E1
5.915045583E0,-1.076426559E1,-3.333418121E0,2.244133301E0,1.148987487E1
5.925124583E0,-1.127694946E1,-3.489842834E0,2.116299133E0,1.199280260E1
5.935203583E0,-1.186777084E1,-3.748055878E0,2.143692169E0,1.262882907E1
5.945282583E0,-1.226534409E1,-4.025878143E0,2.135309601E0,1.308456753E1
5.955361583E0,-1.251667145E1,-4.345613251E0,2.003284149E0,1.340017037E1
5.965441583E0,-1.247655487E1,-4.683011627E0,1.851050720E0,1.345441965E1
5.975520583E0,-1.229004272E1,-4.950205994E0,1.883233795E0,1.338268505E1
5.985599583E0,-1.196506851E1,-5.175936584E0,2.185305634E0,1.321850009E1
5.995678583E0,-1.148666336E1,-5.272635498E0,2.761756897E0,1.293721073E1
6.005757583E0,-1.102457428E1,-5.393134918E0,3.165018311E0,1.267456047E1
6.015836583E0,-1.053718781E1,-5.544919281E0,3.427871704E0,1.239067234E1
6.025915583E0,-9.829160156E0,-5.638774109E0,3.706292725E0,1.192244810E1
6.035994583E0,-9.034762115E0,-5.672005005E0,3.798051910E0,1.132359332E1
6.046073583E0,-8.289611664E0,-5.705385590E0,3.752696228E0,1.074019624E1
6.056152583E0,-7.589218140E0,-5.701793060E0,3.633993073E0,1.016427970E1
6.066231583E0,-7.016359406E0,-5.656138000E0,3.588038635E0,9.700268947E0
6.076310583E0,-6.527176666E0,-5.554199982E0,3.546574860E0,9.275309478E0
6.086389583E0,-6.063740387E0,-5.365592194E0,3.464096375E0,8.806729856E0
6.096468583E0,-5.723647614E0,-5.082830200E0,3.261866913E0,8.320762021E0
6.106547583E0,-5.664071503E0,-4.854405212E0,2.877166901E0,7.995313961E0
6.116626583E0,-5.767955475E0,-4.684059448E0,2.445165253E0,7.822311448E0
6.126705583E0,-5.968388672E0,-4.618495789E0,1.928140411E0,7.789088017E0
6.136784583E0,-6.215075684E0,-4.606520691E0,1.330433350E0,7.849665695E0
6.146863583E0,-6.416407013E0,-4.721032562E0,9.497749329E-1,8.022499600E0
6.156942583E0,-6.368207245E0,-4.752616882E0,6.483018494E-1,7.972560820E0
6.167021583E0,-6.134992218E0,-4.685406647E0,3.734733582E-1,7.728560494E0
6.177100583E0,-5.891598358E0,-4.496499481E0,4.183799744E-1,7.423239226E0
6.187179583E0,-5.898034973E0,-4.514911194E0,4.650828552E-1,7.442280678E0
6.197259583E0,-6.042484589E0,-4.861440582E0,4.348457336E-1,7.767516679E0
6.207338583E0,-6.220165100E0,-5.444777527E0,4.224215698E-1,8.277348378E0
6.217417583E0,-6.446644135E0,-6.106102295E0,6.239025879E-1,8.901289809E0
6.227496583E0,-6.594386902E0,-6.660998383E0,1.012793884E0,9.427650265E0
6.237574500E0,-6.722221069E0,-7.014712830E0,1.567689972E0,9.841346658E0
6.247653500E0,-6.917564850E0,-7.089108124E0,2.283501434E0,1.016476936E1
6.257732500E0,-7.337741089E0,-6.815626831E0,3.205434265E0,1.051522811E1
6.267811500E0,-7.680079193E0,-6.130202179E0,4.015699310E0,1.061549981E1
6.277890500E0,-7.861950989E0,-5.444478149E0,4.405788116E0,1.052917777E1
6.287969500E0,-8.067922668E0,-4.927902374E0,4.378245392E0,1.041847545E1
6.298048500E0,-8.244555359E0,-4.470154266E0,4.270020447E0,1.030475846E1
6.308127500E0,-8.468789062E0,-4.147275696E0,4.072880402E0,1.027173981E1
6.318206500E0,-8.815318451E0,-3.924838257E0,3.812571716E0,1.037544687E1
6.328285500E0,-9.108109589E0,-3.675456848E0,3.638633423E0,1.047407736E1
6.338364500E0,-9.383536835E0,-3.615431671E0,3.603157196E0,1.068198724E1
6.348443500E0,-9.410181427E0,-3.371139679E0,3.688629456E0,1.065467430E1
6.358522500E0,-9.478738861E0,-3.370540924E0,3.410507812E0,1.062255149E1
6.368601500E0,-9.545949097E0,-3.397634583E0,3.045417023E0,1.058034167E1
6.378680500E0,-9.635762329E0,-3.353925476E0,2.650089111E0,1.054133313E1
6.388759500E0,-9.728269958E0,-3.217708740E0,2.177671509E0,1.047545412E1
6.398838500E0,-9.836794281E0,-3.007695465E0,1.897005157E0,1.045979839E1
6.408917500E0,-9.924811249E0,-2.821632385E0,1.821412354E0,1.047764433E1
6.418997500E0,-1.004875351E1,-2.636018372E0,1.983674927E0,1.057643636E1
6.429076500E0,-1.023661285E1,-2.561473389E0,2.253713379E0,1.079020911E1
6.439155500E0,-1.062715073E1,-2.415377197E0,2.706372070E0,1.122919540E1
6.449234500E0,-1.087069427E1,-2.388882294E0,3.372187500E0,1.162972060E1
6.459313500E0,-1.070409073E1,-2.670596466E0,3.986809387E0,1.173048562E1
6.469392500E0,-1.070094727E1,-2.981200562E0,4.367467804E0,1.193618885E1
6.479471500E0,-1.076381653E1,-3.386557617E0,4.759502563E0,1.224668867E1
6.489550500E0,-1.070648575E1,-3.674259338E0,5.176086273E0,1.244672197E1
6.499629500E0,-1.087144272E1,-3.968846741E0,5.513484650E0,1.281945881E1
6.509708500E0,-1.127500351E1,-4.348008270E0,5.719905396E0,1.336967456E1
6.519787500E0,-1.153905441E1,-4.664300537E0,5.934109955E0,1.378836964E1
6.529866500E0,-1.165162033E1,-4.862787781E0,6.112838287E0,1.402760683E1
6.539945500E0,-1.159967834E1,-4.838987274E0,6.166426849E0,1.399975556E1
6.550024500E0,-1.137634277E1,-4.520449677E0,6.304589539E0,1.376965829E1
6.560103500E0,-1.116034195E1,-4.003424835E0,6.526727600E0,1.353435687E1
6.570182500E0,-1.087817871E1,-3.484454041E0,6.751709747E0,1.326882725E1
6.580261500E0,-1.068672684E1,-3.053200836E0,7.062762909E0,1.316855291E1
6.590340500E0,-1.072983719E1,-2.797831879E0,7.239245911E0,1.324250545E1
6.600419500E0,-1.087593338E1,-2.601739655E0,7.166048126E0,1.328183805E1
6.610498500E0,-1.098490677E1,-2.328258362E0,7.063511353E0,1.326582664E1
6.620577500E0,-1.240006393E1,-2.882106628E0,7.563022614E0,1.480768163E1
6.630656500E0,-1.344908249E1,-3.252137146E0,7.730374603E0,1.584969739E1
6.640736500E0,-1.375968658E1,-3.507506104E0,7.705975342E0,1.615591625E1
6.650815500E0,-1.353245911E1,-3.602109375E0,7.375462646E0,1.582719466E1
6.660894500E0,-1.279194901E1,-3.524869995E0,6.512656860E0,1.478084460E1
6.670973500E0,-1.210397964E1,-3.408112793E0,5.316194916E0,1.365223368E1
6.681052500E0,-1.185504730E1,-3.381168823E0,4.381388855E0,1.308323421E1
6.691131500E0,-1.169832321E1,-3.323987732E0,3.863914948E0,1.276046626E1
6.701210500E0,-1.151719986E1,-3.084336090E0,3.679049377E0,1.247775725E1
6.711289500E0,-1.142394379E1,-2.826272736E0,3.551215210E0,1.229249522E1
6.721368500E0,-1.149923721E1,-2.521805878E0,3.269051971E0,1.221796473E1
6.731447500E0,-1.145268402E1,-2.155816956E0,2.941383362E0,1.201928676E1
6.741526500E0,-1.128952332E1,-1.747166748E0,2.637215881E0,1.172436932E1
6.751605500E0,-1.092173813E1,-1.352138214E0,2.486778717E0,1.128258436E1
6.761684500E0,-1.017943176E1,-9.894424438E-1,2.224673767E0,1.046656585E1
6.771763500E0,-9.464817810E0,-8.054750061E-1,1.949545898E0,9.697025079E0
6.781842500E0,-8.818461914E0,-5.529501343E-1,1.762285309E0,9.009809870E0
6.791921500E0,-8.271798706E0,-4.185296631E-1,1.467697906E0,8.411418314E0
6.802000500E0,-8.069868622E0,-4.173321533E-1,1.091230774E0,8.154000877E0
6.812079500E0,-8.092321930E0,-5.954617310E-1,8.193960571E-1,8.155468030E0
6.822158500E0,-8.156239014E0,-7.065307617E-1,7.078779602E-1,8.217329966E0
6.832238500E0,-8.171507263E0,-1.023122406E0,6.602769470E-1,8.261735656E0
6.842317500E0,-8.473878479E0,-1.387015686E0,8.234376526E-1,8.626034927E0
6.852396500E0,-9.300010529E0,-1.837878113E0,1.038390656E0,9.536574172E0
6.862475500E0,-1.022523651E1,-2.393073578E0,1.215472412E0,1.057164302E1
6.872554500E0,-1.100526443E1,-2.769091644E0,1.402283936E0,1.143460161E1
6.882633500E0,-1.161509628E1,-2.930905151E0,1.478924561E0,1.207012363E1
6.892712500E0,-1.205667801E1,-3.138074341E0,1.505718842E0,1.254903121E1
6.902791500E0,-1.238404724E1,-3.386557617E0,1.554667053E0,1.293253217E1
6.912870500E0,-1.287322998E1,-3.516936493E0,1.758692780E0,1.346038234E1
6.922949500E0,-1.339998459E1,-3.578159180E0,2.089205475E0,1.402596127E1
6.933028500E0,-1.361927856E1,-3.588936768E0,2.311193848E0,1.427259026E1
6.943107500E0,-1.364023499E1,-3.669618988E0,2.233355713E0,1.430069899E1
6.953186500E0,-1.378184052E1,-3.980821838E0,2.140548706E0,1.450406906E1
6.963265500E0,-1.395278503E1,-4.459975433E0,2.269430695E0,1.482301949E1
6.973344500E0,-1.429572189E1,-5.138963470E0,2.572999420E0,1.540769081E1
6.983423500E0,-1.458462112E1,-6.047274628E0,2.892584839E0,1.605140962E1
6.993502500E0,-1.463326996E1,-6.933581543E0,3.200344849E0,1.650603980E1
7.003581500E0,-1.430245789E1,-7.660769348E0,3.442391510E0,1.658607090E1
7.013660500E0,-1.371882156E1,-8.045020294E0,3.615880737E0,1.630959871E1
7.023739500E0,-1.292187881E1,-8.149053955E0,3.627706146E0,1.570166502E1
7.033819500E0,-1.229363525E1,-8.058192902E0,3.617527313E0,1.513784808E1
7.043898500E0,-1.173918823E1,-7.851622467E0,3.827390900E0,1.463234215E1
7.053977500E0,-1.122201370E1,-7.470065918E0,3.909570007E0,1.403638892E1
7.064056500E0,-1.069346283E1,-7.190148010E0,3.668271790E0,1.339793244E1
7.074135500E0,-1.013377670E1,-7.060367889E0,3.304079132E0,1.278511494E1
7.084214500E0,-9.611812134E0,-7.158863068E0,2.762954407E0,1.229919387E1
7.094293500E0,-8.726702728E0,-7.363337860E0,2.346370697E0,1.165673798E1
7.104372500E0,-7.713459778E0,-7.469766541E0,1.927841034E0,1.090923668E1
7.114451500E0,-6.797813873E0,-7.524552612E0,1.516945496E0,1.025330625E1
7.124530500E0,-5.841003571E0,-7.462132416E0,1.264420624E0,9.560308699E0
7.134609500E0,-5.045707397E0,-7.218139801E0,1.033301239E0,8.867266590E0
7.144688500E0,-4.434528351E0,-7.009922791E0,7.734416199E-1,8.330802552E0
7.154767500E0,-4.056564331E0,-6.787784729E0,5.933660889E-1,7.929805736E0
7.164846500E0,-4.171824646E0,-6.847211151E0,4.733157349E-1,8.031964219E0
7.174925500E0,-4.484973450E0,-7.228019257E0,6.075865173E-1,8.528095367E0
7.185004500E0,-4.791086884E0,-7.568561096E0,8.171507263E-1,8.994741014E0
7.195083500E0,-4.743785248E0,-7.812853088E0,8.044271851E-1,9.175580361E0
7.205162500E0,-4.436474304E0,-7.953111420E0,1.060095520E0,9.168319803E0
7.215241500E0,-3.988455963E0,-7.813152466E0,1.585353241E0,8.914397193E0
7.225320500E0,-3.670217743E0,-7.483687592E0,2.221829681E0,8.626274131E0
7.235400500E0,-3.766617279E0,-7.073241119E0,2.949915619E0,8.539329471E0
7.245479833E0,-4.174519043E0,-6.628066864E0,3.650309143E0,8.641911619E0
7.255558833E0,-4.578828278E0,-6.026916962E0,3.999832306E0,8.560844289E0
7.265637833E0,-5.095404053E0,-5.536985779E0,4.152065735E0,8.594242482E0
7.275716833E0,-5.889053650E0,-5.136418762E0,4.090393982E0,8.820151559E0
7.285795833E0,-6.675218811E0,-4.594844971E0,4.001778259E0,9.037996222E0
7.295874833E0,-7.055577850E0,-4.061054993E0,3.824995880E0,8.994661747E0
7.305953833E0,-7.194189606E0,-3.660188599E0,3.494782562E0,8.795842758E0
7.316032833E0,-7.314239960E0,-3.511398010E0,3.072211304E0,8.675627036E0
7.326111833E0,-7.500153351E0,-3.435056763E0,2.640359344E0,8.661605666E0
7.336190833E0,-7.771988068E0,-3.360511780E0,2.200723572E0,8.748715459E0
7.346269833E0,-8.150700531E0,-3.374582520E0,1.823507996E0,9.008157844E0
7.356348833E0,-8.350834351E0,-3.431015167E0,1.486858063E0,9.149811273E0
7.366427833E0,-8.682843933E0,-3.490441589E0,1.185384979E0,9.432926312E0
7.376506833E0,-8.881929932E0,-3.575614471E0,9.026229858E-1,9.617090330E0
7.386585833E0,-9.009165344E0,-3.714226227E0,7.101232910E-1,9.770609590E0
7.396664833E0,-9.204958191E0,-3.719764709E0,8.876541138E-1,9.967739694E0
7.406743833E0,-9.283993835E0,-3.628604279E0,1.263522491E0,1.004767633E1
7.416822833E0,-9.359287262E0,-3.731141052E0,1.690883789E0,1.021649449E1
7.426901833E0,-9.461973724E0,-3.925886078E0,2.150577850E0,1.046740242E1
7.436980833E0,-9.538614349E0,-4.034709778E0,2.514620819E0,1.065773731E1
7.447060833E0,-9.538913727E0,-4.089346161E0,2.806064758E0,1.075116861E1
7.457139833E0,-9.518855438E0,-4.269721069E0,3.067421265E0,1.087419882E1
7.467218833E0,-9.434880066E0,-4.498744812E0,3.360661469E0,1.097951330E1
7.477297833E0,-9.593550110E0,-4.660708008E0,3.741020508E0,1.130281546E1
7.487376833E0,-9.800419922E0,-4.719086609E0,4.207450562E0,1.166278909E1
7.497455833E0,-9.977950745E0,-4.776118011E0,4.569697266E0,1.196883192E1
7.507534833E0,-1.027972321E1,-4.865631866E0,4.784650269E0,1.233855587E1
7.517613833E0,-1.078926361E1,-5.064867554E0,4.908442841E0,1.289006997E1
7.527692833E0,-1.132095795E1,-5.285359039E0,5.018913116E0,1.346434543E1
7.537771833E0,-1.159399017E1,-5.318440247E0,5.129982147E0,1.374856835E1
7.547850833E0,-1.171898026E1,-5.243745575E0,5.277575226E0,1.388107223E1
7.557929833E0,-1.179352524E1,-5.055437164E0,5.485492859E0,1.395475956E1
7.568008833E0,-1.184486847E1,-4.696782990E0,5.724545746E0,1.396893351E1
7.578087833E0,-1.204605011E1,-4.221970367E0,5.863606567E0,1.404685869E1
7.588166833E0,-1.246892075E1,-3.616180115E0,5.710624695E0,1.418315824E1
7.598245833E0,-1.340657089E1,-2.805765381E0,5.776338043E0,1.486521253E1
7.608324833E0,-1.403122192E1,-2.019899597E0,6.160289612E0,1.545653102E1
7.618403833E0,-1.352063370E1,-1.820214844E0,6.291566620E0,1.502346592E1
7.628482833E0,-1.225366837E1,-2.072590027E0,6.511309662E0,1.403015222E1
7.638561833E0,-1.114028366E1,-2.493814087E0,6.915768585E0,1.334739240E1
7.648640833E0,-1.083297272E1,-2.955903168E0,7.426955566E0,1.346292429E1
7.658719833E0,-1.109208389E1,-3.244652710E0,7.919132080E0,1.400980903E1
7.668798833E0,-1.180250656E1,-3.794459381E0,8.291407928E0,1.491457437E1
7.678877833E0,-1.265827698E1,-4.449946289E0,8.535999298E0,1.590274448E1
7.688957833E0,-1.312964676E1,-4.714146881E0,8.916508026E0,1.655641629E1
7.699036833E0,-1.338651260E1,-4.575086060E0,9.188043365E0,1.686861799E1
7.709115833E0,-1.364697098E1,-4.136797485E0,9.308692474E0,1.702952336E1
7.719194833E0,-1.374905869E1,-3.517684937E0,9.520502014E0,1.708949036E1
7.729273833E0,-1.358260483E1,-2.813249817E0,9.389674072E0,1.675014948E1
7.739352833E0,-1.344055023E1,-2.590513000E0,8.794960785E0,1.626992573E1
7.749431833E0,-1.305929306E1,-2.629282379E0,7.895331573E0,1.548530018E1
7.759510833E0,-1.266216888E1,-2.683619385E0,6.849905548E0,1.464423231E1
7.769589833E0,-1.229153961E1,-2.757415924E0,5.995182953E0,1.395089629E1
7.779668833E0,-1.184801193E1,-2.704276428E0,5.188211060E0,1.321385757E1
7.789747833E0,-1.123084534E1,-2.621049500E0,4.294120331E0,1.230614712E1
7.799826833E0,-1.082743423E1,-2.666105804E0,3.543581085E0,1.170035979E1
7.809905833E0,-1.066307602E1,-2.684816895E0,3.165317688E0,1.144240657E1
7.819984833E0,-1.062370789E1,-2.654130707E0,2.903362427E0,1.132859623E1
7.830063833E0,-1.085782104E1,-2.688858490E0,2.663710785E0,1.149859091E1
7.840142833E0,-1.114327744E1,-2.719544678E0,2.454595642E0,1.173002963E1
7.850221833E0,-1.124102417E1,-2.738405457E0,2.266287231E0,1.178963726E1
7.860300833E0,-1.105091949E1,-2.888543243E0,1.964514771E0,1.158990173E1
7.870379833E0,-1.082264420E1,-3.320095825E0,1.846260681E0,1.147001928E1
7.880458833E0,-1.048240173E1,-3.651207275E0,1.958078156E0,1.127147420E1
7.890537833E0,-1.011925690E1,-3.984264679E0,2.149230652E0,1.108570781E1
7.900616833E0,-9.919422455E0,-4.324058075E0,2.415676575E0,1.108728611E1
7.910695833E0,-9.975855103E0,-4.695136414E0,2.660567322E0,1.134198437E1
7.920775833E0,-1.022927811E1,-4.995861053E0,2.767445068E0,1.171560969E1
7.930854833E0,-1.048719177E1,-5.103187866E0,2.751578064E0,1.198310893E1
7.940933833E0,-1.079001205E1,-5.255421295E0,2.661016388E0,1.229328359E1
7.951012833E0,-1.099703156E1,-5.486390991E0,2.525398407E0,1.254642683E1
7.961091833E0,-1.112965576E1,-5.754633179E0,2.418071594E0,1.276056859E1
7.971170833E0,-1.116004257E1,-6.076164551E0,2.232906647E0,1.290163548E1
7.981249833E0,-1.113504456E1,-6.343059540E0,2.236349487E0,1.300864638E1
7.991328833E0,-1.094314362E1,-6.450236664E0,2.380200348E0,1.292374941E1
8.001407833E0,-1.059526703E1,-6.479126587E0,2.563119965E0,1.268102317E1
8.011486833E0,-1.014605118E1,-6.382727051E0,2.766247559E0,1.230177567E1
8.021565833E0,-9.784552917E0,-6.283483429E0,3.091371460E0,1.203229892E1
8.031644833E0,-9.484726410E0,-6.262377319E0,3.262166290E0,1.182451410E1
8.041723833E0,-9.351204071E0,-6.432723083E0,3.256178741E0,1.180794833E1
8.051802833E0,-9.151219940E0,-6.624923401E0,3.305725708E0,1.177124713E1
8.061881833E0,-8.809480591E0,-6.744225311E0,3.155438232E0,1.153465707E1
8.071960833E0,-8.163573761E0,-6.787036285E0,2.826871490E0,1.098630969E1
8.082039833E0,-7.327861633E0,-6.673272858E0,2.690205688E0,1.026972898E1
8.092118833E0,-6.533313904E0,-6.419101410E0,2.628983002E0,9.528935150E0
8.102197833E0,-5.939349060E0,-6.147566071E0,2.614463196E0,8.938895550E0
8.112276833E0,-5.668711853E0,-5.905519409E0,2.596201172E0,8.587765372E0
8.122355833E0,-5.469326477E0,-5.756579132E0,2.459086304E0,8.312571255E0
8.132434833E0,-5.281766510E0,-5.639223175E0,2.284549255E0,8.057112435E0
8.142513833E0,-5.182223511E0,-5.447172546E0,1.953737183E0,7.768154108E0
8.152592833E0,-5.270539856E0,-5.442382507E0,1.517843628E0,7.726704796E0
8.162671833E0,-5.453010406E0,-5.632786560E0,1.010398865E0,7.904714593E0
8.172751833E0,-5.586083679E0,-5.969885559E0,4.727169800E-1,8.189464317E0
8.182830833E0,-5.586383057E0,-6.218967590E0,1.736389160E-2,8.359637256E0
8.192909833E0,-5.357209625E0,-6.157445526E0,-1.561253357E-1,8.163222740E0
8.202988833E0,-4.884941711E0,-5.995931396E0,-2.561174011E-1,7.738180985E0
8.213067833E0,-4.548291779E0,-5.860912170E0,6.376739502E-2,7.418983478E0
8.223146833E0,-4.620441742E0,-5.738167419E0,6.774911499E-1,7.398245838E0
8.233225833E0,-5.147346039E0,-5.855373688E0,1.204994202E0,7.888763103E0
8.243305458E0,-5.759423218E0,-6.178102570E0,1.436263275E0,8.567541033E0
8.253384458E0,-6.345155182E0,-6.569837952E0,1.440903625E0,9.246619288E0
8.263463458E0,-6.843169556E0,-6.931934967E0,1.525028687E0,9.859330832E0
8.273542458E0,-6.905290375E0,-7.006030884E0,1.900298309E0,1.001891399E1
8.283621458E0,-6.876550140E0,-6.920408936E0,2.450853424E0,1.005910951E1
8.293700458E0,-7.025041351E0,-6.683302002E0,3.166365509E0,1.020017658E1
8.303779458E0,-7.411238251E0,-6.354136505E0,4.065695343E0,1.057503578E1
8.313858458E0,-7.707621918E0,-5.842350769E0,4.772226105E0,1.078492652E1
8.323937458E0,-8.195158081E0,-5.358257446E0,5.051844635E0,1.101783432E1
8.334016458E0,-8.847501526E0,-5.011278992E0,4.783752136E0,1.123723653E1
8.344095458E0,-9.349407806E0,-4.667893066E0,4.174668732E0,1.125293344E1
8.354174458E0,-9.795330505E0,-4.409979401E0,3.537743225E0,1.130982074E1
8.364253458E0,-1.001896545E1,-4.292324066E0,2.908002777E0,1.128096604E1
8.374332458E0,-1.016536102E1,-4.415966949E0,2.428100739E0,1.134596854E1
8.384411458E0,-1.005698639E1,-4.532574463E0,2.292782135E0,1.126694530E1
8.394490458E0,-1.019080811E1,-4.583318939E0,2.490670624E0,1.144826723E1
8.404569458E0,-1.039213943E1,-4.495751038E0,2.663411407E0,1.163194308E1
8.414648458E0,-1.059421921E1,-4.418212280E0,2.774480438E0,1.180914146E1
8.424727458E0,-1.071756271E1,-4.273313599E0,2.880460052E0,1.189219953E1
8.434807458E0,-1.088326813E1,-4.116290131E0,2.872975616E0,1.198513072E1
8.444886458E0,-1.112037506E1,-3.987108765E0,2.800077209E0,1.214084882E1
8.454965458E0,-1.132709518E1,-3.719764709E0,2.925965424E0,1.227603391E1
8.465044458E0,-1.143397293E1,-3.408262482E0,3.149600372E0,1.233985302E1
8.475123458E0,-1.132170639E1,-3.239263916E0,3.430566101E0,1.226550652E1
8.485202458E0,-1.122874969E1,-3.434008942E0,3.702400818E0,1.231198639E1
8.495281458E0,-1.110989685E1,-3.775897980E0,3.995341644E0,1.239556245E1
8.505360458E0,-1.097397949E1,-4.181105347E0,4.283492432E0,1.250032700E1
8.515439458E0,-1.106963058E1,-4.610861664E0,4.571343842E0,1.283331411E1
8.525518458E0,-1.130913254E1,-5.136119385E0,4.835394745E0,1.332881253E1
8.535597458E0,-1.140164017E1,-5.622458038E0,5.197192383E0,1.373390846E1
8.545676458E0,-1.140298737E1,-5.890999603E0,5.679938507E0,1.403544437E1
8.555755458E0,-1.131167725E1,-6.038592682E0,5.990243225E0,1.415279681E1
8.565834458E0,-1.115824631E1,-5.943540344E0,6.253246307E0,1.410443979E1
8.575913458E0,-1.098864899E1,-5.659431152E0,6.514902191E0,1.397224098E1
8.585992458E0,-1.072699310E1,-5.062322845E0,6.764133911E0,1.365463296E1
8.596071458E0,-1.048883835E1,-4.333488464E0,7.064409485E0,1.336789937E1
8.606150458E0,-1.031864227E1,-3.555107117E0,7.249275055E0,1.310210494E1
8.616229458E0,-1.021924896E1,-2.891986084E0,7.104376373E0,1.277766788E1
8.626308458E0,-1.052191956E1,-2.430346069E0,6.928641815E0,1.283056704E1
8.636387458E0,-1.090991272E1,-2.222877502E0,6.718628540E0,1.300412817E1
8.646466458E0,-1.117037109E1,-2.323468323E0,6.583759003E0,1.317275894E1
8.656545458E0,-1.156929153E1,-2.682421875E0,6.185587006E0,1.339049590E1
8.666624458E0,-1.207553879E1,-3.162323914E0,5.804778900E0,1.376642247E1
8.676703458E0,-1.245844254E1,-3.604654083E0,5.582940216E0,1.412004047E1
8.686783458E0,-1.283625687E1,-4.026626587E0,5.629942474E0,1.458353401E1
8.696862458E0,-1.297606613E1,-4.194277954E0,5.833668823E0,1.483246277E1
8.706941458E0,-1.267249741E1,-3.986360321E0,5.836961975E0,1.451045775E1
8.717020458E0,-1.313383804E1,-4.489464111E0,5.792953491E0,1.504032247E1
8.727099458E0,-1.262280075E1,-4.036056976E0,5.593418427E0,1.438440768E1
8.737178458E0,-1.239721985E1,-3.993844757E0,5.525010681E0,1.414805990E1
8.747257458E0,-1.235545670E1,-4.121379547E0,5.395080872E0,1.409787137E1
8.757336458E0,-1.234662506E1,-4.180506592E0,5.496869202E0,1.414677902E1
8.767415458E0,-1.233000961E1,-4.241280212E0,5.684728546E0,1.422440626E1
8.777494458E0,-1.218017120E1,-4.268373871E0,5.757327576E0,1.413231782E1
8.787573458E0,-1.212867828E1,-4.170776825E0,5.730383606E0,1.404768709E1
8.797652458E0,-1.203093155E1,-3.964505768E0,5.558241577E0,1.383310050E1
8.807731458E0,-1.181044006E1,-3.680246887E0,5.099595337E0,1.338045531E1
8.817810458E0,-1.131556915E1,-3.366349640E0,4.419858856E0,1.260593382E1
8.827889458E0,-1.092548035E1,-3.135679321E0,3.851041718E0,1.200121360E1
8.837968458E0,-1.051757858E1,-2.957699432E0,3.453767853E0,1.145844481E1
8.848047458E0,-1.011431717E1,-2.904110870E0,3.086731110E0,1.096636588E1
8.858126458E0,-9.923464050E0,-3.051254883E0,2.790347443E0,1.075041087E1
8.868205458E0,-9.732610931E0,-3.174598389E0,2.607577515E0,1.056414933E1
8.878284458E0,-9.381890259E0,-3.367696838E0,2.472558289E0,1.027009208E1
8.888363458E0,-9.029223633E0,-3.457061005E0,2.295326843E0,9.937136183E0
8.898442458E0,-8.711883545E0,-3.611689453E0,2.260748749E0,9.698051377E0
8.908521458E0,-8.509354706E0,-3.726500702E0,2.329306183E0,9.577139045E0
8.918600458E0,-8.597970428E0,-4.037553864E0,2.450404358E0,9.809761374E0
8.928680458E0,-8.857979736E0,-4.333189087E0,2.512076111E0,1.017599425E1
8.938759458E0,-9.105864258E0,-4.543052673E0,2.298021240E0,1.043249697E1
8.948838458E0,-9.273066559E0,-4.751569061E0,2.080822906E0,1.062529980E1
8.958917458E0,-9.190588074E0,-4.778962097E0,1.923050995E0,1.053582047E1
8.968996458E0,-9.040300598E0,-4.683311005E0,1.756148071E0,1.033172265E1
8.979075458E0,-8.963360596E0,-4.700076141E0,1.626817017E0,1.025080887E1
8.989154458E0,-8.892258453E0,-4.760400696E0,1.756746826E0,1.023815582E1
8.999233458E0,-8.749605103E0,-4.751419373E0,2.010918274E0,1.015752764E1
9.009312458E0,-8.721014557E0,-4.854405212E0,2.231709137E0,1.022750559E1
9.019391458E0,-8.808283081E0,-5.157075806E0,2.334395599E0,1.047046725E1
9.029470458E0,-9.317224731E0,-5.745352478E0,2.353106689E0,1.119628791E1
9.039549458E0,-9.946665802E0,-6.771019592E0,2.343077545E0,1.225858390E1
9.049628458E0,-1.032747391E1,-7.680827637E0,2.525248718E0,1.311597162E1
9.059707458E0,-1.022852966E1,-7.976762238E0,2.773582306E0,1.326440024E1
9.069786458E0,-9.513766022E0,-7.561226349E0,3.228785706E0,1.257413794E1
9.079865458E0,-8.964857483E0,-6.628815308E0,3.931574249E0,1.182231526E1
9.089944458E0,-8.830437012E0,-5.808072052E0,4.321812744E0,1.141877332E1
9.100023458E0,-8.984466705E0,-5.357658691E0,4.305796051E0,1.131216285E1
9.110102458E0,-9.385033722E0,-5.303171997E0,3.906576233E0,1.146576770E1
9.120181458E0,-9.887389069E0,-5.418132935E0,3.302582245E0,1.174834782E1
9.130260458E0,-1.006836273E1,-5.660778351E0,2.686014404E0,1.185879475E1
9.140339458E0,-9.947414246E0,-5.992638245E0,2.283651123E0,1.183544785E1
9.150418458E0,-9.529034271E0,-6.314618683E0,2.050286407E0,1.161380978E1
9.160497458E0,-9.114246826E0,-6.575675812E0,2.104324036E0,1.143403635E1
9.170576458E0,-8.685538330E0,-6.598578186E0,2.340981903E0,1.115616450E1
9.180655458E0,-8.381969604E0,-6.551276550E0,2.755020905E0,1.098939394E1
9.190735458E0,-8.122708740E0,-6.349795532E0,3.431164856E0,1.086605691E1
9.200814458E0,-7.751331024E0,-5.861211548E0,4.027524719E0,1.051940535E1
9.210893458E0,-7.355104980E0,-5.211562500E0,4.120032349E0,9.911237033E0
9.220972458E0,-7.037016449E0,-4.742438049E0,3.942800903E0,9.357136213E0
9.231051458E0,-6.675518188E0,-4.355193329E0,3.817062378E0,8.837432728E0
9.241131458E0,-6.221362610E0,-4.092938690E0,3.704197083E0,8.317365921E0
9.251210458E0,-5.900429993E0,-4.079766083E0,3.647015991E0,8.047377898E0
9.261289458E0,-5.753735046E0,-4.311633911E0,3.663481750E0,8.069495183E0
9.271368458E0,-5.589227142E0,-4.565356293E0,3.578159180E0,8.055132602E0
9.281447458E0,-5.497917023E0,-4.807702332E0,3.379073181E0,8.047311903E0
9.291526458E0,-5.530848541E0,-4.920567627E0,3.187321930E0,8.059856850E0
9.301605458E0,-5.470973053E0,-4.926255798E0,3.138972473E0,8.003292480E0
9.311684458E0,-5.636079712E0,-4.704866180E0,2.849474487E0,7.875320003E0
9.321763458E0,-5.864953766E0,-4.481829987E0,2.497855682E0,7.792545522E0
9.331842458E0,-6.135740662E0,-4.171076202E0,2.284549255E0,7.763012009E0
9.341921458E0,-6.437662811E0,-3.917653198E0,2.222278748E0,7.856846179E0
9.352000458E0,-6.650071106E0,-3.725602570E0,2.258204041E0,7.950034321E0
9.362079458E0,-6.862778778E0,-3.673510895E0,2.375859375E0,8.138619208E0
9.372158458E0,-7.064559174E0,-3.775897980E0,2.518662415E0,8.396967442E0
9.382237458E0,-7.225175171E0,-4.072131958E0,2.636766815E0,8.702755550E0
9.392316458E0,-7.162006531E0,-4.444258118E0,2.737058258E0,8.862124783E0
9.402395458E0,-6.866520996E0,-4.826563110E0,2.946023712E0,8.895160356E0
9.412474458E0,-6.544839935E0,-4.986131287E0,3.323089600E0,8.873520129E0
9.422553458E0,-6.638395386E0,-5.107229462E0,3.464545441E0,9.063948432E0
9.432632458E0,-6.832541656E0,-5.199437714E0,3.708088989E0,9.352416906E0
9.442712458E0,-7.062313843E0,-4.953499146E0,3.862118683E0,9.451422714E0
9.452791458E0,-7.699987793E0,-4.680167542E0,3.930376740E0,9.830648073E0
9.462870458E0,-8.207582245E0,-4.308789825E0,4.040547638E0,1.011217589E1
9.472949458E0,-8.568032684E0,-3.960164795E0,3.890260162E0,1.020922198E1
9.483028458E0,-8.882528687E0,-3.847000122E0,3.401077423E0,1.025992463E1
9.493107458E0,-9.082812195E0,-3.984713745E0,2.870730286E0,1.032552727E1
9.503186458E0,-9.079219666E0,-4.177662506E0,2.470462646E0,1.029506092E1
9.513265458E0,-9.171577606E0,-4.430486755E0,2.412832489E0,1.046751209E1
9.523344458E0,-9.259444885E0,-4.687352600E0,2.696791992E0,1.072293248E1
9.533423458E0,-9.401649170E0,-4.658312988E0,3.189417572E0,1.096646121E1
9.543502458E0,-9.478888550E0,-4.315226440E0,3.783083038E0,1.108071409E1
9.553581458E0,-9.453142090E0,-3.845952301E0,4.203558655E0,1.103735248E1
9.563660458E0,-9.551487579E0,-3.451672211E0,4.402944031E0,1.106936639E1
9.573739458E0,-9.555529175E0,-3.009342041E0,4.400099945E0,1.094189914E1
9.583818458E0,-9.361233215E0,-2.703977051E0,4.104015656E0,1.057294300E1
9.593897458E0,-9.292077026E0,-2.755469971E0,3.607647858E0,1.034168426E1
9.603976458E0,-9.228908386E0,-2.930605774E0,3.343896332E0,1.024416140E1
9.614055458E0,-9.264833679E0,-3.021466827E0,3.241509247E0,1.027004319E1
9.624134458E0,-9.487869873E0,-3.206332397E0,3.193608856E0,1.051186852E1
9.634213458E0,-9.760303345E0,-3.257226562E0,3.064577179E0,1.073613895E1
9.644292458E0,-1.004441254E1,-3.277584229E0,2.970722351E0,1.097533475E1
9.654371458E0,-1.024185196E1,-3.138373718E0,2.838247833E0,1.108154195E1
9.664450458E0,-1.042851379E1,-3.074456635E0,2.760559387E0,1.121725776E1
9.674529458E0,-1.068403244E1,-3.078348541E0,2.818638611E0,1.147037500E1
9.684608458E0,-1.075468552E1,-3.051254883E0,3.067421265E0,1.159234619E1
9.694687458E0,-1.075348801E1,-3.028202820E0,3.243904266E0,1.163316086E1
9.704766458E0,-1.078462326E1,-3.066373444E0,3.359164581E0,1.170447486E1
9.714846458E0,-1.077219910E1,-3.081042938E0,3.513493652E0,1.174213510E1
9.724925458E0,-1.073013657E1,-2.993774414E0,3.695814514E0,1.173701669E1
9.735004458E0,-1.063119232E1,-2.853815460E0,3.761827240E0,1.163262039E1
9.745083458E0,-1.050470535E1,-2.685116272E0,3.699107666E0,1.145609364E1
9.755162458E0,-1.044887146E1,-2.609673157E0,3.517235870E0,1.132961857E1
9.765241458E0,-1.041474243E1,-2.606978760E0,3.227588196E0,1.121073252E1
9.775320458E0,-1.030696655E1,-2.665507050E0,2.999761963E0,1.106060845E1
9.785399458E0,-1.022194336E1,-2.753374329E0,2.835852814E0,1.095952816E1
9.795478458E0,-1.016790573E1,-2.839595032E0,2.721041565E0,1.090200322E1
9.805557458E0,-9.994566193E0,-2.938988342E0,2.650837555E0,1.074969514E1
9.815636458E0,-9.809700623E0,-3.087030487E0,2.691852264E0,1.063043048E1
9.825715458E0,-9.633666687E0,-3.230731659E0,2.851270752E0,1.055343100E1
9.835794458E0,-9.367969208E0,-3.340303802E0,2.984793091E0,1.038390420E1
9.845873458E0,-9.159602509E0,-3.550616455E0,2.962339783E0,1.026063606E1
9.855952458E0,-9.051227875E0,-3.792962494E0,2.908900909E0,1.023586806E1
9.866031458E0,-8.946445770E0,-3.992497559E0,2.854713593E0,1.020432841E1
9.876110458E0,-8.803642731E0,-4.145180054E0,2.820734253E0,1.013129729E1
9.886189458E0,-8.534053345E0,-4.195026398E0,2.844534760E0,9.925708588E0
9.896268458E0,-8.307274933E0,-4.188440094E0,2.832260284E0,9.724995915E0
9.906347458E0,-8.123606873E0,-4.168681183E0,2.924767914E0,9.587760884E0
9.916426458E0,-8.011639709E0,-4.128265228E0,3.039429474E0,9.511418199E0
9.926505458E0,-7.932604065E0,-4.126918030E0,3.301833801E0,9.532038928E0
9.936584458E0,-7.871082001E0,-4.207899628E0,3.560795288E0,9.609350354E0
9.946663458E0,-7.601492615E0,-4.407434692E0,3.820954285E0,9.581641936E0
9.956742458E0,-7.467670898E0,-4.515509949E0,3.912863159E0,9.563808700E0
9.966822458E0,-7.591164093E0,-4.619393921E0,3.889661407E0,9.700208160E0
9.976901458E0,-7.775131531E0,-4.726720734E0,3.728746033E0,9.833519522E0
9.986980458E0,-7.876321106E0,-4.671186218E0,3.428470459E0,9.778078775E0
9.997059458E0,-7.893834686E0,-4.584815826E0,3.058439941E0,9.627420064E0