"Time (s)","Acceleration x (m/s^2)","Acceleration y (m/s^2)","Acceleration z (m/s^2)","Absolute acceleration (m/s^2)"
0.000000000E0,2.003284149E0,8.653504944E-1,1.006237518E1,1.029627958E1
1.004199998E-2,2.079026642E0,9.698332214E-1,9.986333313E0,1.024645213E1
2.008499997E-2,2.123035126E0,1.043629761E0,9.954150238E0,1.023140011E1
3.012699995E-2,2.061363373E0,1.077309723E0,9.797725525E0,1.007001691E1
4.016999993E-2,1.911075897E0,1.114881592E0,9.624535675E0,9.875568794E0
5.021199991E-2,1.747615814E0,1.145418091E0,9.868977356E0,1.008775781E1
6.025499990E-2,1.655856628E0,9.957293701E-1,1.033914963E1,1.051814400E1
7.029700000E-2,1.537003784E0,8.187973022E-1,1.089644073E1,1.103472838E1
8.033999999E-2,1.734143829E0,6.180647278E-1,1.158036850E1,1.172579180E1
9.038199997E-2,1.909279633E0,3.171903992E-1,1.232686615E1,1.247788394E1
1.004239999E-1,1.914219360E0,-1.166075134E-1,1.242491226E1,1.257204350E1
1.104669999E-1,1.684447174E0,-6.595285034E-1,1.159668457E1,1.173692605E1
1.205089999E-1,1.082848206E0,-6.997947693E-1,1.094119766E1,1.101689971E1
1.305519999E-1,8.244854736E-1,-8.015830994E-1,1.025442581E1,1.031869955E1
1.405940000E-1,7.583230591E-1,-1.017434235E0,1.047910858E1,1.055565929E1
1.506370000E-1,6.312373352E-1,-1.165925446E0,1.063732956E1,1.071963725E1
1.606790000E-1,4.299060059E-1,-1.095871124E0,1.140119110E1,1.146180227E1
1.707220000E-1,9.187893677E-1,-1.382075958E0,1.195339279E1,1.206805316E1
1.807639999E-1,4.825964355E-1,-1.644180908E0,1.195503937E1,1.207721808E1
1.908069999E-1,-5.107379150E-1,-1.429976349E0,1.121243362E1,1.131478472E1
2.008489999E-1,-2.694396973E-1,-1.357976074E0,9.878108368E0,9.974653964E0
2.108920000E-1,5.598358154E-2,-1.125210114E0,9.649833069E0,9.715374940E0
2.209340000E-1,2.463876343E-1,-6.791377258E-1,9.790989532E0,9.817607190E0
2.309770000E-1,-5.718109131E-2,-4.415817261E-1,9.435478821E0,9.445979286E0
2.410190000E-1,-7.090754700E-1,-5.590873718E-1,9.128317566E0,9.172870232E0
2.510609999E-1,-1.194815369E0,-1.234333191E0,1.012913635E1,1.027378048E1
2.611039999E-1,-5.218148804E-1,-1.595831451E0,9.619595947E0,9.765018944E0
2.711459999E-1,7.125183105E-2,-2.469265137E0,8.482710114E0,8.835084494E0
2.811890000E-1,3.365002441E-1,-2.580633545E0,9.017996979E0,9.386009345E0
2.912310000E-1,-1.100062408E0,-8.437953186E-1,1.101499420E1,1.110190187E1
3.012740000E-1,-4.514761505E0,-1.404678955E0,8.356522522E0,9.601440677E0
3.113159999E-1,-1.215173035E0,-2.111808472E0,4.019591217E0,4.700371696E0
3.213589999E-1,1.288221130E0,-1.446142731E0,3.008443909E0,3.577929182E0
3.314009999E-1,1.774859161E0,-1.317709808E0,3.810326385E0,4.405118766E0
3.414439999E-1,1.266366577E0,-9.816586304E-1,4.701423340E0,4.966962794E0
3.514860000E-1,5.140310669E-1,-2.341131592E-1,5.127736816E0,5.158751958E0
3.615290000E-1,-1.079255676E-1,3.990701294E-1,5.223687286E0,5.240020397E0
3.715710000E-1,-8.960366821E-1,6.137237549E-1,5.734724579E0,5.836660396E0
3.816129999E-1,-3.501817932E0,2.287243652E-1,8.644673309E0,9.329813519E0
3.916559999E-1,-4.484225006E0,-4.029620361E-1,1.128727798E1,1.215209022E1
4.016979999E-1,1.236877899E0,-2.768193512E0,1.132020950E1,1.171921096E1
4.117409999E-1,1.481618958E0,-4.169130249E0,1.085692291E1,1.172389086E1
4.217830000E-1,-1.908531189E-1,-3.318898315E0,1.038405624E1,1.090321673E1
4.318260000E-1,4.679269409E-1,-2.113155670E0,8.991502075E0,9.248323744E0
4.418680000E-1,1.345551910E0,-1.475332031E0,7.048692169E0,7.326061414E0
4.519110000E-1,2.168989563E0,-9.431886292E-1,6.272406464E0,6.703521713E0
4.619529999E-1,3.863765259E0,-1.242715759E0,6.627468109E0,7.771509375E0
4.719959999E-1,4.274062042E0,-1.501377869E0,7.896529083E0,9.103675818E0
4.820379999E-1,4.516108704E0,-1.285975800E0,8.758736115E0,9.938029478E0
4.920810000E-1,4.868326263E0,-1.194965057E0,8.718619537E0,1.005698109E1
5.021230000E-1,3.799848175E0,-1.650617523E0,7.859106903E0,8.884196400E0
5.121650000E-1,2.274220734E0,-1.957928467E0,6.711293793E0,7.351668396E0
5.222080000E-1,3.179837494E0,-2.422262878E0,7.075785828E0,8.126836347E0
5.322499999E-1,4.613705750E0,-2.557880859E0,8.359216919E0,9.884611410E0
5.422931666E-1,4.739593964E0,-2.456990662E0,8.753646698E0,1.025314023E1
5.523351666E-1,4.468956757E0,-2.662363586E0,7.865842896E0,9.430336092E0
5.623781666E-1,4.497098236E0,-2.716850281E0,6.577023010E0,8.417980736E0
5.724201666E-1,4.959935760E0,-2.428998871E0,5.615871735E0,7.876484851E0
5.824631666E-1,5.621709595E0,-2.103276215E0,5.312153320E0,8.015382867E0
5.925051667E-1,6.247408447E0,-2.035766602E0,5.393583984E0,8.500894433E0
6.025481666E-1,6.268664246E0,-2.319426727E0,5.749394073E0,8.816542632E0
6.125901666E-1,5.572012939E0,-3.141068115E0,6.071075134E0,8.818820238E0
6.226331666E-1,5.705235901E0,-3.961961060E0,7.152127075E0,9.969943522E0
6.326751666E-1,5.823190613E0,-4.056414642E0,6.945257263E0,9.929785854E0
6.427181666E-1,5.923332367E0,-3.875440979E0,6.263275452E0,9.451641577E0
6.527601666E-1,5.629942474E0,-3.633843384E0,6.622827759E0,9.421407407E0
6.628021667E-1,6.041287079E0,-3.331621857E0,5.935756531E0,9.101102096E0
6.728451666E-1,6.076314240E0,-3.309617615E0,5.653593292E0,8.935226948E0
6.828871666E-1,5.860612793E0,-3.824397125E0,5.645210724E0,8.991173438E0
6.929301666E-1,5.590873718E0,-4.300107880E0,5.824986877E0,9.147637336E0
7.029721666E-1,5.302872620E0,-4.819078674E0,5.933960266E0,9.303540279E0
7.130151666E-1,5.343138885E0,-5.147046661E0,6.223907318E0,9.683916810E0
7.230571667E-1,5.552553406E0,-5.390290833E0,6.372398529E0,1.002464701E1
7.331001667E-1,5.584586792E0,-5.537883911E0,5.874982910E0,9.816883011E0
7.431421666E-1,6.257437592E0,-4.634063416E0,5.572162628E0,9.574918553E0
7.531851666E-1,6.407276001E0,-4.893174591E0,5.880970459E0,9.979085974E0
7.632271666E-1,6.403384094E0,-4.989274750E0,5.998027039E0,1.009319170E1
7.732701666E-1,6.127807159E0,-5.099894714E0,5.547913055E0,9.712789813E0
7.833121666E-1,5.430108032E0,-6.115083618E0,4.725523224E0,9.445151700E0
7.933541667E-1,5.865103455E0,-4.432881775E0,4.815336456E0,8.788477943E0
8.033971667E-1,5.460794220E0,-4.580325165E0,4.360133057E0,8.355262557E0
8.134391666E-1,4.520150299E0,-5.758674774E0,3.664978638E0,8.186950732E0
8.234821666E-1,4.154460754E0,-5.908064117E0,3.300636292E0,7.940967555E0
8.335241666E-1,4.274810486E0,-5.638325043E0,3.223995667E0,7.775529695E0
8.435671666E-1,4.290976868E0,-5.730682983E0,3.189716949E0,7.837570041E0
8.536091666E-1,4.474495239E0,-5.954467621E0,3.341501312E0,8.163481078E0
8.636521666E-1,4.696633301E0,-6.109994202E0,3.735781403E0,8.564254562E0
8.736941667E-1,4.778812408E0,-6.460864563E0,4.345463562E0,9.135801689E0
8.837371666E-1,4.396357727E0,-6.686295776E0,4.708458710E0,9.284616088E0
8.937791666E-1,3.956422577E0,-6.479725342E0,3.794309692E0,8.487455812E0
9.038221666E-1,4.387226715E0,-5.997877350E0,3.744613037E0,8.321323077E0
9.138641666E-1,4.370910645E0,-5.531596985E0,3.852837982E0,8.034163652E0
9.239061666E-1,4.577181702E0,-5.321733398E0,3.730242920E0,7.948971690E0
9.339491666E-1,4.753814392E0,-4.963378601E0,3.896696777E0,7.900514172E0
9.439911667E-1,4.900359650E0,-4.651876373E0,4.112398224E0,7.909822858E0
9.540341666E-1,5.024152222E0,-4.527934113E0,4.627776489E0,8.195157601E0
9.640761666E-1,5.210215302E0,-4.308340759E0,5.335055695E0,8.612256548E0
9.741191666E-1,5.453309784E0,-3.955374756E0,5.939199371E0,8.980961320E0
9.841611666E-1,5.621260529E0,-3.700005798E0,6.563551025E0,9.400468866E0
9.942041666E-1,5.824837189E0,-3.321742401E0,6.846462708E0,9.583149402E0
1.004246167E0,6.512207794E0,-2.724334717E0,6.887178040E0,9.862254882E0
1.014289167E0,7.082072754E0,-1.976489868E0,7.000791779E0,1.015250473E1
1.024331167E0,7.825876007E0,-1.226998444E0,7.059769135E0,1.061085297E1
1.034374167E0,9.091194763E0,-4.104464722E-1,7.429949341E0,1.174829501E1
1.044416167E0,1.034828064E1,7.415579224E-1,7.766150208E0,1.295954897E1
1.054459167E0,1.149534531E1,1.903142395E0,8.025710449E0,1.414839012E1
1.064501167E0,1.275347900E1,2.687361603E0,9.067244568E0,1.587728135E1
1.074543167E0,1.529279846E1,3.381019135E0,1.160431870E1,1.949259315E1
1.084586167E0,1.868369705E1,4.491859131E0,1.401655243E1,2.378489176E1
1.094628167E0,2.292662384E1,6.656058655E0,1.437655380E1,2.786787571E1
1.104671167E0,2.685565338E1,8.934620361E0,1.305210800E1,3.116746834E1
1.114713167E0,3.061927689E1,1.059107574E1,1.238150253E1,3.468447214E1
1.124756167E0,3.483840317E1,1.164069305E1,1.367795654E1,3.919574678E1
1.134798167E0,4.028707260E1,1.190444458E1,1.763078659E1,4.555884827E1
1.144841167E0,4.681873993E1,1.158695480E1,2.387804535E1,5.381833312E1
1.154883167E0,5.251664108E1,1.023376877E1,2.909379913E1,6.090301111E1
1.164926167E0,5.711657547E1,7.545359344E0,3.118510025E1,6.551141976E1
1.174968167E0,6.097345505E1,4.591252441E0,2.955005035E1,6.791205560E1
1.185010167E0,6.489455109E1,6.346801758E-1,2.689352463E1,7.024932204E1
1.195053167E0,6.850025299E1,-4.512965240E0,2.639101959E1,7.354683834E1
1.205095167E0,7.059739197E1,-1.040037231E1,2.830838242E1,7.676929081E1
1.215138167E0,7.250577347E1,-1.573093735E1,3.112642227E1,8.045746541E1
1.225180167E0,7.416612076E1,-2.043730042E1,3.410073715E1,8.414961076E1
1.235223167E0,7.451654205E1,-2.461645981E1,3.610581757E1,8.638469306E1
1.245265167E0,7.416252823E1,-2.758089523E1,3.659529968E1,8.717799226E1
1.255308167E0,7.400580414E1,-2.933524704E1,3.401810898E1,8.657163221E1
1.265350167E0,7.129763580E1,-3.049802902E1,3.022155396E1,8.322754934E1
1.275393167E0,6.747922623E1,-3.153058182E1,2.740156815E1,7.936289749E1
1.285435167E0,6.230882813E1,-3.197485794E1,2.643532745E1,7.485725175E1
1.295478167E0,5.600513672E1,-3.269710602E1,2.607367950E1,6.989644371E1
1.305520167E0,4.879508011E1,-3.290936462E1,2.484054382E1,6.388300823E1
1.315563167E0,4.124687668E1,-3.223247223E1,2.257186157E1,5.700636839E1
1.325605167E0,3.387859909E1,-3.058649506E1,1.935475159E1,4.957720812E1
1.335647167E0,2.710368759E1,-2.920816132E1,1.588751175E1,4.289684835E1
1.345690167E0,2.181323914E1,-2.796469711E1,1.243658798E1,3.758337940E1
1.355732167E0,1.711465988E1,-2.716056931E1,8.631650391E0,3.324324738E1
1.365775167E0,1.153576126E1,-2.716910156E1,5.736820221E0,3.006900354E1
1.375817167E0,4.848717041E0,-2.698618195E1,4.709656219E0,2.781986583E1
1.385860167E0,-1.695075073E0,-2.715158798E1,3.917054443E0,2.748500182E1
1.395902167E0,-6.976991272E0,-2.725217880E1,1.716929626E0,2.818346153E1
1.405945167E0,-9.920021210E0,-2.746608398E1,-1.050216064E0,2.922149113E1
1.415987167E0,-1.136900803E1,-2.647978500E1,-2.643802185E0,2.893826269E1
1.426030167E0,-7.785310364E0,-2.370575363E1,-4.114942932E0,2.528846710E1
1.436072167E0,-3.992048492E0,-2.204196350E1,-4.340823212E0,2.281725996E1
1.446115167E0,-1.825154572E0,-2.111344437E1,-3.745960236E0,2.152070957E1
1.456157167E0,-6.029461670E-1,-2.055959610E1,-1.941911774E0,2.065990216E1
1.466200167E0,2.875520325E-1,-2.051334229E1,8.316705322E-1,2.053220820E1
1.476242167E0,4.673281860E-1,-2.006667114E1,3.058889008E0,2.030385403E1
1.486284167E0,-2.389031982E-1,-1.928110474E1,4.810247040E0,1.987351381E1
1.496327167E0,-1.649719391E0,-1.867411697E1,6.853498077E0,1.996032702E1
1.506369167E0,-3.053799591E0,-1.805126221E1,8.431815948E0,2.015612263E1
1.516412167E0,-4.148323517E0,-1.725716354E1,8.937464447E0,1.987200424E1
1.526454167E0,-4.999154205E0,-1.661035858E1,8.969348145E0,1.952805062E1
1.536496875E0,-5.212909698E0,-1.573363174E1,9.065897369E0,1.889211715E1
1.546538875E0,-4.407883759E0,-1.411938858E1,8.688681793E0,1.715458436E1
1.556581875E0,-3.283871155E0,-1.242865448E1,7.789950714E0,1.503125391E1
1.566623875E0,-2.575693817E0,-1.114402588E1,6.652466125E0,1.323173522E1
1.576666875E0,-2.377056885E0,-1.009261230E1,5.187761993E0,1.159414064E1
1.586708875E0,-2.462529144E0,-9.347012787E0,3.760480042E0,1.037168781E1
1.596750875E0,-2.548749847E0,-8.606951752E0,2.815195770E0,9.407500809E0
1.606793875E0,-2.523153076E0,-7.823331299E0,2.366428986E0,8.553993231E0
1.616835875E0,-2.506387939E0,-7.242539063E0,2.332599335E0,8.011078094E0
1.626878875E0,-2.461331635E0,-6.624324646E0,2.655627594E0,7.549317078E0
1.636920875E0,-2.531535645E0,-6.079008636E0,2.979553986E0,7.227777022E0
1.646963875E0,-2.767145691E0,-6.053112488E0,3.084635468E0,7.335682793E0
1.657005875E0,-2.716550903E0,-5.953120422E0,2.955005035E0,7.179926624E0
1.667048875E0,-2.716251526E0,-5.699697418E0,2.443368988E0,6.770127401E0
1.677090875E0,-2.849175110E0,-5.587879944E0,1.890269165E0,6.550978445E0
1.687133875E0,-2.930156708E0,-5.318889313E0,1.479223938E0,6.250160423E0
1.697175875E0,-2.802621918E0,-5.081483002E0,1.143172760E0,5.914643106E0
1.707218875E0,-2.640359344E0,-4.953798523E0,1.170565796E0,5.734269052E0
1.717260875E0,-2.433788910E0,-4.836592255E0,1.446891174E0,5.604413187E0
1.727302875E0,-2.175126801E0,-4.756957855E0,1.852697296E0,5.549082078E0
1.737345875E0,-1.973196716E0,-4.678820343E0,2.295476532E0,5.572618558E0
1.747387875E0,-1.732497253E0,-4.660109253E0,2.704725494E0,5.659832593E0
1.757430875E0,-1.638043671E0,-4.738995209E0,3.110681305E0,5.900644104E0
1.767472875E0,-1.657353516E0,-4.947810974E0,3.578009491E0,6.326911255E0
1.777515875E0,-1.542392578E0,-5.225184174E0,4.168082428E0,6.859623579E0
1.787557875E0,-9.472302246E-1,-5.664370880E0,4.556374969E0,7.330954606E0
1.797600875E0,5.164260864E-1,-5.657335510E0,4.931943970E0,7.523045414E0
1.807642875E0,2.492766266E0,-4.871769104E0,5.150190125E0,7.514817109E0
1.817685875E0,4.054019623E0,-4.077670441E0,5.118306427E0,7.698021305E0
1.827727875E0,4.685855713E0,-3.965703278E0,4.873565369E0,7.838091965E0
1.837770875E0,4.570296021E0,-4.279450836E0,4.658612366E0,7.804099842E0
1.847812875E0,4.254752197E0,-4.464316406E0,4.636757812E0,7.715734589E0
1.857854875E0,4.171525269E0,-4.487368469E0,4.799918518E0,7.783143107E0
1.867897875E0,4.212090912E0,-4.103716278E0,5.166206818E0,7.827636299E0
1.877939875E0,4.333338776E0,-4.071682892E0,5.655539246E0,8.206189778E0
1.887982875E0,5.326074371E0,-4.588408356E0,6.553521881E0,9.610890099E0
1.898024875E0,8.257278900E0,-4.636308746E0,8.119565277E0,1.247418751E1
1.908067875E0,1.263357834E1,-4.751569061E0,9.995015259E0,1.679538747E1
1.918109875E0,1.606070160E1,-4.958289185E0,1.075723022E1,1.995617122E1
1.928152875E0,1.772913208E1,-4.926854553E0,9.764045563E0,2.083104908E1
1.938194875E0,1.888742340E1,-4.757855988E0,8.289761353E0,2.116818603E1
1.948237875E0,2.038969940E1,-5.028193817E0,7.808212738E0,2.240515032E1
1.958279875E0,2.252665558E1,-5.205275574E0,8.374485168E0,2.459018315E1
1.968322875E0,2.460867599E1,-5.607938232E0,7.196734314E0,2.624554991E1
1.978364875E0,2.694411942E1,-6.893464966E0,4.553830261E0,2.818231361E1
1.988406875E0,2.914289703E1,-8.242759094E0,2.010469208E0,3.035281719E1
1.998449875E0,3.256298492E1,-1.042836411E1,1.953288116E0,3.424783350E1
2.008491875E0,3.859708694E1,-1.390458527E1,5.734425201E0,4.142410222E1
2.018534875E0,4.560536316E1,-1.547257462E1,1.039213943E1,4.926709121E1
2.028576875E0,5.370352295E1,-1.378812744E1,1.215427505E1,5.676184667E1
2.038619875E0,6.018594269E1,-1.024664200E1,1.102337677E1,6.203915058E1
2.048661875E0,6.138824249E1,-7.355254669E0,8.646020508E0,6.242891764E1
2.058704875E0,5.746265579E1,-6.259982300E0,7.357350311E0,5.826898654E1
2.068746875E0,5.192731659E1,-6.696324921E0,7.457641754E0,5.288575797E1
2.078789875E0,4.703159729E1,-7.817343750E0,7.744145966E0,4.830169566E1
2.088831875E0,4.363276520E1,-8.766220551E0,7.425159302E0,4.511981618E1
2.098873875E0,4.227419037E1,-8.395890656E0,5.631139984E0,4.346616947E1
2.108916875E0,4.118909683E1,-6.299051056E0,1.419947205E0,4.169215744E1
2.118958875E0,3.875081726E1,-3.266656952E0,-2.800975342E0,3.898900292E1
2.129001875E0,3.627691177E1,-3.502716064E-1,-4.588857422E0,3.656767193E1
2.139043875E0,3.376453629E1,1.250798950E0,-3.718866577E0,3.399173984E1
2.149086875E0,3.013638107E1,1.105900269E0,-8.382568359E-1,3.016831374E1
2.159128875E0,2.631168457E1,5.179229736E-1,2.666854248E0,2.645156140E1
2.169171875E0,2.282977524E1,5.105882263E-1,5.285957794E0,2.343929793E1
2.179213875E0,1.963182541E1,1.609902191E0,6.850953369E0,2.085511726E1
2.189256875E0,1.710702576E1,3.319197693E0,7.236850891E0,1.886900671E1
2.199298875E0,1.552032532E1,4.565655670E0,5.776038666E0,1.717813530E1
2.209340875E0,1.425380905E1,5.216352539E0,3.205434265E0,1.551309818E1
2.219383875E0,1.272922943E1,5.678591309E0,8.580157471E-1,1.396480835E1
2.229425875E0,1.151375702E1,5.802533569E0,-1.192270660E0,1.294826266E1
2.239468875E0,1.069466034E1,5.938899994E0,-2.484683075E0,1.248278586E1
2.249510875E0,9.942324829E0,6.072122955E0,-2.898273010E0,1.200501923E1
2.259553875E0,9.459878082E0,5.864953766E0,-2.728825378E0,1.146008132E1
2.269595875E0,8.788973236E0,5.221142578E0,-2.848127289E0,1.061217270E1
2.279638875E0,8.166118469E0,4.172722778E0,-2.566712494E0,9.522873477E0
2.289680875E0,7.536677399E0,3.068918152E0,-1.351090393E0,8.248952060E0
2.299723875E0,6.683002625E0,1.901495819E0,1.390608215E-1,6.949643756E0
2.309765875E0,6.004313965E0,5.935157776E-1,1.937121735E0,6.336914689E0
2.319808875E0,5.756579132E0,-5.863307190E-1,3.358715515E0,6.690512456E0
2.329850875E0,5.976771240E0,-1.826651459E0,3.780688019E0,7.304248894E0
2.339892875E0,6.060447235E0,-2.827619934E0,4.123026123E0,7.856449554E0
2.349935875E0,6.258485413E0,-3.792363739E0,3.642525330E0,8.174267745E0
2.359977875E0,6.334527283E0,-5.041665802E0,2.897374878E0,8.598802890E0
2.370020875E0,6.577921143E0,-6.217171326E0,2.572849731E0,9.409666391E0
2.380062875E0,6.700516205E0,-7.314090271E0,1.629361725E0,1.005224619E1
2.390105875E0,7.118297424E0,-8.158484344E0,2.371967468E0,1.108409918E1
2.400147875E0,7.909402313E0,-8.569679260E0,4.129313049E0,1.237130849E1
2.410190875E0,8.213120728E0,-9.480684814E0,4.403991852E0,1.329412956E1
2.420232875E0,7.953859863E0,-1.024364822E1,4.574038239E0,1.375201954E1
2.430275875E0,7.287445679E0,-1.033271301E1,4.888683929E0,1.355621825E1
2.440317875E0,6.431675262E0,-1.053973251E1,4.919819183E0,1.329123880E1
2.450359875E0,5.475014648E0,-1.075708054E1,4.264631653E0,1.280147063E1
2.460402875E0,4.317322083E0,-1.081216599E1,3.150498505E0,1.206100510E1
2.470444875E0,3.221900024E0,-1.078731766E1,2.009122009E0,1.143605847E1
2.480487875E0,2.674937439E0,-1.070079758E1,9.886940002E-1,1.107428891E1
2.490529875E0,2.270777893E0,-1.027418472E1,3.543132019E-1,1.052809773E1
2.500572875E0,2.081870728E0,-9.624535675E0,-6.152206421E-2,9.847317282E0
2.510614875E0,2.544558563E0,-9.078770599E0,-1.194515991E-1,9.429375513E0
2.520657875E0,3.028801575E0,-8.464897156E0,1.740879822E-1,8.992131531E0
2.530699875E0,3.376528473E0,-7.999065857E0,8.509803772E-1,8.724114093E0
2.540742500E0,3.243754578E0,-7.554939423E0,1.615440674E0,8.379063313E0
2.550784500E0,2.930007019E0,-7.056625671E0,1.780547333E0,7.845460841E0
2.560826500E0,2.748733978E0,-6.730304260E0,1.469344482E0,7.416974257E0
2.570869500E0,2.700983276E0,-6.398144989E0,1.354533234E0,7.075756514E0
2.580911500E0,2.756817169E0,-5.899980927E0,1.540596313E0,6.692029052E0
2.590954500E0,2.724484406E0,-5.346731415E0,1.786534882E0,6.261154764E0
2.600996500E0,3.037184143E0,-5.012626190E0,2.036065979E0,6.204552644E0
2.611039500E0,3.667373657E0,-4.676575012E0,2.460882568E0,6.432412176E0
2.621081500E0,4.017944641E0,-3.987557831E0,2.661315765E0,6.255165721E0
2.631124500E0,4.434228973E0,-3.220852203E0,2.299368439E0,5.943346761E0
2.641166500E0,4.317172394E0,-2.640658722E0,1.671124878E0,5.329513516E0
2.651209500E0,3.958967285E0,-2.652484131E0,8.786727905E-1,4.845736260E0
2.661251500E0,3.722608795E0,-2.837649078E0,4.956193542E-1,4.706984924E0
2.671293500E0,3.455863495E0,-2.560425568E0,6.529421997E-1,4.350299426E0
2.681336500E0,3.874393158E0,-2.185904388E0,8.668473816E-1,4.532165566E0
2.691378500E0,4.954097900E0,-1.681752777E0,9.752220154E-1,5.321882786E0
2.701421500E0,5.394182739E0,-1.265618134E0,7.631130981E-1,5.592972223E0
2.711463500E0,4.381538544E0,-1.672023010E0,7.813751221E-2,4.690378069E0
2.721506500E0,3.043171692E0,-2.025737457E0,-5.998027039E-1,3.704628116E0
2.731548500E0,2.176024933E0,-2.001637573E0,-8.571176147E-1,3.078358018E0
2.741591500E0,1.780697021E0,-2.173929291E0,-5.405259705E-1,2.861646164E0
2.751633500E0,2.711760864E0,-1.693727875E0,3.785627747E-1,3.219576195E0
2.761676500E0,3.987857208E0,-7.201524353E-1,1.211430817E0,4.229561356E0
2.771718500E0,4.436025238E0,-7.839198303E-1,1.467099152E0,4.737639722E0
2.781760500E0,5.153632965E0,-1.281634827E0,1.502425690E0,5.519040091E0
2.791803500E0,5.644162903E0,-1.162332916E0,1.050515442E0,5.857574189E0
2.801845500E0,6.274502106E0,-1.329235840E0,-1.809736633E-1,6.416307042E0
2.811888500E0,7.501650238E0,-1.384770355E0,-6.340814209E-1,7.654698196E0
2.821930500E0,9.647887115E0,-8.050259399E-1,6.990463257E-2,9.681667171E0
2.831973500E0,1.394934219E1,8.819659424E-1,2.099683685E0,1.413402572E1
2.842015500E0,2.136716675E1,3.936813354E0,3.527115326E0,2.201124387E1
2.852058500E0,3.019940002E1,7.412136383E0,3.407514038E0,3.128185863E1
2.862100500E0,4.040817078E1,1.158051819E1,2.281405792E0,4.209671578E1
2.872143500E0,5.229345520E1,1.519355484E1,2.343975677E0,5.450636465E1
2.882185500E0,6.283782806E1,1.705313782E1,6.790778503E0,6.546385887E1
2.892227500E0,6.977320587E1,1.633433258E1,1.178604080E1,7.262245821E1
2.902270500E0,7.310407928E1,1.365056351E1,1.286215302E1,7.547171174E1
2.912312500E0,7.347351105E1,8.436156921E0,9.468709717E0,7.455992243E1
2.922355500E0,7.420159698E1,1.632355499E0,6.479575653E0,7.450185555E1
2.932397500E0,7.659257492E1,-4.412524109E0,7.131020966E0,7.705027165E1
2.942440500E0,8.030889679E1,-9.364825745E0,1.051218979E1,8.153358203E1
2.952482500E0,8.449194809E1,-1.436457870E1,1.567166061E1,8.712537724E1
2.962525500E0,8.633820877E1,-1.986399261E1,2.284055283E1,9.149073915E1
2.972567500E0,8.768989792E1,-2.481913834E1,3.018068893E1,9.600198857E1
2.982610500E0,8.757119476E1,-2.798789886E1,3.447585709E1,9.818666588E1
2.992652500E0,8.562853455E1,-3.042587906E1,3.564193222E1,9.761315166E1
3.002694500E0,8.265107620E1,-3.083812180E1,3.221660522E1,9.391538642E1
3.012737500E0,7.702248093E1,-3.064666992E1,2.929962112E1,8.792126446E1
3.022779500E0,7.061640244E1,-3.098122421E1,2.853531052E1,8.222394112E1
3.032822500E0,6.286147888E1,-3.095158585E1,2.669443863E1,7.498105926E1
3.042864500E0,5.428925491E1,-3.098197266E1,2.433818848E1,6.707870934E1
3.052907500E0,4.588288605E1,-3.040222824E1,2.117331985E1,5.897324976E1
3.062949500E0,3.696503082E1,-2.950559280E1,1.808763657E1,5.063749705E1
3.072992500E0,2.854279495E1,-2.866808441E1,1.616683090E1,4.356508498E1
3.083034500E0,2.107362717E1,-2.757954803E1,1.425500656E1,3.752245253E1
3.093077500E0,1.416219955E1,-2.792443085E1,1.278760803E1,3.382106819E1
3.103119500E0,9.152567139E0,-2.865730682E1,1.042492126E1,3.183849404E1
3.113161500E0,5.125641174E0,-3.085129440E1,7.917485504E0,3.226082982E1
3.123204500E0,-1.242416382E-1,-3.521966034E1,8.140821075E0,3.614848376E1
3.133246500E0,-4.792434082E0,-3.827824997E1,1.119716537E1,4.016924642E1
3.143289500E0,-6.373895416E0,-3.925392105E1,1.309042831E1,4.186712522E1
3.153331500E0,-4.881947937E0,-3.712504807E1,9.899813232E0,3.873123948E1
3.163374500E0,-3.721261597E0,-3.304513229E1,3.228037262E0,3.341030950E1
3.173416500E0,-4.579726410E0,-2.972204269E1,1.091230774E0,3.009259877E1
3.183459500E0,-6.372697906E0,-2.817620728E1,5.107528839E0,2.933592995E1
3.193501500E0,-8.273295593E0,-2.773073364E1,8.241262207E0,3.008919093E1
3.203544500E0,-1.060349991E1,-2.895384018E1,8.775650940E0,3.205886961E1
3.213586500E0,-1.375789032E1,-2.994193542E1,9.680818634E0,3.434410128E1
3.223629500E0,-1.639106461E1,-2.928869385E1,1.109013794E1,3.534806566E1
3.233671500E0,-1.727213242E1,-2.761472488E1,1.255843460E1,3.490865034E1
3.243713500E0,-1.693383591E1,-2.449670883E1,1.326960571E1,3.260254557E1
3.253756500E0,-1.558035049E1,-2.078861984E1,1.417821625E1,2.959621348E1
3.263798500E0,-1.296768356E1,-1.794692917E1,1.555535248E1,2.705960226E1
3.273841500E0,-9.223519592E0,-1.492980331E1,1.593196930E1,2.370232028E1
3.283883500E0,-6.726711731E0,-1.236473740E1,1.425410843E1,2.003284774E1
3.293926500E0,-5.142406311E0,-1.075543396E1,1.129910339E1,1.642539010E1
3.303968500E0,-3.250490570E0,-9.652078400E0,8.524473267E0,1.328137609E1
3.314011500E0,-1.373394012E0,-8.878337402E0,6.540798340E0,1.111274624E1
3.324053500E0,1.208736420E0,-7.595355377E0,5.736520844E0,9.594693243E0
3.334096500E0,4.826862488E0,-4.946613464E0,5.898633728E0,9.086334030E0
3.344138500E0,6.358327789E0,-3.295995941E0,5.498964844E0,9.029426110E0
3.354180500E0,6.085295563E0,-2.764301605E0,5.162614288E0,8.445399442E0
3.364223500E0,5.919889526E0,-2.009720764E0,5.414989471E0,8.270802895E0
3.374265500E0,5.497168579E0,-1.321901093E0,6.060297546E0,8.288153669E0
3.384308500E0,5.291645966E0,-1.679806824E0,6.605314178E0,8.628640877E0
3.394350500E0,7.590565338E0,-1.209484863E0,7.320077820E0,1.061428637E1
3.404393500E0,9.450298004E0,4.830455017E-1,6.730753326E0,1.161225670E1
3.414435500E0,8.914412384E0,7.135661316E-1,4.298610992E0,9.922397958E0
3.424478500E0,8.140372009E0,8.285270691E-1,2.636317749E0,8.596643812E0
3.434520500E0,7.567064209E0,8.767268372E-1,2.600242767E0,8.049246744E0
3.444562500E0,6.694678345E0,4.896318054E-1,3.416794739E0,7.532127437E0
3.454605500E0,5.354515228E0,-3.504212952E-1,3.857777710E0,6.608787882E0
3.464647500E0,4.195924530E0,-1.445394287E0,3.995191956E0,5.971306898E0
3.474690500E0,5.394931183E0,-2.315684509E0,4.328848114E0,7.294285654E0
3.484732500E0,7.933651886E0,-1.553020477E0,4.615202637E0,9.308856011E0
3.494775500E0,8.625662842E0,-1.103056183E0,3.384012909E0,9.331148684E0
3.504817500E0,8.189918976E0,-1.199904785E0,1.351389771E0,8.386942151E0
3.514860500E0,7.679779816E0,-1.372645569E0,-1.023870850E-1,7.802157201E0
3.524902500E0,7.200476532E0,-1.756148071E0,-2.070195007E-1,7.414430215E0
3.534945500E0,6.346801758E0,-2.300865326E0,6.186634827E-1,6.779278598E0
3.544988542E0,5.085973663E0,-3.228336639E0,1.609752502E0,6.235430112E0
3.555030542E0,3.835623779E0,-4.403991852E0,2.533780975E0,6.366097709E0
3.565073542E0,3.152444458E0,-5.381309509E0,2.986289978E0,6.914790375E0
3.575115542E0,3.437302094E0,-6.129453735E0,2.850821686E0,7.583695211E0
3.585158542E0,4.262236633E0,-6.311624908E0,2.758912811E0,8.100300612E0
3.595200542E0,4.671635284E0,-6.335724792E0,2.794389038E0,8.353094934E0
3.605243542E0,4.404590607E0,-6.831643524E0,2.464924164E0,8.493975676E0
3.615285542E0,3.875291290E0,-7.400161285E0,2.454895020E0,8.706708861E0
3.625328542E0,3.739523621E0,-7.940537567E0,2.546205139E0,9.138891310E0
3.635370542E0,4.030817871E0,-8.042176208E0,2.223176880E0,9.266423599E0
3.645413542E0,5.163961487E0,-7.614665222E0,1.779499512E0,9.371032131E0
3.655455542E0,6.737639008E0,-6.833290100E0,1.091081085E0,9.658161881E0
3.665497542E0,7.251370697E0,-6.877897339E0,-9.774673462E-2,9.994868844E0
3.675540542E0,7.910599823E0,-7.280410309E0,-2.061812439E0,1.094682759E1
3.685582542E0,9.745184784E0,-7.366181946E0,-4.500092010E0,1.301845194E1
3.695625542E0,1.241203903E1,-7.808811493E0,-6.660399628E0,1.610581178E1
3.705667542E0,1.598076782E1,-9.609117737E0,-7.408843231E0,2.006516987E1
3.715710542E0,2.096540222E1,-1.340791809E1,-5.712271271E0,2.553331943E1
3.725752542E0,2.668830139E1,-1.911869247E1,-1.306034088E0,3.285567772E1
3.735795542E0,3.324242203E1,-2.549857544E1,3.655548248E0,4.205471442E1
3.745837542E0,3.872417267E1,-2.962025436E1,8.397237854E0,4.947155365E1
3.755880542E0,4.432223145E1,-2.902973236E1,1.134191437E1,5.418325002E1
3.765922542E0,4.945969803E1,-2.470058487E1,1.137155273E1,5.644194215E1
3.775964542E0,5.252726898E1,-2.182581299E1,8.548423462E0,5.752004558E1
3.786007542E0,5.137840805E1,-2.128843048E1,5.374872894E0,5.587331514E1
3.796049542E0,4.812956406E1,-2.093995514E1,4.711602173E0,5.269853748E1
3.806092542E0,4.512037170E1,-2.002011795E1,5.944288788E0,4.971908723E1
3.816134542E0,4.191583557E1,-1.785277496E1,7.397167511E0,4.615600646E1
3.826177542E0,3.872043045E1,-1.505718842E1,7.962990875E0,4.230129881E1
3.836219542E0,3.550870926E1,-1.246847168E1,7.537126465E0,3.838149938E1
3.846262542E0,3.221929962E1,-1.079091019E1,6.261628876E0,3.455047043E1
3.856304542E0,2.938239899E1,-1.055245605E1,4.744833069E0,3.157836506E1
3.866346542E0,2.734049515E1,-1.049213150E1,3.490441589E0,2.949187483E1
3.876389542E0,2.607936768E1,-9.574240265E0,1.942959595E0,2.784913979E1
3.886431542E0,2.423744797E1,-8.668623505E0,5.763015747E-1,2.574744727E1
3.896474542E0,2.202834183E1,-6.969357147E0,-7.342231750E-1,2.311620355E1
3.906516542E0,2.038475967E1,-5.447322235E0,-1.800455933E0,2.117671807E1
3.916559542E0,1.846874405E1,-3.502266998E0,-2.791395264E0,1.900400664E1
3.926601542E0,1.655647064E1,-1.792971497E0,-3.484454041E0,1.701390275E1
3.936644542E0,1.491333755E1,-1.046174469E0,-3.233426056E0,1.529565828E1
3.946686542E0,1.322290283E1,-9.681866455E-1,-2.839145966E0,1.355888249E1
3.956729542E0,1.140358612E1,-9.126521301E-1,-3.192561035E0,1.187716954E1
3.966771542E0,1.007105713E1,-8.264314270E-1,-3.099155273E0,1.056948173E1
3.976813542E0,9.581874390E0,-1.033600616E0,-2.193388824E0,9.883906191E0
3.986856542E0,9.163344727E0,-1.092727661E0,-1.390458527E0,9.332433511E0
3.996898542E0,7.971373444E0,-7.297325134E-1,-1.499282227E0,8.143902708E0
4.006941542E0,6.662794647E0,-5.203179932E-1,-1.638043671E0,6.880897499E0
4.016983542E0,5.135221252E0,-4.808001709E-1,-1.864672394E0,5.484402361E0
4.027026542E0,3.466341705E0,-6.436614990E-1,-2.170785828E0,4.140306275E0
4.037068542E0,2.640658722E0,-1.068777466E0,-1.648671570E0,3.291425482E0
4.047111542E0,2.406096497E0,-1.433119812E0,-8.282276917E-1,2.920461240E0
4.057153542E0,2.815495148E0,-1.338067474E0,-1.434017944E-1,3.120577121E0
4.067195542E0,3.575614471E0,-1.425635376E0,5.034031677E-1,3.882121820E0
4.077238542E0,3.705394592E0,-1.583856354E0,9.430389404E-1,4.138583390E0
4.087280542E0,2.689008179E0,-2.029629364E0,-1.148112488E-1,3.370955645E0
4.097323542E0,1.751807098E0,-2.213447113E0,-9.193881226E-1,2.968745653E0
4.107365542E0,1.178499298E0,-2.879112854E0,-3.059637451E-1,3.125982283E0
4.117408542E0,1.118923187E0,-3.818110199E0,8.319699097E-1,4.064742122E0
4.127450542E0,1.337319031E0,-4.481530609E0,2.082020416E0,5.119311263E0
4.137493542E0,1.909579010E0,-5.382806396E0,3.042722626E0,6.471418521E0
4.147535542E0,2.211501160E0,-6.529421997E0,3.557651825E0,7.757639815E0
4.157578542E0,2.040107574E0,-7.339836731E0,3.365451508E0,8.328355540E0
4.167620542E0,1.810634766E0,-8.139324188E0,2.477797394E0,8.698647965E0
4.177662542E0,1.709145813E0,-8.407266998E0,1.805395660E0,8.767141568E0
4.187705542E0,1.938169556E0,-8.500523071E0,1.614093475E0,8.866830970E0
4.197747542E0,2.420017548E0,-8.778944092E0,1.894460449E0,9.301361443E0
4.207790542E0,2.714455261E0,-9.202114105E0,2.358046417E0,9.879653550E0
4.217832542E0,2.946622467E0,-9.794432373E0,2.718347168E0,1.058314229E1
4.227875542E0,2.984793091E0,-1.032552795E1,2.700534210E0,1.108234643E1
4.237917542E0,2.627785492E0,-1.089509354E1,2.436932373E0,1.146939227E1
4.247960542E0,1.971400452E0,-1.153336624E1,2.448608093E0,1.195410550E1
4.258002542E0,1.482517090E0,-1.192390411E1,2.764900360E0,1.232972101E1
4.268044542E0,1.232387238E0,-1.193049042E1,2.963237915E0,1.235460072E1
4.278087542E0,1.294957123E0,-1.165147064E1,3.036286011E0,1.211002538E1
4.288129542E0,1.401535492E0,-1.106154739E1,2.861150208E0,1.151122552E1
4.298172542E0,1.243913269E0,-1.049003586E1,2.312541046E0,1.081369588E1
4.308214542E0,1.084345093E0,-1.003228775E1,1.627415771E0,1.022110972E1
4.318257542E0,1.097667389E0,-9.493707733E0,1.105750580E0,9.620709151E0
4.328299542E0,1.444496155E0,-8.960815887E0,8.186476135E-1,9.113340465E0
4.338342542E0,1.821711731E0,-8.314010925E0,8.800199890E-1,8.556625882E0
4.348384542E0,2.143243103E0,-7.503895569E0,1.102008362E0,7.881393413E0
4.358427542E0,2.733316040E0,-6.654112701E0,1.297950897E0,7.309781731E0
4.368469542E0,3.417243805E0,-5.591921539E0,1.310375061E0,6.683129845E0
4.378511542E0,3.414549408E0,-4.847220154E0,9.858499146E-1,6.010539987E0
4.388554542E0,3.014281769E0,-4.742438049E0,4.836442566E-1,5.640082003E0
4.398596542E0,2.591560822E0,-4.859494629E0,1.646575928E-2,5.507372029E0
4.408639542E0,2.229763184E0,-4.940176849E0,-2.326162720E-1,5.425062349E0
4.418681542E0,1.951491852E0,-4.906646576E0,3.891906738E-3,5.280484468E0
4.428724542E0,2.033670959E0,-4.717589722E0,7.220983887E-1,5.187764108E0
4.438766542E0,1.840572510E0,-4.541256409E0,1.331032104E0,5.077633641E0
4.448809542E0,1.469943237E0,-4.537963257E0,1.529219971E0,5.009227222E0
4.458851542E0,2.133213959E0,-4.614304504E0,1.387165375E0,5.269405624E0
4.468893542E0,3.542084198E0,-4.028123474E0,1.185085602E0,5.493320223E0
4.478936542E0,4.463717651E0,-3.403322754E0,8.949888611E-1,5.684046631E0
4.488978542E0,4.809348907E0,-3.451372833E0,5.535488892E-1,5.945437555E0
4.499021542E0,4.961432648E0,-3.523223419E0,6.560856628E-1,6.120405671E0
4.509063542E0,5.531596985E0,-2.653382263E0,1.191821594E0,6.249755303E0
4.519106542E0,6.485862579E0,-2.058519287E0,1.984273682E0,7.088106736E0
4.529148542E0,8.130941620E0,-1.582509155E0,3.207380219E0,8.882783050E0
4.539191042E0,1.025038422E1,-1.866618347E-1,3.987108765E0,1.100010252E1
4.549233042E0,1.152588181E1,7.590715027E-1,3.026256866E0,1.194070231E1
4.559275042E0,1.322619598E1,1.003662872E0,1.096170502E0,1.330943985E1
4.569318042E0,1.588676331E1,2.388582916E0,-4.819976807E-1,1.607255109E1
4.579360042E0,1.873010056E1,4.063300323E0,-1.652713165E0,1.923690560E1
4.589403042E0,2.315834198E1,5.736670532E0,-1.405577087E0,2.389966190E1
4.599445042E0,2.917987015E1,7.584128723E0,-4.550537109E-2,3.014939305E1
4.609488042E0,3.646926178E1,9.439969482E0,2.510279846E0,3.775475577E1
4.619530042E0,4.383993439E1,1.028840515E1,6.209387512E0,4.545709649E1
4.629573042E0,5.085315033E1,9.849218445E0,9.044641571E0,5.258189369E1
4.639615042E0,6.071763702E1,9.319320374E0,1.109238327E1,6.242212865E1
4.649657042E0,7.056715485E1,8.706943817E0,1.244422211E1,7.218305118E1
4.659700042E0,7.504150040E1,5.164859619E0,1.196611633E1,7.616489018E1
4.669742042E0,7.715001572E1,-6.002517700E-2,1.143247604E1,7.799249987E1
4.679785042E0,8.026638519E1,-4.836891632E0,1.261366974E1,8.139528719E1
4.689827042E0,8.337107895E1,-9.292226715E0,1.658745621E1,8.551155469E1
4.699870042E0,8.457667191E1,-1.425335999E1,1.989916946E1,8.804742272E1
4.709912042E0,8.427624664E1,-1.762554749E1,2.185784637E1,8.883080052E1
4.719955042E0,8.491706406E1,-1.920176971E1,2.392579605E1,9.028875592E1
4.729997042E0,8.517961807E1,-2.056857742E1,2.554168579E1,9.127437442E1
4.740039042E0,8.415529816E1,-2.172372528E1,2.631871994E1,9.081139503E1
4.750082042E0,8.023824371E1,-2.298799622E1,2.641137726E1,8.754532868E1
4.760124042E0,7.354521194E1,-2.427292419E1,2.535921524E1,8.149333007E1
4.770167042E0,6.458783890E1,-2.493365021E1,2.370949585E1,7.318070811E1
4.780209042E0,5.467440399E1,-2.542941925E1,2.113020950E1,6.389390870E1
4.790252042E0,4.517635529E1,-2.606095596E1,1.939905945E1,5.564530537E1
4.800294042E0,3.818708954E1,-2.519261169E1,1.840303070E1,4.931118565E1
4.810337042E0,3.028711761E1,-2.456870911E1,1.608270584E1,4.218512045E1
4.820379042E0,2.341161530E1,-2.416739365E1,1.312874863E1,3.611828743E1
4.830422042E0,2.046379532E1,-2.231993546E1,1.058164536E1,3.207674634E1
4.840464042E0,1.880868713E1,-2.081511475E1,1.011716125E1,2.982268709E1
4.850506042E0,1.655856628E1,-2.086690704E1,1.106154739E1,2.884392064E1
4.860549042E0,1.381073044E1,-2.078817078E1,1.058448944E1,2.710932932E1
4.870591042E0,1.057041870E1,-2.126208527E1,8.749006348E0,2.530523925E1
4.880634042E0,7.540868683E0,-2.189212509E1,7.763455811E0,2.442132444E1
4.890676042E0,4.982688446E0,-2.202714432E1,7.046895905E0,2.365757834E1
4.900719042E0,2.431842957E0,-2.241184433E1,6.299200745E0,2.340693394E1
4.910761042E0,8.530760193E-1,-2.262095947E1,6.036047974E0,2.342796238E1
4.920804042E0,6.499484253E-1,-2.220437576E1,5.503754883E0,2.288554246E1
4.930846042E0,7.036866760E-1,-2.230930756E1,5.006488953E0,2.287499312E1
4.940888042E0,9.729766846E-1,-2.264236496E1,5.316045227E0,2.327839581E1
4.950931042E0,9.246272278E-1,-2.218746094E1,6.424041138E0,2.311723735E1
4.960973042E0,4.599934387E-1,-2.218326965E1,7.218139801E0,2.333260784E1
4.971016042E0,-3.107537842E-1,-2.196412537E1,7.577243042E0,2.323647958E1
4.981058042E0,-8.812174988E-1,-2.090717331E1,7.852221222E0,2.235047691E1
4.991101042E0,-8.863069153E-1,-1.946686844E1,8.131839752E0,2.111566538E1
5.001143042E0,-1.407223663E0,-1.797596878E1,8.002658386E0,1.972709490E1
5.011186042E0,-2.828667755E0,-1.646815430E1,7.085216217E0,1.814942853E1
5.021228042E0,-3.737727356E0,-1.459689560E1,5.443580017E0,1.602100279E1
5.031271042E0,-3.851939850E0,-1.254451355E1,3.645369415E0,1.361950730E1
5.041313042E0,-3.385509796E0,-1.062759979E1,2.198029175E0,1.136832821E1
5.051355042E0,-3.155138855E0,-8.957073669E0,1.483115845E0,9.611644111E0
5.061398042E0,-3.062930603E0,-7.734116821E0,9.283694458E-1,8.370183792E0
5.071440042E0,-2.747835846E0,-6.468348999E0,1.922003174E-1,7.030439643E0
5.081483042E0,-2.268981628E0,-5.556145935E0,-3.864962769E-1,6.014018179E0
5.091525042E0,-2.098336487E0,-5.292095032E0,-2.547702026E-1,5.698613313E0
5.101568042E0,-1.714235229E0,-5.392087097E0,6.014492798E-1,5.689898674E0
5.111610042E0,-6.027964783E-1,-5.254523163E0,1.563498688E0,5.515243005E0
5.121653042E0,4.685256958E-1,-4.925657043E0,2.177072754E0,5.405669192E0
5.131695042E0,9.939331055E-1,-4.686454468E0,2.296374664E0,5.312635419E0
5.141737042E0,1.061592407E0,-4.579726410E0,2.046244812E0,5.127181512E0
5.151780042E0,1.096619568E0,-4.695884857E0,1.704206085E0,5.114511458E0
5.161822042E0,1.365460510E0,-4.512965240E0,1.925296326E0,5.092946456E0
5.171865042E0,1.682351532E0,-4.290078735E0,2.544259186E0,5.263870918E0
5.181907042E0,1.836231537E0,-4.386328583E0,3.128045197E0,5.691774016E0
5.191950042E0,2.117796021E0,-4.242028656E0,3.515439606E0,5.902387883E0
5.201992042E0,2.275567932E0,-4.170178070E0,3.757486267E0,6.057004012E0
5.212035042E0,2.829116821E0,-4.060905304E0,3.707490234E0,6.183877240E0
5.222077042E0,3.463497620E0,-3.281925201E0,3.104693756E0,5.692624360E0
5.232119042E0,3.206482086E0,-2.951262817E0,2.077829132E0,4.827924346E0
5.242162042E0,2.490820312E0,-2.755769348E0,1.039438477E0,3.857315501E0
5.252204042E0,2.406695251E0,-2.431842957E0,2.993774414E-4,3.421409401E0
5.262247042E0,2.681523743E0,-2.003134460E0,-6.619235229E-1,3.411929073E0
5.272289042E0,2.687062225E0,-1.594633942E0,-8.000862122E-1,3.225414509E0
5.282332042E0,2.521656189E0,-1.498084717E0,-6.279441833E-1,2.999553575E0
5.292374042E0,2.749482422E0,-1.424288177E0,-1.371148682E-1,3.099524300E0
5.302417042E0,4.403093719E0,-5.236111450E-1,4.637356567E-1,4.458301660E0
5.312459042E0,4.786596222E0,6.891668701E-1,9.846524048E-1,4.935179300E0
5.322501042E0,3.584895172E0,3.435356140E-1,1.112935638E0,3.769365444E0
5.332544042E0,1.514849854E0,-5.545967102E-1,1.471589813E0,2.183557686E0
5.342586042E0,4.655319214E-2,-1.091829529E0,1.656904449E0,1.984840365E0
5.352629042E0,-2.143542480E-1,-1.062640228E0,1.379680939E0,1.754614343E0
5.362671042E0,7.105723572E-1,-8.922944641E-1,1.269360352E0,1.706569128E0
5.372714042E0,3.049308929E0,-2.767744446E-1,1.784888306E0,3.544109945E0
5.382756042E0,5.560187531E0,1.948348389E0,2.289938049E0,6.321041298E0
5.392799042E0,4.886737976E0,3.574267273E0,9.093589783E-1,6.122297635E0
5.402841042E0,1.990710297E0,3.732787628E0,-1.176104279E0,4.390882854E0
5.412883042E0,1.046324158E-1,4.356540527E0,-2.335892487E0,4.944369223E0
5.422926042E0,1.023870850E0,5.218148804E0,-2.706372070E0,5.966727599E0
5.432968042E0,3.642375641E0,6.138435059E0,-1.028960266E0,7.211521650E0
5.443011042E0,8.658294983E0,7.688461761E0,1.867666168E0,1.172888286E1
5.453053042E0,1.446786392E1,8.116122437E0,3.487597504E0,1.695151516E1
5.463096042E0,1.970906479E1,7.016958160E0,3.870201874E0,2.127588774E1
5.473138042E0,2.469759109E1,6.010750580E0,4.674928436E0,2.584482703E1
5.483181042E0,2.962399658E1,5.407505035E0,5.397475891E0,3.059338213E1
5.493223042E0,3.341157028E1,4.039948883E0,5.235363007E0,3.405970114E1
5.503265042E0,3.717070312E1,2.980452118E0,7.554490356E0,3.804753067E1
5.513308042E0,3.981076309E1,1.958527222E0,1.268147873E1,4.182765341E1
5.523350042E0,4.135989166E1,3.736230469E-1,1.601250183E1,4.435290799E1
5.533393042E0,4.244259018E1,-2.155517578E-1,1.483699631E1,4.496172131E1
5.543434292E0,4.205519577E1,-1.082249451E-1,1.036519547E1,4.331383706E1
5.553477292E0,4.035098969E1,-6.770420837E-1,5.338498535E0,4.070823407E1
5.563519292E0,3.959551071E1,-5.643264771E-2,1.105301514E0,3.961097505E1
5.573562292E0,3.722533951E1,1.037492523E0,-8.063731384E-1,3.724852386E1
5.583604292E0,3.322281281E1,2.203417969E-1,-4.607418823E-1,3.322673809E1
5.593646292E0,2.863006348E1,-1.350192261E0,1.145118713E0,2.868474944E1
5.603689292E0,2.578403183E1,-2.259401550E0,2.578837280E0,2.601098988E1
5.613731292E0,2.527059952E1,-2.277962952E0,1.714534607E0,2.543092496E1
5.623774292E0,2.466989868E1,-1.854942627E0,-1.371298370E0,2.477751344E1
5.633816292E0,2.274535080E1,-1.025218048E0,-4.004173279E0,2.311786017E1
5.643859292E0,2.161355438E1,3.987707520E-1,-6.088588715E0,2.245830946E1
5.653901292E0,2.038595718E1,2.601889343E0,-7.288493500E0,2.180548591E1
5.663944292E0,1.884910309E1,3.663631439E0,-7.151977386E0,2.049052618E1
5.673986292E0,1.817700073E1,4.003873901E0,-6.377188568E0,1.967493064E1
5.684028292E0,1.689671310E1,4.832550659E0,-4.888983307E0,1.824156291E1
5.694071292E0,1.541269913E1,4.679568787E0,-3.885170746E0,1.656937567E1
5.704113292E0,1.422207504E1,3.317551117E0,-2.689307556E0,1.484944238E1
5.714156292E0,1.255244705E1,2.506088562E0,-9.587562561E-1,1.283602822E1
5.724198292E0,1.118099899E1,2.122885437E0,1.838177490E-1,1.138223045E1
5.734241292E0,1.097023727E1,1.590592346E0,2.252815247E-1,1.108723778E1
5.744283292E0,1.122291183E1,1.047521667E0,-6.744973755E-1,1.129185540E1
5.754325292E0,1.148561554E1,5.941145325E-1,-1.932930450E0,1.166227064E1
5.764368292E0,1.172631500E1,3.094065857E-1,-3.199746094E0,1.215897080E1
5.774410292E0,1.211191315E1,-3.600013733E-1,-3.993844757E0,1.275848098E1
5.784453292E0,1.240620117E1,-1.340013428E0,-3.669319611E0,1.300666636E1
5.794495292E0,1.277907578E1,-1.995799713E0,-2.442470856E0,1.316258554E1
5.804538292E0,1.334714447E1,-2.378404083E0,-9.382489014E-1,1.358982643E1
5.814580292E0,1.392135040E1,-2.769840088E0,3.495231628E-1,1.419852730E1
5.824623292E0,1.405681870E1,-3.051404572E0,1.395847321E0,1.445176845E1
5.834665292E0,1.397404083E1,-3.350482635E0,2.023941193E0,1.451192231E1
5.844707292E0,1.401610336E1,-3.861968994E0,2.217488708E0,1.470657044E1
5.854750292E0,1.367915405E1,-4.454287262E0,1.830842743E0,1.450213487E1
5.864792292E0,1.306258621E1,-4.935536499E0,1.221160583E0,1.401720059E1
5.874835292E0,1.242775635E1,-5.581742706E0,1.003662872E0,1.366061194E1
5.884877292E0,1.164563278E1,-6.136938171E0,1.104403381E0,1.320993868E1
5.894920292E0,1.095437027E1,-6.866520996E0,1.275946655E0,1.299135784E1
5.904962292E0,1.006791367E1,-7.714507599E0,1.494192810E0,1.277141829E1
5.915005292E0,8.793164520E0,-8.309819641E0,1.685045929E0,1.221524558E1
5.925047292E0,7.645800476E0,-8.586444397E0,1.841171265E0,1.164367656E1
5.935089292E0,6.438411255E0,-8.697064362E0,1.827848969E0,1.097420156E1
5.945132292E0,5.117857361E0,-8.642727356E0,1.670526123E0,1.018233066E1
5.955174292E0,4.040098572E0,-8.462352448E0,1.539099426E0,9.502769726E0
5.965217292E0,3.222798157E0,-8.306376801E0,1.448837128E0,9.026707735E0
5.975259292E0,2.284549255E0,-8.309370575E0,1.104104004E0,8.688144238E0
5.985302292E0,1.190923462E0,-8.428522797E0,4.703219604E-1,8.525227151E0
5.995344292E0,5.777984619E-1,-8.484506378E0,1.471440125E-1,8.505430671E0
6.005387292E0,4.725672913E-1,-8.463549957E0,2.758763123E-1,8.481220753E0
6.015429292E0,8.303233337E-1,-8.293503571E0,5.599855042E-1,8.353754969E0
6.025471292E0,1.130898285E0,-7.913144531E0,7.631130981E-1,8.029889719E0
6.035514292E0,1.449136505E0,-7.752827911E0,9.116043091E-1,7.939607021E0
6.045556292E0,1.824855194E0,-7.753426666E0,1.188977509E0,8.053532707E0
6.055599292E0,1.979034576E0,-7.478149109E0,1.468895416E0,7.873813923E0
6.065641292E0,2.157014465E0,-7.231911163E0,1.426234131E0,7.680325141E0
6.075684292E0,2.356848907E0,-7.184160461E0,1.212478638E0,7.657480183E0
6.085726292E0,2.392923889E0,-7.159761200E0,9.713301086E-1,7.611290781E0
6.095769292E0,2.398013306E0,-7.113956451E0,8.632548523E-1,7.556722381E0
6.105811292E0,2.363435211E0,-6.982529755E0,9.695338440E-1,7.435155926E0
6.115853292E0,2.113305359E0,-6.781946869E0,1.001118164E0,7.173778673E0
6.125896292E0,1.837878113E0,-6.556066589E0,7.060816956E-1,6.845316387E0
6.135938292E0,1.767823792E0,-6.210884399E0,4.569996643E-1,6.473726491E0
6.145981292E0,1.916165314E0,-5.742059326E0,3.838018799E-1,6.065495750E0
6.156023292E0,2.369422760E0,-5.178481293E0,4.195774841E-1,5.710243251E0
6.166066292E0,2.475102997E0,-4.599185944E0,2.598596191E-1,5.229356864E0
6.176108292E0,2.393971710E0,-4.382286987E0,-1.297801208E-1,4.995235997E0
6.186151292E0,2.418221283E0,-4.473148041E0,-4.355941772E-1,5.103585980E0
6.196193292E0,2.414329376E0,-4.660708008E0,-5.192701721E-1,5.274545192E0
6.206235292E0,2.032024384E0,-4.925507355E0,-7.291337585E-1,5.377860340E0
6.216278292E0,1.466500397E0,-5.325924683E0,-1.001118164E0,5.614119229E0
6.226320292E0,1.168619843E0,-5.610333252E0,-1.055006104E0,5.827053236E0
6.236363292E0,1.340163116E0,-5.706134033E0,-8.315208435E-1,5.920086967E0
6.246405292E0,1.761087799E0,-5.479056244E0,-5.269042969E-1,5.779196804E0
6.256448292E0,2.851570129E0,-5.398374023E0,-3.119512939E-1,6.113199482E0
6.266490292E0,3.992647247E0,-5.214107208E0,-1.700463867E-1,6.569403458E0
6.276533292E0,4.669988708E0,-5.078638916E0,-3.803590393E-1,6.909850995E0
6.286575292E0,5.353617096E0,-5.360353088E0,-5.300477600E-1,7.594442170E0
6.296617292E0,5.890101471E0,-5.854774933E0,-4.276606750E-1,8.315923190E0
6.306660292E0,6.525829468E0,-6.439908142E0,-4.671784973E-1,9.180257233E0
6.316702292E0,7.297624512E0,-7.091652832E0,-4.412823486E-1,1.018536173E1
6.326745292E0,7.863747253E0,-7.488327942E0,-1.212478638E-1,1.085947868E1
6.336787292E0,8.234675903E0,-7.630532227E0,4.791535950E-1,1.123674764E1
6.346830292E0,8.345146179E0,-7.492070160E0,1.125659180E0,1.127118843E1
6.356872292E0,8.577313385E0,-7.425907745E0,1.371897125E0,1.142788311E1
6.366914292E0,9.162147217E0,-7.580835571E0,1.359472961E0,1.196921787E1
6.376957292E0,9.703721008E0,-7.825426941E0,1.368454285E0,1.254082036E1
6.386999292E0,1.073911789E1,-8.503965912E0,1.301693115E0,1.376010517E1
6.397042292E0,1.220816299E1,-8.966953125E0,1.519041138E0,1.522343516E1
6.407084292E0,1.317350555E1,-9.029822388E0,1.949246521E0,1.608970177E1
6.417127292E0,1.393392426E1,-9.383237457E0,2.346819763E0,1.696192658E1
6.427169292E0,1.449974762E1,-9.713001709E0,2.895129547E0,1.769086935E1
6.437212292E0,1.573423050E1,-1.031879196E1,3.096610565E0,1.906914980E1
6.447254292E0,1.776236298E1,-1.145747406E1,3.073857880E0,2.135939729E1
6.457296292E0,2.019196060E1,-1.318742661E1,3.276686096E0,2.433845034E1
6.467339292E0,2.268802002E1,-1.555939407E1,3.701053619E0,2.775858055E1
6.477381292E0,2.493888931E1,-1.796698746E1,4.417014771E0,3.105271096E1
6.487424292E0,2.667078781E1,-1.954276062E1,5.190157013E0,3.346921190E1
6.497466292E0,2.797667221E1,-2.010319519E1,5.041815491E0,3.481741731E1
6.507509292E0,2.843337250E1,-2.052441925E1,3.533551941E0,3.524477900E1
6.517551292E0,2.732567596E1,-2.067590424E1,1.556463318E0,3.430172242E1
6.527594292E0,2.516536835E1,-2.159110107E1,-1.155596924E-1,3.315847951E1
6.537636292E0,2.275852341E1,-2.371204056E1,-1.425485687E0,3.289746593E1
6.547678917E0,2.060031143E1,-2.659968567E1,-1.664538574E0,3.368511240E1
6.557721917E0,1.910522049E1,-2.927387466E1,-6.092330933E-1,3.496198439E1
6.567763917E0,1.818493423E1,-3.140918427E1,1.624122620E0,3.632996647E1
6.577806917E0,1.741358826E1,-3.206482086E1,4.835993500E0,3.680723606E1
6.587848917E0,1.642279861E1,-3.116534134E1,6.923253021E0,3.590150759E1
6.597891917E0,1.371388184E1,-2.941562988E1,5.833369446E0,3.297541562E1
6.607933917E0,1.026340714E1,-2.830239487E1,4.042343903E0,3.037603703E1
6.617976917E0,6.731202393E0,-2.676434326E1,3.998934174E0,2.788602931E1
6.628018917E0,4.526736603E0,-2.500071075E1,5.050048370E0,2.590424427E1
6.638060917E0,3.544329529E0,-2.385214920E1,6.211932220E0,2.490131312E1
6.648103917E0,2.097737732E0,-2.308993423E1,5.907764740E0,2.392586991E1
6.658145917E0,4.352947998E-1,-2.235735764E1,4.871469727E0,2.288606867E1
6.668188917E0,-1.836081848E0,-2.083412521E1,4.916975098E0,2.148507887E1
6.678230917E0,-1.541195068E0,-1.804826843E1,6.223458252E0,1.915324276E1
6.688273917E0,-1.219663696E0,-1.433673660E1,8.510552216E0,1.671703009E1
6.698315917E0,-2.712958374E0,-9.950707397E0,8.725954285E0,1.350995925E1
6.708358917E0,-4.850662994E0,-3.799698486E0,5.805078278E0,8.465552190E0
6.718400917E0,-8.339308319E0,2.225571899E0,1.382225647E0,8.741154458E0
6.728442917E0,-1.020802231E1,9.900861053E0,-4.034709778E0,1.478207198E1
6.738485917E0,-7.469167786E0,1.652997574E1,-1.316048264E1,2.241041875E1
6.748527917E0,-5.902525635E0,1.385488861E1,-2.284669006E1,2.736364366E1
6.758570917E0,-6.156846771E0,3.103795624E0,-2.700893463E1,2.787512976E1
6.768612917E0,-4.847519531E0,-5.245691528E0,-2.424133987E1,2.527168938E1
6.778655917E0,-3.742218018E0,-9.078620911E0,-1.382854340E1,1.696037045E1
6.788697917E0,-4.867877197E-1,-9.965376892E0,7.593708801E-1,1.000611528E1
6.798739917E0,-4.665797424E-1,-7.582482147E0,1.517140091E1,1.696711931E1
6.808782917E0,3.464695129E0,-6.806346130E0,1.362272141E1,1.561758619E1
6.818824917E0,3.129392395E0,-3.765569458E0,1.046443909E1,1.155322879E1
6.828867917E0,1.926194458E0,-1.585951996E0,6.865173798E0,7.304524632E0
6.838909917E0,1.696422272E0,-1.685195618E0,5.231620789E0,5.752181227E0
6.848952917E0,1.307530975E0,-1.703906708E0,5.230273590E0,5.654086765E0
6.858994917E0,1.495540009E0,-1.766775970E0,3.603755951E0,4.283129020E0
6.869037917E0,8.857081604E-1,-1.798959045E0,4.375401306E-1,2.052358146E0
6.879079917E0,-7.066804504E-1,-1.389859772E0,-7.038363647E-1,1.710699586E0
6.889121917E0,-6.219566345E-1,-9.726773071E-1,-4.137396240E-1,1.226422307E0
6.899164917E0,1.540296936E-1,1.088237000E-1,-7.444020081E-1,7.679206299E-1
6.909206917E0,7.566764832E-1,1.203197937E0,-4.822970581E-1,1.500951374E0
6.919249917E0,9.633966064E-1,1.816173248E0,-7.234455872E-1,2.179447592E0
6.929291917E0,7.057823181E-1,2.054627380E0,-8.957373047E-1,2.349886736E0
6.939334917E0,8.578660583E-1,2.076931000E0,-8.078700256E-1,2.387934365E0
6.949376917E0,1.502126312E0,1.976938934E0,-5.795947266E-1,2.549627631E0
6.959418917E0,2.437231750E0,1.825154572E0,-7.143145752E-1,3.127544265E0
6.969461917E0,2.615211639E0,1.817221069E0,-8.759783936E-1,3.302871853E0
6.979503917E0,2.706970825E0,1.569635925E0,-1.081650696E0,3.310802956E0
6.989546917E0,2.382295990E0,1.356179810E0,-1.318607941E0,3.041921229E0
6.999588917E0,1.870061188E0,1.286574554E0,-1.081800385E0,2.514496968E0
7.009631917E0,1.637145538E0,1.369202728E0,-4.453239441E-1,2.180200688E0
7.019673917E0,1.461111603E0,1.431473236E0,7.249424744E-1,2.170139243E0
7.029715917E0,1.704056396E0,1.417851562E0,1.602866821E0,2.735560875E0
7.039758917E0,1.810185699E0,1.363514557E0,1.862876129E0,2.933641370E0
7.049800917E0,1.765279083E0,1.322050781E0,1.477427673E0,2.654584909E0
7.059843917E0,1.745819550E0,1.043330383E0,6.240522766E-1,2.127408149E0
7.069885917E0,1.111738129E0,9.449848938E-1,-9.714797974E-2,1.462325493E0
7.079928917E0,2.733316040E-1,9.104067993E-1,-3.869453430E-1,1.026293040E0
7.089970917E0,2.739303589E-2,9.183403015E-1,-3.158432007E-1,9.715226272E-1
7.100013917E0,-5.388793945E-3,1.057251434E0,-5.523513794E-2,1.058707020E0
7.110055917E0,-3.038681030E-2,9.967771912E-1,2.830613708E-1,1.036634876E0
7.120097917E0,-3.251239014E-1,5.330415344E-1,3.734733582E-1,7.275446226E-1
7.130140917E0,-5.959107971E-1,-1.419049072E-1,1.574725342E-1,6.324905374E-1
7.140182917E0,-5.914201355E-1,-6.611750793E-1,-1.929487610E-1,9.078323009E-1
7.150225917E0,-7.430548096E-1,-1.026864624E0,-5.788462830E-1,1.393429017E0
7.160267917E0,-8.223898315E-1,-1.109792175E0,-5.010081482E-1,1.469344368E0
7.170310917E0,-9.472302246E-1,-8.726852417E-1,-2.710862732E-1,1.316173392E0
7.180352917E0,-1.043929138E0,-6.988966370E-1,-1.760339355E-1,1.268555281E0
7.190394917E0,-1.123862915E0,-5.255570984E-1,1.326242065E-1,1.247744884E0
7.200437917E0,-1.287921753E0,-4.601431274E-1,5.911207581E-1,1.489932176E0
7.210479917E0,-1.053958282E0,-9.036708069E-1,7.973918152E-1,1.601025514E0
7.220522917E0,-9.400451660E-1,-1.403631134E0,7.581733704E-1,1.851672793E0
7.230564917E0,-1.206790466E0,-1.764530640E0,1.987866211E-1,2.146957785E0
7.240607917E0,-1.357377319E0,-1.986968079E0,-4.311035156E-1,2.444660625E0
7.250649917E0,-1.582808533E0,-2.236050110E0,-1.009201355E0,2.919535977E0
7.260692917E0,-1.243763580E0,-2.538720703E0,-1.616189117E0,3.256396462E0
7.270734917E0,-3.203338623E-2,-2.738555145E0,-2.443219299E0,3.670154079E0
7.280776917E0,1.796414337E0,-3.748055878E0,-3.346890106E0,5.336356502E0
7.290819917E0,4.415068817E0,-6.430627441E0,-3.324436798E0,8.479250083E0
7.300861917E0,7.301067352E0,-1.018062927E1,-2.767744446E0,1.283008987E1
7.310904917E0,1.113055389E1,-1.552002594E1,-1.932780762E0,1.919625163E1
7.320946917E0,1.419153854E1,-2.060570023E1,5.716612244E-1,2.502641494E1
7.330989917E0,1.728051498E1,-2.353316254E1,4.325255585E0,2.951497540E1
7.341031917E0,2.177791260E1,-2.554946960E1,7.459438019E0,3.439034879E1
7.351073917E0,2.486584122E1,-2.608475647E1,9.259594574E0,3.720839517E1
7.361116917E0,2.632336029E1,-2.425211746E1,8.818162537E0,3.686250790E1
7.371158917E0,2.687511292E1,-2.244836838E1,6.215524750E0,3.556450035E1
7.381201917E0,2.687750793E1,-2.250824387E1,2.668351135E0,3.515880505E1
7.391243917E0,2.713856506E1,-2.420601334E1,-7.244934082E-1,3.637248529E1
7.401286917E0,2.664264633E1,-2.583911728E1,-3.144660645E0,3.724754322E1
7.411328917E0,2.359228958E1,-2.561203949E1,-3.180136871E0,3.496692673E1
7.421371917E0,1.899025955E1,-2.419493637E1,-1.863325195E0,3.081390732E1
7.431413917E0,1.443598022E1,-2.293021637E1,-7.213499451E-1,2.710558418E1
7.441455917E0,1.085662354E1,-2.134486313E1,-3.258723450E-1,2.394943944E1
7.451498917E0,9.131760406E0,-2.004287064E1,-6.888674927E-1,2.203588550E1
7.461540917E0,8.602012024E0,-1.874462036E1,-1.389111328E0,2.067087404E1
7.471583917E0,8.254285126E0,-1.726913864E1,-2.077080688E0,1.925280854E1
7.481625917E0,8.543932800E0,-1.655093216E1,-2.771187286E0,1.883113438E1
7.491668917E0,9.014554138E0,-1.651665344E1,-2.992576904E0,1.905301928E1
7.501710917E0,9.132059784E0,-1.613165405E1,-2.559976501E0,1.871305047E1
7.511753917E0,9.287885742E0,-1.508847336E1,-1.517394562E0,1.778283825E1
7.521795917E0,9.648934937E0,-1.357167755E1,-7.634124756E-3,1.665210003E1
7.531837917E0,9.682165833E0,-1.181044006E1,1.477876740E0,1.534323790E1
7.541881167E0,9.329648895E0,-1.025502457E1,2.490221558E0,1.408577583E1
7.551923167E0,8.626411285E0,-9.088799744E0,2.898422699E0,1.286165256E1
7.561966167E0,7.764353943E0,-8.236921234E0,2.827619934E0,1.166736894E1
7.572008167E0,7.197482758E0,-7.265441437E0,2.299368439E0,1.048224654E1
7.582051167E0,6.639143829E0,-6.237678680E0,1.729054413E0,9.272351119E0
7.592093167E0,6.014792175E0,-5.535937958E0,1.285227356E0,8.275031320E0
7.602135167E0,5.337899780E0,-5.012626190E0,8.723858643E-1,7.374323866E0
7.612178167E0,4.612657928E0,-4.470453644E0,4.523593140E-1,6.439425277E0
7.622220167E0,3.908372498E0,-3.964505768E0,1.275347900E-1,5.568567741E0
7.632263167E0,3.344644775E0,-3.506308594E0,6.496490479E-2,4.846139605E0
7.642305167E0,2.951262817E0,-3.060984650E0,2.049238586E-1,4.256944095E0
7.652348167E0,2.697690125E0,-2.809208221E0,5.210664368E-1,3.929464731E0
7.662390167E0,2.640509033E0,-2.650238800E0,7.246430969E-1,3.810664151E0
7.672433167E0,2.402803345E0,-2.748135223E0,8.011340332E-1,3.737315461E0
7.682475167E0,1.883533173E0,-2.835553436E0,8.068222046E-1,3.498431445E0
7.692517167E0,1.827549591E0,-2.860850830E0,5.724096680E-1,3.442681776E0
7.702560167E0,1.933828583E0,-2.861150208E0,3.480262756E-1,3.470878244E0
7.712602167E0,2.151176605E0,-2.869532776E0,2.112107849E-1,3.592546330E0
7.722645167E0,2.610571289E0,-2.851270752E0,1.440005493E-1,3.868535061E0
7.732687167E0,3.329975281E0,-2.801125031E0,1.435514832E-1,4.353807970E0
7.742730167E0,4.018693085E0,-3.216511230E0,5.703140259E-2,5.147726798E0
7.752772167E0,4.312681732E0,-3.867058411E0,-8.921447754E-2,5.793213590E0
7.762814167E0,4.602030029E0,-4.659660187E0,-2.588117981E-1,6.554242671E0
7.772857167E0,4.947361908E0,-5.343887329E0,-3.225791931E-1,7.289552728E0
7.782899167E0,5.225483551E0,-5.894292755E0,-1.889071655E-1,7.879343332E0
7.792942167E0,5.531596985E0,-6.295159149E0,2.076182556E-1,8.382762030E0
7.802984167E0,5.842949524E0,-6.558162231E0,6.881190491E-1,8.810394930E0
7.813027167E0,6.122568054E0,-6.829098816E0,1.072519684E0,9.234323402E0
7.823069167E0,6.441854095E0,-7.068151703E0,1.264420624E0,9.646502589E0
7.833111167E0,6.796167297E0,-7.147187347E0,1.409768372E0,9.962812042E0
7.843154167E0,6.943311310E0,-7.296726379E0,1.703757019E0,1.021540874E1
7.853196167E0,6.831643524E0,-7.500303040E0,1.980681152E0,1.033677884E1
7.863239167E0,6.814279633E0,-7.762407990E0,2.053280182E0,1.053116063E1
7.873281167E0,7.060367889E0,-8.187973022E0,1.996099091E0,1.099436713E1
7.883324167E0,7.068451080E0,-8.511150970E0,1.888472900E0,1.122359218E1
7.893366167E0,6.775210876E0,-8.581504669E0,1.558409271E0,1.104419958E1
7.903409167E0,6.543492737E0,-8.460556183E0,1.201701050E0,1.076301043E1
7.913451167E0,6.692133636E0,-8.237070923E0,1.022224274E0,1.066203229E1
7.923493167E0,6.735842743E0,-7.919581146E0,8.997789001E-1,1.043556156E1
7.933536167E0,6.138435059E0,-7.874824219E0,6.264472961E-1,1.000428297E1
7.943578167E0,5.515131226E0,-8.128097534E0,5.129832458E-1,9.835943969E0
7.953621167E0,5.231022034E0,-8.385711823E0,6.750961304E-1,9.906538703E0
7.963663167E0,5.084776154E0,-8.472830658E0,8.831634521E-1,9.920876250E0
7.973706167E0,4.985532532E0,-8.500972137E0,9.427395630E-1,9.900041403E0
7.983748167E0,4.923711090E0,-8.499774628E0,9.928852844E-1,9.872938813E0
7.993790167E0,4.726720734E0,-8.391549683E0,1.080303497E0,9.691596907E0
8.003833167E0,4.645439758E0,-8.140970764E0,1.069525909E0,9.433949396E0
8.013875167E0,4.507277069E0,-7.936495972E0,1.351689148E0,9.226623350E0
8.023918167E0,4.529431000E0,-7.883057098E0,1.529070282E0,9.219348693E0
8.033960167E0,4.520150299E0,-7.629185028E0,9.476792908E-1,8.918201554E0
8.044003167E0,4.176015930E0,-7.299271088E0,7.021897888E-1,8.438692906E0
8.054045167E0,4.080215149E0,-7.038962402E0,5.586383057E-1,8.155196142E0
8.064087167E0,3.969146118E0,-6.811285858E0,4.782554626E-1,7.897877198E0
8.074130167E0,3.967349854E0,-6.587950287E0,5.821394348E-1,7.712317431E0
8.084172167E0,3.946842499E0,-6.391109619E0,6.053411865E-1,7.535932976E0
8.094215167E0,3.633244629E0,-6.268215179E0,4.107458496E-1,7.256700367E0
8.104257167E0,3.330424347E0,-6.308631134E0,3.661386108E-1,7.143151307E0
8.114300167E0,2.956801300E0,-6.335575104E0,6.982978821E-1,7.026365046E0
8.124342167E0,3.043620758E0,-6.397995300E0,9.427395630E-1,7.147498098E0
8.134385167E0,3.322341156E0,-6.330186310E0,1.193318481E0,7.247980303E0
8.144427167E0,3.403322754E0,-6.104156342E0,1.374890900E0,7.122756166E0
8.154469167E0,3.487298126E0,-5.987848206E0,1.433868256E0,7.076125531E0
8.164512167E0,3.453618164E0,-5.982309723E0,1.415905609E0,7.051262067E0
8.174554167E0,3.126997375E0,-5.942043457E0,1.104852448E0,6.804902054E0
8.184597167E0,2.539918213E0,-5.842051392E0,7.069798279E-1,6.409412568E0
8.194639167E0,1.848955078E0,-5.777685242E0,3.269201660E-1,6.075126207E0
8.204682167E0,1.280736694E0,-5.663173370E0,-6.436614990E-2,5.806544765E0
8.214724167E0,1.102906494E0,-5.355862427E0,-4.200265503E-1,5.484349312E0
8.224766167E0,1.063538361E0,-5.039270782E0,-6.095324707E-1,5.186221524E0
8.234809167E0,9.162446594E-1,-4.661456451E0,-7.186555481E-1,4.804700440E0
8.244851167E0,1.143322449E0,-4.387376404E0,-1.006057892E0,4.644180273E0
8.254894167E0,1.481169891E0,-4.297712860E0,-1.319955139E0,4.733548526E0
8.264936167E0,1.741628265E0,-4.499792633E0,-1.407073975E0,5.026058090E0
8.274979167E0,1.810634766E0,-4.979245605E0,-1.364712067E0,5.471172094E0
8.285021167E0,1.966311035E0,-5.364095306E0,-9.918374634E-1,5.798589406E0
8.295063167E0,2.250120850E0,-5.832621002E0,-3.535647583E-1,6.261590823E0
8.305106167E0,2.585573273E0,-6.162534943E0,3.851490784E-1,6.694054517E0
8.315148167E0,3.312761078E0,-6.262527008E0,1.090931396E0,7.168246773E0
8.325191167E0,4.155658264E0,-6.350244598E0,1.617536316E0,7.759608611E0
8.335233167E0,4.407883759E0,-6.603517914E0,1.839225311E0,8.149763053E0
8.345276167E0,4.204157410E0,-7.111411743E0,2.037862244E0,8.508818897E0
8.355318167E0,4.269122314E0,-7.580985260E0,2.327210541E0,9.006256256E0
8.365361167E0,4.646786957E0,-7.793543243E0,2.631527710E0,9.447586115E0
8.375403167E0,5.442981262E0,-7.887098694E0,2.906805267E0,1.001408447E1
8.385445167E0,6.453380127E0,-8.033643951E0,3.162323914E0,1.077895369E1
8.395488167E0,7.981851654E0,-7.925119629E0,3.192111969E0,1.169217926E1
8.405530167E0,1.007420059E1,-7.439529419E0,3.184178467E0,1.292188485E1
8.415573167E0,1.234677475E1,-6.919361115E0,3.460653534E0,1.457039903E1
8.425615167E0,1.431787582E1,-6.747967529E0,2.938090210E0,1.609872691E1
8.435657167E0,1.556583069E1,-6.990014191E0,1.745520172E0,1.715232416E1
8.445700167E0,1.629990417E1,-7.240892487E0,9.855505371E-1,1.786305433E1
8.455742167E0,1.684731583E1,-7.927065582E0,7.409591675E-1,1.863382515E1
8.465785167E0,1.786564819E1,-8.889114990E0,6.180647278E-1,1.996446229E1
8.475827167E0,1.967194199E1,-9.335337067E0,7.310797119E-1,2.178688360E1
8.485870167E0,2.117526581E1,-9.517059174E0,8.042774963E-1,2.322957511E1
8.495912167E0,2.217159393E1,-1.073732162E1,8.562194824E-1,2.464959969E1
8.505955167E0,2.343227234E1,-1.228525269E1,1.570234680E0,2.650404606E1
8.515997167E0,2.494068558E1,-1.369816452E1,2.418370972E0,2.855741631E1
8.526039167E0,2.643787216E1,-1.530148041E1,2.963387604E0,3.069003182E1
8.536082167E0,2.764286636E1,-1.717513412E1,2.998414764E0,3.268185711E1
8.546123625E0,2.828503098E1,-1.934127960E1,2.416425018E0,3.435065041E1
8.556166625E0,2.810660202E1,-2.121238861E1,1.793869629E0,3.525853763E1
8.566208625E0,2.743674500E1,-2.276510971E1,1.637295227E0,3.568901696E1
8.576251625E0,2.663620972E1,-2.407219162E1,2.150128784E0,3.596638891E1
8.586293625E0,2.663082092E1,-2.498888535E1,2.964734802E0,3.663925035E1
8.596335625E0,2.771127411E1,-2.569826019E1,3.650458832E0,3.796894967E1
8.606378625E0,2.845477798E1,-2.659384781E1,4.105362854E0,3.916326258E1
8.616420625E0,2.902808578E1,-2.755934006E1,4.161196747E0,4.024254648E1
8.626463625E0,2.949855743E1,-2.757400955E1,3.942501526E0,4.057134718E1
8.636505625E0,2.912583252E1,-2.729259476E1,3.388952637E0,4.005851780E1
8.646548625E0,2.803145828E1,-2.735711060E1,2.939287720E0,3.927866553E1
8.656590625E0,2.694052689E1,-2.666734497E1,3.236120453E0,3.804486499E1
8.666633625E0,2.654849213E1,-2.467274277E1,3.929179230E0,3.645552248E1
8.676675625E0,2.724679001E1,-2.227936981E1,3.888613586E0,3.541015674E1
8.686717625E0,2.720248215E1,-1.972867401E1,3.691473541E0,3.380565914E1
8.696760625E0,2.545651291E1,-1.808149933E1,3.179987183E0,3.138609542E1
8.706802625E0,2.373718826E1,-1.573018890E1,1.906285858E0,2.853991723E1
8.716845625E0,2.231918701E1,-1.264136215E1,-4.288581848E-1,2.565412375E1
8.726887625E0,2.122915375E1,-9.751621399E0,-2.476450195E0,2.349263490E1
8.736930625E0,1.885958130E1,-7.285200348E0,-2.735711060E0,2.040201132E1
8.746972625E0,1.653895706E1,-5.026696930E0,-1.498384094E0,1.735079069E1
8.757014625E0,1.521720566E1,-2.617756348E0,-3.664379883E-1,1.544507278E1
8.767057625E0,1.402478531E1,-1.451681213E0,-2.107617188E-1,1.410129079E1
8.777099625E0,1.326481567E1,-1.678759003E0,-1.110241241E0,1.341663901E1
8.787142625E0,1.254541168E1,-3.360062714E0,-2.805166626E0,1.328707400E1
8.797184625E0,1.143576920E1,-6.254743195E0,-4.566104736E0,1.381115281E1
8.807227625E0,1.017389328E1,-9.466015320E0,-5.061724091E0,1.478967888E1
8.817269625E0,8.748407593E0,-1.180864380E1,-3.235521698E0,1.504816615E1
8.827311625E0,7.542664948E0,-1.272458908E1,8.427474976E-2,1.479236506E1
8.837354625E0,6.599626007E0,-1.238958572E1,3.073109436E0,1.437013916E1
8.847396625E0,4.854255524E0,-1.184157532E1,4.442611542E0,1.354708456E1
8.857439625E0,2.357747040E0,-1.127829666E1,4.386178894E0,1.232872710E1
8.867481625E0,4.116439819E-1,-1.029559021E1,3.118465118E0,1.076538217E1
8.877524625E0,2.547702026E-1,-9.615105286E0,1.699116669E0,9.767402672E0
8.887566625E0,1.246008911E0,-9.042396240E0,1.165027313E0,9.201888752E0
8.897608625E0,2.545157318E0,-9.162296906E0,1.790875854E0,9.676401536E0
8.907651625E0,3.376977539E0,-9.836943970E0,4.210594025E0,1.122045213E1
8.917693625E0,5.131029968E0,-9.811347198E0,6.940766602E0,1.306767934E1
8.927736625E0,6.972500610E0,-9.805509338E0,8.865763550E0,1.494541875E1
8.937778625E0,8.203540649E0,-9.837991791E0,1.014230896E1,1.633862273E1
8.947821625E0,9.004225616E0,-9.630373535E0,1.014290771E1,1.663426434E1
8.957863625E0,9.707762604E0,-9.746232605E0,8.458161163E0,1.614838057E1
8.967905625E0,9.345665588E0,-1.008183472E1,6.640341339E0,1.526692470E1
8.977948625E0,8.029452667E0,-1.041070084E1,5.736670532E0,1.434448294E1
8.987990625E0,6.686295776E0,-1.088536377E1,5.321583710E0,1.383896487E1
8.998033625E0,5.082231445E0,-1.147663422E1,5.152884521E0,1.356814019E1
9.008075625E0,2.989583130E0,-1.190908493E1,4.914879456E0,1.322573065E1
9.018118625E0,1.824705505E-1,-1.247041763E1,4.549938354E0,1.327578813E1
9.028160625E0,-2.588716736E0,-1.338052505E1,3.729045410E0,1.412960314E1
9.038203625E0,-4.863236847E0,-1.372600662E1,2.544109497E0,1.478265279E1
9.048245625E0,-6.778504028E0,-1.307366318E1,1.227447510E0,1.477753068E1
9.058287625E0,-7.304210815E0,-1.238449631E1,1.646575928E-2,1.437802196E1
9.068330625E0,-7.193291473E0,-1.169922134E1,-7.102729797E-1,1.375208021E1
9.078372625E0,-6.721622314E0,-1.079210770E1,-4.631369019E-1,1.272258979E1
9.088415625E0,-6.159541168E0,-1.002914429E1,3.794609070E-1,1.177572389E1
9.098457625E0,-5.507946167E0,-9.649084625E0,1.481319580E0,1.120877392E1
9.108500625E0,-4.674179993E0,-9.448052673E0,2.440824280E0,1.081994829E1
9.118542625E0,-3.703748016E0,-9.188492432E0,3.296594696E0,1.044096160E1
9.128584625E0,-2.767145691E0,-8.982071686E0,4.018393707E0,1.022165324E1
9.138627625E0,-2.026036835E0,-8.818461914E0,4.379143524E0,1.005221338E1
9.148669625E0,-1.593137054E0,-8.407716064E0,4.234693909E0,9.547795955E0
9.158712625E0,-1.397344208E0,-8.140372009E0,3.769760742E0,9.079059606E0
9.168754625E0,-1.633253632E0,-8.045020294E0,2.878514099E0,8.699178834E0
9.178797625E0,-2.199825439E0,-8.061486053E0,1.806593170E0,8.549302208E0
9.188839625E0,-2.680775299E0,-8.154143372E0,9.735754395E-1,8.638544985E0
9.198881625E0,-2.996917877E0,-8.178392944E0,4.138893127E-1,8.720030520E0
9.208924625E0,-3.289858704E0,-8.110284576E0,1.567240906E-1,8.753539207E0
9.218966625E0,-3.183430023E0,-7.922874298E0,1.085243225E-1,8.539200278E0
9.229009625E0,-2.609074402E0,-7.574848022E0,1.086740112E-1,8.012328116E0
9.239051625E0,-1.984722748E0,-6.973548431E0,-6.930587769E-2,7.250814121E0
9.249094625E0,-1.239123230E0,-6.201154633E0,-4.674778748E-1,6.340999978E0
9.259136625E0,-8.554710388E-1,-5.329217834E0,-8.066725159E-1,5.457390766E0
9.269178625E0,-9.690847778E-1,-4.684358826E0,-9.464817810E-1,4.876286566E0
9.279221625E0,-1.186732178E0,-4.208498383E0,-8.470884705E-1,4.453914096E0
9.289263625E0,-1.200653229E0,-3.682941284E0,-4.534071350E-1,3.900154190E0
9.299306625E0,-7.674540710E-1,-3.330723724E0,3.508703613E-1,3.435959297E0
9.309348625E0,8.292755127E-2,-3.094365234E0,1.261576538E0,3.342685828E0
9.319391625E0,4.755610657E-1,-2.656076660E0,2.044598236E0,3.385451742E0
9.329433625E0,-3.950285339E-1,-2.410587158E0,2.330054626E0,3.375815835E0
9.339475625E0,-2.551294556E0,-3.002306671E0,2.109263763E0,4.468997973E0
9.349518625E0,-3.432811432E0,-3.846401367E0,1.325343933E0,5.323113219E0
9.359560625E0,-2.214195557E0,-4.371060333E0,1.028810577E0,5.006723640E0
9.369603625E0,1.698817291E0,-3.670517120E0,2.208806763E0,4.608416587E0
9.379645625E0,1.031100815E1,-2.592309265E0,5.184019775E0,1.182839877E1
9.389688625E0,2.176219528E1,-2.127076721E0,9.293723602E0,2.375901718E1
9.399730625E0,3.072390930E1,-3.051703949E0,1.179726746E1,3.305218630E1
9.409772625E0,3.483960068E1,-5.057383118E0,1.109223358E1,3.691087299E1
9.419815625E0,3.619158920E1,-6.673272858E0,8.909472656E0,3.786479107E1
9.429857625E0,3.765838898E1,-7.849227448E0,7.669750671E0,3.922486083E1
9.439900625E0,4.144521423E1,-8.675509186E0,7.796237640E0,4.305521529E1
9.449942625E0,4.622866699E1,-9.986932068E0,8.208181000E0,4.800211140E1
9.459985625E0,4.871110474E1,-1.166988235E1,7.148384857E0,5.059700866E1
9.470027625E0,4.943080811E1,-1.274823990E1,3.895199890E0,5.119663068E1
9.480069625E0,5.134981750E1,-1.288146286E1,-7.756869507E-1,5.294655356E1
9.490112625E0,5.253220871E1,-1.043959076E1,-6.253246307E0,5.392328900E1
9.500154625E0,5.102723831E1,-8.403674469E0,-1.007809250E1,5.268746286E1
9.510197625E0,4.698070313E1,-8.290210419E0,-9.592651978E0,4.866141209E1
9.520239625E0,4.346496414E1,-9.208550720E0,-6.293662262E0,4.487327377E1
9.530282625E0,4.082430542E1,-1.007569748E1,-2.358495483E0,4.211539022E1
9.540324625E0,3.906276855E1,-9.619146881E0,8.607101440E-1,4.023889531E1
9.550367000E0,3.738221329E1,-8.171357574E0,2.047142944E0,3.831960006E1
9.560410000E0,3.485711426E1,-7.255112915E0,1.671723633E0,3.564336878E1
9.570452000E0,3.203623032E1,-5.732030182E0,9.331594849E-1,3.255836313E1
9.580495000E0,2.995301239E1,-2.352058868E0,-7.783813477E-3,3.004521913E1
9.590537000E0,2.790661789E1,8.455915833E-1,-1.412612457E0,2.795513944E1
9.600580000E0,2.607293106E1,2.393073578E0,-2.618654480E0,2.631315045E1
9.610622000E0,2.419957672E1,3.500919800E0,-2.509980469E0,2.457999095E1
9.620664000E0,2.271376648E1,4.557871857E0,-1.734143829E0,2.323137186E1
9.630707000E0,2.113335297E1,5.049599304E0,-1.364263000E0,2.177104210E1
9.640749000E0,1.905627228E1,5.042563934E0,-1.594933319E0,1.977657140E1
9.650792000E0,1.671588913E1,4.731361084E0,-2.125729523E0,1.750215567E1
9.660834000E0,1.433329376E1,4.139192505E0,-2.630030823E0,1.514903584E1
9.670877000E0,1.216280731E1,3.463048553E0,-2.876418457E0,1.296920854E1
9.680919000E0,1.035621414E1,2.866838379E0,-2.869083710E0,1.112212097E1
9.690961000E0,9.090895386E0,2.303559723E0,-2.750829620E0,9.773322358E0
9.701004000E0,8.154442749E0,1.677112427E0,-2.332299957E0,8.645650105E0
9.711046000E0,7.453001404E0,9.548643494E-1,-1.705553284E0,7.705057291E0
9.721089000E0,7.139403534E0,-1.055305481E-1,-1.294208679E0,7.256527794E0
9.731131000E0,7.193141785E0,-1.270108795E0,-1.470541992E0,7.450970329E0
9.741174000E0,7.035968628E0,-1.838177490E0,-1.887874146E0,7.513176413E0
9.751216000E0,6.777156830E0,-2.203717346E0,-2.816992035E0,7.663006522E0
9.761258000E0,6.592141571E0,-2.634072418E0,-3.614832916E0,7.966284266E0
9.771301000E0,6.613097992E0,-2.930456085E0,-3.823648682E0,8.181743528E0
9.781343000E0,7.113806763E0,-3.349734192E0,-3.351979523E0,8.547674101E0
9.791386000E0,7.891589355E0,-4.094136200E0,-2.451452179E0,9.222188003E0
9.801428000E0,8.865613861E0,-4.975952454E0,-1.509910126E0,1.027808545E1
9.811471000E0,9.836045837E0,-5.988896027E0,-6.414161682E-1,1.153369360E1
9.821513000E0,1.059646454E1,-7.043153687E0,4.478686523E-1,1.273152233E1
9.831555000E0,1.061727127E1,-7.624844055E0,1.088686066E0,1.311678061E1
9.841598000E0,1.006716522E1,-7.660320282E0,1.045725403E0,1.269337875E1
9.851640000E0,9.493857422E0,-7.527097321E0,7.539820862E-1,1.213915202E1
9.861683000E0,8.975036316E0,-7.367080078E0,5.346881104E-1,1.162372733E1
9.871725000E0,8.257428589E0,-7.390431519E0,2.903961182E-1,1.108548307E1
9.881768000E0,7.630232849E0,-7.564968567E0,4.258644104E-1,1.075316527E1
9.891810000E0,6.989415436E0,-8.156089325E0,7.911048889E-1,1.077030957E1
9.901852000E0,6.043682098E0,-9.196725311E0,3.805087280E-1,1.101138668E1
9.911895000E0,4.716392212E0,-1.021745270E1,-3.173400879E-2,1.125351955E1
9.921937000E0,3.312910767E0,-1.107606720E1,-4.258644104E-1,1.156875114E1
9.931980000E0,1.970202942E0,-1.182945053E1,-5.604345703E-1,1.200548568E1
9.942022000E0,8.385562134E-1,-1.222253311E1,-4.770579529E-1,1.226054960E1
9.952065000E0,1.716929626E-1,-1.209799210E1,-9.101074219E-2,1.209955264E1
9.962107000E0,1.616638184E-2,-1.174008636E1,5.635780334E-1,1.175361686E1
9.972149000E0,-1.001417542E-1,-1.145253433E1,1.139280853E0,1.150949746E1
9.982192000E0,-5.987548828E-2,-1.131736542E1,1.573228455E0,1.142634643E1
9.992234000E0,2.469863892E-2,-1.115929413E1,1.913171539E0,1.132213234E1
1.000227700E1,1.820214844E-1,-1.099927689E1,2.047592010E0,1.118972104E1
1.001231900E1,5.388793945E-1,-1.082893112E1,2.026036835E0,1.103000297E1
1.002236200E1,8.887019348E-1,-1.046892975E1,1.725162506E0,1.064727509E1
1.003240400E1,1.101559296E0,-9.956994324E0,1.108744354E0,1.007891278E1
1.004244600E1,1.211580505E0,-9.575886841E0,5.492079163E-1,9.667841819E0
1.005248900E1,1.297801208E0,-9.225016479E0,2.537223816E-1,9.319312854E0
1.006253100E1,1.299597473E0,-8.862320709E0,2.727328491E-1,8.961253548E0
1.007257400E1,1.286873932E0,-8.681347046E0,5.834866333E-1,8.795583420E0
1.008261600E1,1.564097443E0,-8.589138794E0,9.569599915E-1,8.782680596E0
1.009265900E1,2.142195282E0,-8.284821625E0,1.366208954E0,8.665667711E0
1.010270100E1,2.772983551E0,-7.678881683E0,1.523980865E0,8.305250108E0
1.011274300E1,3.237168274E0,-7.105873260E0,1.338067474E0,7.922317703E0
1.012278600E1,3.371439056E0,-6.575825500E0,9.611512756E-1,7.451972497E0
1.013282800E1,3.356170807E0,-5.979016571E0,6.447093201E-1,6.886811436E0
1.014287100E1,3.238964539E0,-5.546565857E0,4.171824646E-1,6.436561605E0
1.015291300E1,3.169209595E0,-5.246290283E0,4.257147217E-1,6.143995786E0
1.016295600E1,3.127296753E0,-4.975802765E0,6.063890076E-1,5.908155868E0
1.017299800E1,3.085832977E0,-4.757706299E0,8.538244629E-1,5.734731956E0
1.018304000E1,3.141068115E0,-4.583917694E0,1.094523926E0,5.663620128E0
1.019308300E1,3.268153839E0,-4.402195587E0,1.292562103E0,5.633016270E0
1.020312500E1,3.621868286E0,-4.193679199E0,1.360820160E0,5.705848457E0
1.021316800E1,3.778292999E0,-4.136348419E0,1.373693390E0,5.768180802E0
1.022321000E1,3.575913849E0,-4.146078186E0,1.475332031E0,5.670425803E0
1.023325300E1,3.365750885E0,-4.006268921E0,1.608704681E0,5.474157509E0
1.024329500E1,3.914659424E0,-3.592978363E0,1.770218811E0,5.600689829E0
1.025333700E1,4.888384552E0,-2.552941132E0,2.125729523E0,5.910375449E0
1.026338000E1,6.041885834E0,-1.322499847E0,2.401156769E0,6.634677393E0
1.027342200E1,7.477101288E0,-3.716770935E-1,2.664758606E0,7.946453672E0
1.028346500E1,9.315278778E0,4.990621948E-1,3.079995117E0,9.823942778E0
1.029350700E1,1.103984253E1,1.415157166E0,3.310515747E0,1.161207593E1
1.030355000E1,1.219693634E1,1.728305969E0,2.805915070E0,1.263429685E1
1.031359200E1,1.382001114E1,1.487007751E0,2.004631348E0,1.404359095E1
1.032363400E1,1.603495514E1,1.834584961E0,1.271605682E0,1.618957903E1
1.033367700E1,1.930251022E1,2.444566498E0,1.607656860E-1,1.945735470E1
1.034371900E1,2.370231079E1,3.855981445E0,-6.652166748E-1,2.402312725E1
1.035376200E1,2.892360306E1,6.407126312E0,-1.384620667E0,2.965709453E1
1.036380400E1,3.459635651E1,9.355545044E0,-2.725083160E0,3.594245658E1
1.037384700E1,4.058375565E1,1.142080032E1,-3.478167114E0,4.230335151E1
1.038388900E1,4.605233368E1,1.180250656E1,-3.467988281E0,4.766700684E1
1.039393100E1,5.073534531E1,9.872869263E0,-2.666854248E0,5.175578154E1
1.040397400E1,5.467649963E1,6.005212097E0,-9.223818970E-1,5.501302548E1
1.041401600E1,5.902869919E1,1.329235840E0,1.399888916E0,5.906025639E1
1.042405900E1,6.381619354E1,-3.146756287E0,2.508184204E0,6.394294036E1
1.043410100E1,6.665279480E1,-7.114405518E0,1.181493073E0,6.704182088E1
1.044414400E1,6.796646301E1,-1.064541275E1,-1.452579346E0,6.881042722E1
1.045418600E1,6.940706726E1,-1.417582123E1,-3.135379944E0,7.090927655E1
1.046422800E1,7.116037125E1,-1.756851608E1,-2.560126190E0,7.334170328E1
1.047427100E1,7.347410980E1,-2.072604996E1,1.169068909E-1,7.634151967E1
1.048431300E1,7.542590103E1,-2.350038071E1,3.388952637E0,7.907477120E1
1.049435600E1,7.649662445E1,-2.577534988E1,5.984405365E0,8.094390231E1
1.050439800E1,7.737799164E1,-2.667123688E1,6.670279083E0,8.211699635E1
1.051444100E1,7.788109543E1,-2.700354584E1,6.910230103E0,8.271884787E1
1.052448300E1,7.716767899E1,-2.734962616E1,7.602540436E0,8.222318014E1
1.053452500E1,7.423183411E1,-2.795227295E1,8.752299500E0,7.980161342E1
1.054456742E1,6.955376221E1,-2.865491180E1,1.011117371E1,7.590168405E1
1.055460942E1,6.326593781E1,-2.877735718E1,1.119042938E1,7.039844375E1
1.056465242E1,5.623311264E1,-2.820300156E1,1.175460617E1,6.399799231E1
1.057469442E1,4.926031265E1,-2.705069778E1,1.131152756E1,5.732599157E1
1.058473742E1,4.258718948E1,-2.593836090E1,1.038061340E1,5.093352932E1
1.059477942E1,3.583877289E1,-2.503319321E1,9.532477112E0,4.474311706E1
1.060482142E1,2.900084244E1,-2.395902695E1,8.868907013E0,3.864895013E1
1.061486442E1,2.289264450E1,-2.216545670E1,7.837851105E0,3.281482215E1
1.062490642E1,1.797282532E1,-2.057381653E1,6.776408386E0,2.814647557E1
1.063494942E1,1.344324463E1,-1.947330505E1,5.723348236E0,2.434516689E1
1.064499142E1,9.681118011E0,-1.835078934E1,4.295467529E0,2.118788702E1
1.065503442E1,7.342680817E0,-1.776116547E1,3.000211029E0,1.945186949E1
1.066507642E1,6.455176392E0,-1.754531433E1,1.999541931E0,1.880174261E1
1.067511842E1,5.464985504E0,-1.806084229E1,1.517095184E0,1.893044290E1
1.068516142E1,3.572920074E0,-2.011217651E1,1.902843018E0,2.051551153E1
1.069520342E1,-3.936813354E-2,-2.203867035E1,3.201542358E0,2.227003399E1
1.070524642E1,-4.184847565E0,-2.230511627E1,4.443659363E0,2.312525177E1
1.071528842E1,-6.197861481E0,-2.157957504E1,4.959486694E0,2.299321757E1
1.072533142E1,-5.678142242E0,-2.038236465E1,4.187541962E0,2.156890345E1
1.073537342E1,-3.903582458E0,-1.896660873E1,2.460433502E0,1.951983442E1
1.074541542E1,-1.966610413E0,-1.722902206E1,6.887178040E-1,1.735456972E1
1.075545842E1,-4.605921936E-1,-1.648851196E1,-1.082249451E-1,1.649529886E1
1.076550042E1,-2.198927307E-1,-1.648342255E1,8.996292114E-1,1.650941866E1
1.077554342E1,-1.032103729E0,-1.662682434E1,2.824925537E0,1.689664849E1
1.078558542E1,-1.822011108E0,-1.674358154E1,4.608316956E0,1.746149571E1
1.079562842E1,-2.345023499E0,-1.635229523E1,6.001320190E0,1.757590790E1
1.080567042E1,-2.408042450E0,-1.546523987E1,6.496939545E0,1.694646087E1
1.081571242E1,-2.395318909E0,-1.437026688E1,6.282435608E0,1.586540639E1
1.082575542E1,-2.589165802E0,-1.316691925E1,5.807473297E0,1.462184285E1
1.083579742E1,-2.572550354E0,-1.173634415E1,5.296436005E0,1.313057591E1
1.084584042E1,-2.533182220E0,-1.032343231E1,5.127587128E0,1.180179718E1
1.085588242E1,-2.646646271E0,-9.361233215E0,5.265300751E0,1.106168232E1
1.086592542E1,-2.697690125E0,-8.690927124E0,5.325026550E0,1.054351241E1
1.087596742E1,-2.659220123E0,-8.038583679E0,5.152285767E0,9.911424108E0
1.088600942E1,-2.579136658E0,-7.522307281E0,4.975952454E0,9.380679909E0
1.089605242E1,-2.419568481E0,-7.085216217E0,4.718936920E0,8.850026335E0
1.090609442E1,-2.326013031E0,-6.825506287E0,4.184847565E0,8.337315025E0
1.091613742E1,-2.611319733E0,-6.580465851E0,3.686982880E0,7.982190446E0
1.092617942E1,-2.931054840E0,-6.431375885E0,3.428919525E0,7.855645572E0
1.093622242E1,-3.188669128E0,-6.341712341E0,3.088227997E0,7.740935240E0
1.094626442E1,-2.902464294E0,-6.134543152E0,2.469414825E0,7.221836902E0
1.095630642E1,-2.519710236E0,-5.720803528E0,1.682351532E0,6.473549208E0
1.096634942E1,-2.399210815E0,-5.394332428E0,1.375938721E0,6.062032847E0
1.097639142E1,-2.241738281E0,-5.206622772E0,1.363664246E0,5.830428062E0
1.098643442E1,-2.055226135E0,-5.189258881E0,1.581161957E0,5.801071912E0
1.099647642E1,-1.764231262E0,-5.109624481E0,1.701960754E0,5.667225485E0
1.100651942E1,-1.463207245E0,-4.972210236E0,1.788181458E0,5.482831658E0
1.101656142E1,-1.360221405E0,-4.874014435E0,1.956132202E0,5.425188676E0
1.102660342E1,-1.180445251E0,-4.924160156E0,2.044149170E0,5.460709667E0
1.103664642E1,-9.419911194E-1,-4.911586304E0,1.839375000E0,5.328632815E0
1.104668842E1,-5.420228577E-1,-4.679419098E0,1.323847046E0,4.893191481E0
1.105673142E1,3.592529297E-3,-4.720134430E0,8.273295593E-1,4.792093086E0
1.106677342E1,3.929328918E-1,-4.948858795E0,8.089178467E-1,5.029905339E0
1.107681642E1,6.635700989E-1,-5.137167206E0,9.988728333E-1,5.275278108E0
1.108685842E1,1.212328949E0,-5.499114532E0,1.307980042E0,5.781073768E0
1.109690042E1,1.783840485E0,-5.846392365E0,1.484912109E0,6.290258701E0
1.110694342E1,2.270328827E0,-5.906417542E0,1.340163116E0,6.468090780E0
1.111698542E1,2.763253784E0,-5.930367737E0,1.241817627E0,6.659350118E0
1.112702842E1,3.313060455E0,-6.030808868E0,1.279988251E0,6.998956716E0
1.113707042E1,3.823648682E0,-6.086193695E0,1.037342834E0,7.262101837E0
1.114711242E1,4.134851532E0,-6.232289886E0,6.611750793E-1,7.508367792E0
1.115715542E1,3.888912964E0,-6.487509155E0,7.652087402E-1,7.602431420E0
1.116719742E1,3.435505829E0,-6.669830017E0,1.009500732E0,7.570232789E0
1.117724042E1,3.172951813E0,-7.094496918E0,1.486259308E0,7.912551829E0
1.118728242E1,3.410507812E0,-7.726033630E0,2.304008789E0,8.753948577E0
1.119732542E1,3.755690002E0,-8.013136597E0,3.120860138E0,9.383780342E0
1.120736742E1,4.363875275E0,-8.082143097E0,3.632795563E0,9.877330006E0
1.121740942E1,5.429958344E0,-8.106692047E0,3.710633698E0,1.043895138E1
1.122745242E1,7.155869293E0,-8.056396637E0,3.183729401E0,1.123601909E1
1.123749442E1,9.032217407E0,-7.116950226E0,2.309397583E0,1.172882130E1
1.124753742E1,1.047416885E1,-6.694828033E0,1.110241241E0,1.248044756E1
1.125757942E1,1.054407349E1,-9.089398499E0,5.382806396E-1,1.393141762E1
1.126762242E1,1.151226013E1,-1.442939392E1,9.563612366E-1,1.848388945E1
1.127766442E1,1.533096909E1,-2.009930328E1,3.277883606E0,2.549049090E1
1.128770642E1,2.216815109E1,-2.421319839E1,6.847211151E0,3.353491017E1
1.129774942E1,3.264246964E1,-2.678350342E1,9.921069031E0,4.337412235E1
1.130779142E1,4.529999817E1,-2.718481888E1,1.017344421E1,5.380151651E1
1.131783442E1,5.596936111E1,-2.566218521E1,6.397396545E0,6.190350407E1
1.132787642E1,6.113302322E1,-2.499846542E1,9.488768005E-1,6.605354017E1
1.133791942E1,6.068665146E1,-2.664414322E1,-2.818937988E0,6.633797136E1
1.134796142E1,5.982579163E1,-2.841481110E1,-3.491788788E0,6.632284239E1
1.135800342E1,6.231915665E1,-2.956427078E1,-3.080144806E0,6.904499029E1
1.136804642E1,6.574268738E1,-2.825464417E1,-2.931952972E0,7.161719213E1
1.137808842E1,6.559314835E1,-2.406440781E1,-5.873935089E0,7.011462006E1
1.138813142E1,6.193580383E1,-1.963511856E1,-1.045665527E1,6.580975093E1
1.139817342E1,5.783523102E1,-1.629691040E1,-1.397793274E1,6.169186202E1
1.140821642E1,5.245077805E1,-1.367256775E1,-1.579350723E1,5.645757785E1
1.141825842E1,4.524655930E1,-1.109343109E1,-1.456246719E1,4.880963831E1
1.142830042E1,3.969714935E1,-9.917476501E0,-1.155911270E1,4.251862055E1
1.143834342E1,3.573354172E1,-8.861572266E0,-8.701704712E0,3.783032027E1
1.144838542E1,3.203413467E1,-7.528294830E0,-6.998995514E0,3.364293307E1
1.145842842E1,2.893468002E1,-6.393504639E0,-5.644312592E0,3.016539200E1
1.146847042E1,2.605017838E1,-5.098248138E0,-4.754263458E0,2.696677490E1
1.147851342E1,2.296838699E1,-4.190685425E0,-4.879552917E0,2.385201631E1
1.148855542E1,2.029075516E1,-3.593128052E0,-4.479734344E0,2.108775317E1
1.149859742E1,1.849404144E1,-2.480042725E0,-4.088448029E0,1.910224039E1
1.150864042E1,1.786819290E1,-3.836521912E-1,-4.919819183E0,1.853710137E1
1.151868242E1,1.742182114E1,1.134041748E0,-5.511538696E0,1.830800265E1
1.152872542E1,1.679432602E1,3.015778656E0,-6.587950287E0,1.829058218E1
1.153876742E1,1.566537369E1,5.246290283E0,-1.143277542E1,2.009069059E1
1.154880912E1,1.598465973E1,5.905818787E0,-1.320209610E1,2.155651604E1
1.155885212E1,1.526226196E1,5.251679077E0,-8.870104523E0,1.841726167E1
1.156889412E1,1.281979111E1,5.437592468E0,-3.116369476E0,1.426976575E1
1.157893712E1,1.079884369E1,4.906047821E0,-4.749623108E-1,1.187054841E1
1.158897912E1,8.777297516E0,3.671415253E0,-2.896476746E-1,9.518620563E0
1.159902212E1,7.091203766E0,2.722538452E0,-7.030879211E-1,7.628349697E0
1.160906412E1,5.901926880E0,2.173180847E0,-1.012943573E0,6.370361887E0
1.161910612E1,5.348976746E0,1.363813934E0,-1.373992767E0,5.688532042E0
1.162914912E1,4.986879730E0,5.749543762E-1,-1.606010284E0,5.270560787E0
1.163919112E1,4.688400421E0,-8.068222046E-2,-1.808539124E0,5.025775750E0
1.164923412E1,4.942871246E0,-9.157955933E-1,-1.729204102E0,5.316089216E0
1.165927612E1,5.483696594E0,-1.863325195E0,-1.051114197E0,5.886233955E0
1.166931912E1,6.042634277E0,-2.560126190E0,-1.558259583E-1,6.564446424E0
1.167936112E1,6.706204376E0,-2.947370911E0,5.550457764E-1,7.346308477E0
1.168940312E1,7.286248169E0,-3.384761353E0,1.030906219E0,8.099925273E0
1.169944612E1,7.483687592E0,-4.125421143E0,1.254840546E0,8.637088883E0
1.170948812E1,7.519612885E0,-5.032534790E0,1.253343658E0,9.134651316E0
1.171953112E1,7.584278412E0,-6.024521942E0,1.532662811E0,9.806385621E0
1.172957312E1,7.574698334E0,-7.102729797E0,2.077829132E0,1.058972140E1
1.173961512E1,7.537874908E0,-8.333171082E0,2.854414215E0,1.159348864E1
1.174965812E1,7.300767975E0,-9.491312714E0,3.519780579E0,1.248098896E1
1.175970012E1,6.190676422E0,-1.018706589E1,3.694317627E0,1.247993464E1
1.176974312E1,4.588108978E0,-1.063643143E1,3.233426056E0,1.202661472E1
1.177978512E1,2.964734802E0,-1.121318207E1,2.601440277E0,1.188665622E1
1.178982812E1,1.554816742E0,-1.160401932E1,2.164498901E0,1.190612342E1
1.179987012E1,6.496490479E-1,-1.196940948E1,2.002386017E0,1.215312129E1
1.180991212E1,2.710862732E-1,-1.250724106E1,2.049088898E0,1.267688179E1
1.181995512E1,3.936813354E-2,-1.288086411E1,2.301314392E0,1.308488662E1
1.182999712E1,-1.719923401E-1,-1.316302734E1,2.478396149E0,1.339542152E1
1.184004012E1,-1.573228455E-1,-1.371747437E1,2.373913422E0,1.392225982E1
1.185008212E1,-5.007087708E-1,-1.433868256E1,2.142045593E0,1.450644291E1
1.186012512E1,-1.078207855E0,-1.433958069E1,1.793121185E0,1.449142471E1
1.187016712E1,-1.176852722E0,-1.393452301E1,1.207838287E0,1.403619561E1
1.188020912E1,-1.032852173E0,-1.338052505E1,5.337899780E-1,1.343094063E1
1.189025212E1,-6.697073364E-1,-1.270108795E1,1.727407837E-1,1.271990497E1
1.190029412E1,-8.816665649E-2,-1.189471481E1,2.267784119E-1,1.189720313E1
1.191033712E1,3.628454590E-1,-1.114342712E1,4.816983032E-1,1.115973378E1
1.192037912E1,7.482939148E-1,-1.047671356E1,7.604187012E-1,1.053089300E1
1.193042212E1,1.004111938E0,-9.657766571E0,1.048868866E0,9.766310553E0
1.194046412E1,1.131047974E0,-8.881031799E0,1.181792450E0,9.030427937E0
1.195050612E1,1.469943237E0,-8.216264191E0,1.144669647E0,8.424844151E0
1.196054912E1,1.956431580E0,-7.390281830E0,1.086740112E0,7.721715750E0
1.197059112E1,2.351011047E0,-6.362219696E0,8.640032959E-1,6.837513737E0
1.198063412E1,2.753074951E0,-5.353018341E0,6.755451965E-1,6.057275655E0
1.199067612E1,3.397185516E0,-4.518952789E0,5.225633240E-1,5.677576611E0
1.200071912E1,4.053271179E0,-3.708987122E0,4.011657715E-1,5.508768165E0
1.201076112E1,4.473447418E0,-2.822530518E0,3.483256531E-1,5.300918891E0
1.202080312E1,4.582570496E0,-2.306553497E0,2.888992310E-1,5.138443748E0
1.203084612E1,4.737498322E0,-2.467319183E0,2.323168945E-1,5.346543317E0
1.204088812E1,4.476291504E0,-2.754122772E0,4.188290405E-1,5.272361486E0
1.205093112E1,4.146976318E0,-2.909799042E0,6.712042236E-1,5.110269871E0
1.206097312E1,4.126319275E0,-3.181933136E0,1.028361511E0,5.311189757E0
1.207101512E1,3.869752808E0,-3.432212677E0,1.749262390E0,5.460310391E0
1.208105812E1,3.422782288E0,-3.698508911E0,2.486179962E0,5.619207912E0
1.209110012E1,3.301833801E0,-4.047133942E0,2.919828186E0,5.983878026E0
1.210114312E1,3.513343964E0,-4.458478546E0,3.120411072E0,6.477544443E0
1.211118512E1,3.772904205E0,-4.723726959E0,2.966082001E0,6.733947205E0
1.212122812E1,4.441114655E0,-4.606670380E0,2.451452179E0,6.852337495E0
1.213127012E1,4.475093994E0,-4.320764923E0,2.001338196E0,6.534587236E0
1.214131212E1,4.105512543E0,-4.528981934E0,1.768721924E0,6.363590797E0
1.215135512E1,4.905748444E0,-5.040767670E0,1.683099976E0,7.232463759E0
1.216139712E1,7.133865051E0,-4.443060608E0,1.479972382E0,8.533647308E0
1.217144012E1,9.510772247E0,-2.984493713E0,8.940907288E-1,1.000806623E1
1.218148212E1,1.237042557E1,-1.437011719E0,-5.777984619E-2,1.245374522E1
1.219152512E1,1.462967743E1,9.056167603E-2,-2.169438629E0,1.478993330E1
1.220156712E1,1.644644943E1,1.113085327E0,-5.244793396E0,1.729833852E1
1.221160912E1,1.969858658E1,1.570683746E0,-7.703580322E0,2.120958534E1
1.222165212E1,2.448323685E1,1.909429321E0,-9.347312164E0,2.627635918E1
1.223169412E1,2.907074707E1,2.766247559E0,-9.888885956E0,3.083099944E1
1.224173712E1,3.375121399E1,3.949387207E0,-1.006042923E1,3.543944612E1
1.225177912E1,3.905797852E1,4.498146057E0,-9.501341858E0,4.044792332E1
1.226182112E1,4.536795685E1,4.551584930E0,-8.410709839E0,4.636494876E1
1.227186412E1,5.294130798E1,3.530408478E0,-6.916966095E0,5.350785265E1
1.228190612E1,6.151308289E1,1.501976624E0,-3.646716614E0,6.163938548E1
1.229194913E1,6.900485367E1,-1.934277649E0,2.387535095E-1,6.903237112E1
1.230199112E1,7.341124054E1,-7.114405518E0,2.632276154E0,7.380212654E1
1.231203412E1,7.559160645E1,-1.347722397E1,3.475472717E0,7.686224978E1
1.232207612E1,7.705421494E1,-2.014870056E1,4.085154877E0,7.974967501E1
1.233211812E1,7.893969406E1,-2.565634735E1,4.598138123E0,8.313162053E1
1.234216112E1,8.196071182E1,-2.973087433E1,5.606441345E0,8.736655742E1
1.235220312E1,8.585321732E1,-3.308465012E1,7.840695190E0,9.234091995E1
1.236224613E1,9.022697205E1,-3.625894913E1,1.067999084E1,9.782474166E1
1.237228812E1,9.113184036E1,-4.003050613E1,1.331316513E1,1.004225777E2
1.238233012E1,8.881196457E1,-4.354864014E1,1.724818222E1,1.004069166E2
1.239237312E1,8.571385712E1,-4.531122482E1,2.088816284E1,9.917806080E1
1.240241512E1,8.046562088E1,-4.541885101E1,2.169453598E1,9.491175408E1
1.241245812E1,7.268510056E1,-4.508414703E1,2.033236862E1,8.791535344E1
1.242250012E1,6.408787857E1,-4.411311630E1,1.882455414E1,8.004740501E1
1.243254313E1,5.569318542E1,-4.217195297E1,1.768781799E1,7.206291297E1
1.244258512E1,4.725074158E1,-3.956587234E1,1.637160507E1,6.376613746E1
1.245262712E1,3.889391968E1,-3.685994934E1,1.483085907E1,5.559988520E1
1.246267012E1,3.113390671E1,-3.425401840E1,1.298010773E1,4.807432912E1
1.247271212E1,2.484847733E1,-3.198952744E1,1.082114731E1,4.192700705E1
1.248275512E1,1.985635849E1,-2.995301239E1,9.177565155E0,3.709023626E1
1.249279712E1,1.537258255E1,-2.796245178E1,9.006321259E0,3.315612804E1
1.250284013E1,1.124761047E1,-2.678365311E1,9.430988159E0,3.054204238E1
1.251288212E1,7.102580109E0,-2.599793701E1,8.337811432E0,2.821096369E1
1.252292412E1,2.787054291E0,-2.653636734E1,6.239774323E0,2.740221244E1
1.253296712E1,-1.448837128E0,-2.774210999E1,4.229754181E0,2.810008213E1
1.254300912E1,-5.368436279E0,-2.747207153E1,3.266956329E0,2.818169310E1
1.255305292E1,-7.065756683E0,-2.666584808E1,3.383563843E0,2.779282058E1
1.256309492E1,-6.131250000E0,-2.528107773E1,3.229983215E0,2.621369698E1
1.257313792E1,-3.923491058E0,-2.314442093E1,2.646047516E0,2.362328448E1
1.258317992E1,-1.685345306E0,-2.171459427E1,2.555635529E0,2.192932434E1
1.259322192E1,-5.833369446E-1,-2.092259125E1,2.771935730E0,2.111347281E1
1.260326492E1,-5.951623535E-1,-1.996188904E1,3.218008118E0,2.022836643E1
1.261330692E1,-1.034049683E0,-1.920805664E1,4.060755615E0,1.965981777E1
1.262334992E1,-1.679357758E0,-1.854628281E1,5.325026550E0,1.936855070E1
1.263339192E1,-2.459535370E0,-1.755489441E1,6.397546234E0,1.884548301E1
1.264343492E1,-3.107088776E0,-1.620500153E1,6.822362823E0,1.785499117E1
1.265347692E1,-3.719165955E0,-1.476843887E1,6.693929901E0,1.663573502E1
1.266351892E1,-4.547842712E0,-1.338756042E1,5.990542603E0,1.535565851E1
1.267356192E1,-5.148244171E0,-1.212358887E1,5.235662384E0,1.417384865E1
1.268360392E1,-5.428162079E0,-1.120494919E1,5.284460907E0,1.352558158E1
1.269364692E1,-5.382956085E0,-1.031445099E1,5.701793060E0,1.295664152E1
1.270368892E1,-4.918471985E0,-9.522897034E0,5.949228516E0,1.225847684E1
1.271373192E1,-4.223766632E0,-8.945397949E0,5.964197388E0,1.155127696E1
1.272377392E1,-2.932402039E0,-8.103698273E0,5.605692902E0,1.028069552E1
1.273381592E1,-1.249451752E0,-6.637048187E0,4.712799683E0,8.235412507E0
1.274385892E1,3.787124634E-2,-5.413043518E0,3.463946686E0,6.426616606E0
1.275390092E1,1.538800049E-1,-4.833448792E0,2.425256653E0,5.409970065E0
1.276394392E1,-3.511697388E-1,-4.603377228E0,1.810485077E0,4.959058207E0
1.277398592E1,-8.617579651E-1,-4.479434967E0,1.712738342E0,4.872518552E0
1.278402792E1,-1.071920929E0,-4.402944031E0,2.128573608E0,5.006571304E0
1.279407092E1,-1.155596924E0,-4.431085510E0,2.574945374E0,5.253595600E0
1.280411292E1,-1.272952881E0,-4.705315247E0,2.845582581E0,5.644266191E0
1.281415592E1,-1.337768097E0,-5.006638641E0,2.900967407E0,5.938995358E0
1.282419792E1,-9.720785522E-1,-4.916675720E0,2.625839539E0,5.658062401E0
1.283424092E1,2.872526550E-1,-4.432881775E0,2.225272522E0,4.968379285E0
1.284428292E1,1.674867096E0,-3.269650726E0,1.793869629E0,4.088247046E0
1.285432492E1,2.279310150E0,-2.628384247E0,1.256187744E0,3.698873634E0
1.286436792E1,2.168390808E0,-2.652933197E0,9.157955933E-1,3.546639933E0
1.287440992E1,1.870360565E0,-3.157683563E0,9.375004578E-1,3.787891397E0
1.288445292E1,1.750609589E0,-4.099075928E0,1.553619232E0,4.720253183E0
1.289449492E1,1.737436981E0,-4.803361359E0,2.552192688E0,5.710048609E0
1.290453692E1,1.948797455E0,-5.033432922E0,3.473377075E0,6.418536189E0
1.291457992E1,2.465522919E0,-5.009482727E0,4.174069977E0,6.971124775E0
1.292462192E1,3.431164856E0,-4.848417664E0,4.686304779E0,7.565811165E0
1.293466492E1,4.762795715E0,-4.203708344E0,4.833598480E0,7.982422009E0
1.294470692E1,5.855074310E0,-3.216361542E0,4.493056641E0,8.050741253E0
1.295474992E1,6.662195892E0,-2.407294006E0,3.751498718E0,8.015838145E0
1.296479192E1,7.098388824E0,-1.879042511E0,3.031046906E0,7.943876258E0
1.297483392E1,6.685547333E0,-1.761087799E0,2.548600159E0,7.368401193E0
1.298487692E1,5.536237335E0,-1.963466949E0,2.086960144E0,6.233821375E0
1.299491892E1,3.924089813E0,-2.376607819E0,1.886826324E0,4.960530129E0
1.300496192E1,2.286794586E0,-2.711461487E0,2.030826874E0,4.087262001E0
1.301500392E1,5.345384216E-1,-3.002306671E0,2.115700378E0,3.711571738E0
1.302504692E1,-1.222956848E0,-3.249143372E0,2.301015015E0,4.165000144E0
1.303508892E1,-2.261048126E0,-3.272794189E0,2.322121124E0,4.606057637E0
1.304513092E1,-2.472857666E0,-3.195105743E0,2.313888245E0,4.655942929E0
1.305517392E1,-2.975362701E0,-2.875819702E0,2.414179688E0,4.790760454E0
1.306521592E1,-3.727398834E0,-2.861449585E0,2.283052368E0,5.224339567E0
1.307525892E1,-5.865851898E0,-4.140839081E0,2.429597626E0,7.580086504E0
1.308530092E1,-8.429570618E0,-6.956932983E0,2.673141174E0,1.125176702E1
1.309534292E1,-7.937244415E0,-1.082219513E1,3.054098969E0,1.376398477E1
1.310538592E1,-4.462370453E0,-1.254630981E1,4.179009705E0,1.395660281E1
1.311542792E1,2.154020691E0,-1.428494431E1,7.275620270E0,1.617510709E1
1.312547092E1,1.558768524E1,-1.607477234E1,1.202778809E1,2.541735476E1
1.313551292E1,3.314422623E1,-1.546538956E1,1.450199295E1,3.934495909E1
1.314555592E1,4.738695831E1,-1.554652084E1,1.208092758E1,5.131439310E1
1.315559792E1,5.550921799E1,-1.851829102E1,4.883145447E0,5.872006040E1
1.316563992E1,5.930697052E1,-2.242232254E1,-1.886676636E0,6.343214366E1
1.317568292E1,6.205465668E1,-2.442141541E1,-3.843407593E0,6.679788715E1
1.318572492E1,6.567847092E1,-2.416200485E1,-2.215842133E0,7.001695492E1
1.319576792E1,6.901712814E1,-2.468456818E1,4.948709106E-1,7.330031910E1
1.320580992E1,6.845025696E1,-2.551055054E1,7.201524353E-1,7.305302517E1
1.321585292E1,6.595614349E1,-2.480551666E1,-3.124602356E0,7.053573322E1
1.322589492E1,6.436734741E1,-2.102183487E1,-9.739047546E0,6.840995543E1
1.323593692E1,5.952985703E1,-1.627580429E1,-1.446801361E1,6.338792551E1
1.324597992E1,5.302423553E1,-1.381821487E1,-1.536479874E1,5.690860793E1
1.325602192E1,4.689148865E1,-1.180789536E1,-1.262444733E1,4.997614201E1
1.326606492E1,4.279106552E1,-8.798253937E0,-8.298892365E0,4.446747323E1
1.327610692E1,3.953324020E1,-5.609135742E0,-3.902384949E0,4.011942289E1
1.328614892E1,3.549493790E1,-2.156116333E0,-8.831634521E-2,3.556047319E1
1.329619192E1,3.162069443E1,5.587879944E-1,1.506018219E0,3.166146950E1
1.330623392E1,2.762625092E1,1.997296600E0,6.719526672E-1,2.770650562E1
1.331627692E1,2.362641861E1,2.794089661E0,-1.039737854E0,2.381377014E1
1.332631892E1,2.046065186E1,3.403921509E0,-2.708168335E0,2.091791413E1
1.333636192E1,1.787103699E1,4.079616394E0,-4.222569122E0,1.881082994E1
1.334640392E1,1.590472595E1,4.861889648E0,-6.705455933E0,1.793213367E1
1.335644592E1,1.427356796E1,5.298681335E0,-8.999285889E0,1.768609377E1
1.336648892E1,1.288774979E1,6.019582214E0,-1.352796844E1,1.962996166E1
1.337653092E1,1.276844788E1,6.299649811E0,-1.575009750E1,2.123168435E1
1.338657392E1,1.194216614E1,4.929998016E0,-1.053569092E1,1.667096265E1
1.339661592E1,1.046982788E1,3.757336578E0,-5.743107147E0,1.251871214E1
1.340665792E1,9.402996368E0,2.624492340E0,-2.799927521E0,1.015597828E1
1.341670092E1,8.182135162E0,1.514550476E0,-2.031575317E0,8.565541269E0
1.342674292E1,7.028783569E0,5.679190063E-1,-1.663640442E0,7.245276391E0
1.343678592E1,6.207890625E0,-3.637435913E-1,-1.409169617E0,6.376203762E0
1.344682792E1,6.061944122E0,-1.387913818E0,-1.182840271E0,6.330290863E0
1.345686992E1,6.700965271E0,-2.551593933E0,-7.846682739E-1,7.213131876E0
1.346691292E1,7.755671997E0,-3.717519379E0,-2.050735474E-1,8.603049088E0
1.347695492E1,9.219178619E0,-4.784201202E0,3.555107117E-1,1.039270049E1
1.348699792E1,1.071112610E1,-5.861660614E0,7.041357422E-1,1.223041678E1
1.349703992E1,1.135314102E1,-6.661148071E0,9.494755554E-1,1.319720457E1
1.350708292E1,1.103699844E1,-7.272177429E0,8.265811157E-1,1.324322980E1
1.351712492E1,1.023406815E1,-7.880063324E0,7.358697510E-1,1.293727379E1
1.352716692E1,9.312883759E0,-8.436007233E0,1.017284546E0,1.260677952E1
1.353720992E1,8.490194550E0,-8.971593475E0,1.580862579E0,1.245279163E1
1.354725204E1,7.805069275E0,-9.714049530E0,2.247576141E0,1.266228507E1
1.355729504E1,7.293732605E0,-1.047671356E1,3.034938812E0,1.312139154E1
1.356733704E1,6.732100525E0,-1.090542206E1,3.827540588E0,1.337533083E1
1.357738004E1,5.899980927E0,-1.089928482E1,4.164190521E0,1.307458096E1
1.358742204E1,4.920417938E0,-1.077279785E1,3.904480591E0,1.247031094E1
1.359746404E1,3.930676117E0,-1.056098831E1,3.526516571E0,1.180766734E1
1.360750704E1,3.158282318E0,-1.038764877E1,3.146606598E0,1.130394300E1
1.361754904E1,2.527943115E0,-1.018601807E1,2.770289154E0,1.085449043E1
1.362759204E1,2.210004272E0,-9.911788330E0,2.431992645E0,1.044232996E1
1.363763404E1,2.401905212E0,-9.825567627E0,2.056124268E0,1.032175251E1
1.364767604E1,2.706521759E0,-9.848470001E0,1.675465851E0,1.035011146E1
1.365771904E1,2.020797729E0,-9.967921600E0,7.646099854E-1,1.019939767E1
1.366776104E1,1.322649536E0,-1.007075775E1,-2.312690735E-1,1.015987445E1
1.367780404E1,1.181792450E0,-9.839338989E0,-5.493576050E-1,9.925271730E0
1.368784604E1,1.459614716E0,-9.632469177E0,-4.867877197E-1,9.754583530E0
1.369788904E1,1.957030334E0,-9.448651428E0,-1.802252197E-1,9.650878855E0
1.370793104E1,2.316882019E0,-9.160051575E0,2.920426941E-1,9.453029994E0
1.371797304E1,2.783162384E0,-9.018595734E0,6.706054688E-1,9.462070257E0
1.372801604E1,3.340902557E0,-8.873846741E0,1.100062408E0,9.545518487E0
1.373805804E1,3.687581635E0,-8.681796112E0,1.491199036E0,9.549634370E0
1.374810104E1,3.901786194E0,-8.682993622E0,1.751657410E0,9.679184750E0
1.375814304E1,4.051025848E0,-8.709189148E0,1.948498077E0,9.800889286E0
1.376818504E1,4.182901611E0,-8.397686920E0,2.016756134E0,9.596099041E0
1.377822804E1,4.226161652E0,-7.848329315E0,1.796564026E0,9.093093953E0
1.378827004E1,4.132905579E0,-7.390431519E0,1.449136505E0,8.590656736E0
1.379831304E1,3.790567474E0,-7.105424194E0,1.069525909E0,8.123997811E0
1.380835504E1,3.156186676E0,-6.888974304E0,7.053332520E-1,7.610320381E0
1.381839804E1,2.738704834E0,-6.542594604E0,3.614982605E-1,7.101882097E0
1.382844004E1,2.842738495E0,-6.168372803E0,1.631607056E-1,6.793865365E0
1.383848204E1,3.157833252E0,-5.730982361E0,1.996847534E-1,6.546445117E0
1.384852504E1,3.326682129E0,-5.390141144E0,3.475772095E-1,6.343598778E0
1.385856704E1,3.226989441E0,-5.190157013E0,4.541555786E-1,6.128413168E0
1.386861004E1,3.291804657E0,-5.134472809E0,5.084925842E-1,6.120241305E0
1.387865204E1,3.296145630E0,-4.891827393E0,3.100053406E-1,5.906831178E0
1.388869404E1,3.207080841E0,-4.538262634E0,4.071533203E-2,5.557234294E0
1.389873704E1,3.278332672E0,-4.313879242E0,-2.195933533E-1,5.422659907E0
1.390877904E1,3.286565552E0,-4.184548187E0,-3.124003601E-1,5.330061036E0
1.391882204E1,3.041375427E0,-4.097429352E0,-1.628613281E-1,5.105430011E0
1.392886404E1,2.823578339E0,-4.120780792E0,1.257385254E-1,4.996922968E0
1.393890704E1,2.670746155E0,-4.273762665E0,5.023553467E-1,5.064611854E0
1.394894904E1,2.875520325E0,-4.618645477E0,6.996450806E-1,5.485435846E0
1.395899104E1,3.516936493E0,-5.309159546E0,4.755610657E-1,6.386092366E0
1.396903404E1,3.834426270E0,-5.725892944E0,-1.333726501E-1,6.892493242E0
1.397907604E1,3.844305725E0,-5.902974701E0,-8.704399109E-1,7.097990030E0
1.398911904E1,3.638932800E0,-6.127358093E0,-1.419797516E0,7.266510450E0
1.399916104E1,3.312910767E0,-6.433172150E0,-1.501377869E0,7.390210901E0
1.400920304E1,3.151546326E0,-6.897656250E0,-9.865983582E-1,7.647436322E0
1.401924604E1,3.249592438E0,-7.328759766E0,-2.978805542E-2,8.016948175E0
1.402928804E1,3.668122101E0,-7.772137756E0,9.894424438E-1,8.651025454E0
1.403933104E1,4.149970093E0,-8.168363800E0,1.728455658E0,9.323731973E0
1.404937304E1,4.749024353E0,-8.158484344E0,1.976789246E0,9.644780704E0
1.405941604E1,5.614674225E0,-7.749085693E0,1.813927917E0,9.739775676E0
1.406945804E1,6.157894592E0,-6.996899872E0,1.188229065E0,9.396178049E0
1.407950004E1,6.439010010E0,-6.557563477E0,5.731581116E-1,9.208202804E0
1.408954304E1,6.905739441E0,-6.658154297E0,2.411485291E-1,9.595749501E0
1.409958504E1,7.852071533E0,-7.093598785E0,1.528321838E-1,1.058288849E1
1.410962804E1,8.959319000E0,-7.450456696E0,3.065625000E-1,1.165644382E1
1.411967004E1,9.736353149E0,-8.075407104E0,9.458830261E-1,1.268477305E1
1.412971204E1,1.012928604E1,-8.402476959E0,1.792971497E0,1.328227396E1
1.413975504E1,1.021430923E1,-8.125702515E0,2.397264862E0,1.327049484E1
1.414979704E1,1.039483383E1,-7.755671997E0,2.786605225E0,1.326530012E1
1.415984004E1,1.066277664E1,-7.681875458E0,2.794688416E0,1.343563544E1
1.416988204E1,1.174921738E1,-7.870183868E0,2.371967468E0,1.433911199E1
1.417992504E1,1.349788101E1,-7.725285187E0,1.685494995E0,1.564332818E1
1.418996704E1,1.490555374E1,-7.828121338E0,1.062340851E0,1.686960533E1
1.420000904E1,1.718172043E1,-8.468789062E0,1.375639343E-1,1.915596066E1
1.421005204E1,1.977807129E1,-9.045090637E0,-1.085243225E0,2.177529613E1
1.422009404E1,2.233774841E1,-8.938063202E0,-2.409539337E0,2.417994743E1
1.423013704E1,2.542986832E1,-8.427474976E0,-3.891607361E0,2.707111274E1
1.424017904E1,2.909799042E1,-7.812853088E0,-5.358706512E0,3.060146165E1
1.425022104E1,3.426120346E1,-7.109316101E0,-6.849755859E0,3.565517625E1
1.426026404E1,3.961272491E1,-7.539222107E0,-8.480165405E0,4.120583758E1
1.427030604E1,4.326033966E1,-8.995693359E0,-9.099727020E0,4.511301939E1
1.428034904E1,4.665288483E1,-1.138412659E1,-7.762857056E0,4.864516369E1
1.429039104E1,4.948589355E1,-1.439661209E1,-4.784350891E0,5.175911624E1
1.430043404E1,5.127287750E1,-1.742331802E1,-1.320104828E0,5.416846550E1
1.431047604E1,5.251963486E1,-2.046903442E1,1.572929077E0,5.638942739E1
1.432051804E1,5.405603989E1,-2.355262207E1,3.453318787E0,5.906527631E1
1.433056104E1,5.562313110E1,-2.668680450E1,3.941004639E0,6.181949341E1
1.434060304E1,5.726177353E1,-2.950828720E1,3.141666870E0,6.449433922E1
1.435064604E1,5.943345749E1,-3.124213165E1,1.503772888E0,6.716150677E1
1.436068804E1,6.023698654E1,-3.258813263E1,2.894979858E-1,6.848769776E1
1.437073004E1,5.955126251E1,-3.466626114E1,2.425106964E0,6.894913830E1
1.438077304E1,5.873051926E1,-3.691862732E1,7.088359680E0,6.973165550E1
1.439081504E1,5.715130325E1,-3.863450912E1,1.163006516E1,6.995823879E1
1.440085804E1,5.356057022E1,-4.021147980E1,1.519460266E1,6.867731605E1
1.441090004E1,4.836277908E1,-4.034155930E1,1.739427841E1,6.533728437E1
1.442094304E1,4.314133713E1,-3.834216705E1,1.768721924E1,6.036666686E1
1.443098504E1,3.872566956E1,-3.503778854E1,1.598810257E1,5.461633027E1
1.444102704E1,3.409010925E1,-3.171933929E1,1.319865326E1,4.839893059E1
1.445107004E1,2.934018677E1,-2.861629211E1,1.104912323E1,4.244787224E1
1.446111204E1,2.503992920E1,-2.554707458E1,9.774823151E0,3.708366543E1
1.447115504E1,2.120640106E1,-2.281241135E1,8.801996155E0,3.236653664E1
1.448119704E1,1.807132050E1,-2.129531616E1,7.786208496E0,2.899462291E1
1.449124004E1,1.467667969E1,-2.094145203E1,7.958350525E0,2.678217099E1
1.450128204E1,1.045411057E1,-2.075164673E1,9.225315857E0,2.500051444E1
1.451132404E1,7.050338745E0,-2.061932190E1,1.018197647E1,2.405278273E1
1.452136704E1,4.391867065E0,-2.013807266E1,1.026370651E1,2.302551060E1
1.453140904E1,2.453098755E0,-1.904085434E1,9.199419708E0,2.128852157E1
1.454145204E1,1.870510254E0,-1.818298828E1,7.318131866E0,1.968946229E1
1.455149312E1,2.968477020E0,-1.841755051E1,5.545368347E0,1.946199200E1
1.456153512E1,4.669988708E0,-1.970876541E1,4.842130737E0,2.082523610E1
1.457157813E1,4.234394531E0,-2.118125336E1,4.229604492E0,2.201056894E1
1.458162012E1,2.388882294E0,-2.297811676E1,3.624412994E0,2.338454571E1
1.459166312E1,-5.463638306E-2,-2.556862976E1,3.907624054E0,2.586556280E1
1.460170512E1,-3.647015991E0,-2.603895172E1,5.210514679E0,2.680442493E1
1.461174812E1,-6.056854706E0,-2.409689026E1,6.354585571E0,2.564617646E1
1.462179012E1,-5.702840881E0,-2.111389343E1,7.026089172E0,2.297139132E1
1.463183212E1,-3.859424286E0,-1.804722061E1,7.468569031E0,1.990921523E1
1.464187513E1,-2.172731781E0,-1.554502396E1,7.691305847E0,1.747926540E1
1.465191712E1,-5.168751526E-1,-1.418240753E1,7.839647369E0,1.621320185E1
1.466196012E1,-3.992198181E-1,-1.354667953E1,7.535330200E0,1.550655036E1
1.467200212E1,-1.801054688E0,-1.331451233E1,6.649172974E0,1.499104859E1
1.468204412E1,-3.248993683E0,-1.333711533E1,5.639971619E0,1.484061606E1
1.469208712E1,-4.598138123E0,-1.334130661E1,4.541705475E0,1.482431870E1
1.470212912E1,-5.700146484E0,-1.308039917E1,3.478616180E0,1.468636384E1
1.471217213E1,-6.201004944E0,-1.255020172E1,2.571203156E0,1.423274785E1
1.472221412E1,-6.081703033E0,-1.180460220E1,1.894610138E0,1.341362339E1
1.473225712E1,-5.271437988E0,-1.086934708E1,1.589694214E0,1.218432977E1
1.474229912E1,-4.007466431E0,-9.738448792E0,1.727108459E0,1.067146080E1
1.475234112E1,-2.765798492E0,-8.704249420E0,1.858984222E0,9.320376688E0
1.476238412E1,-1.939965820E0,-7.589517517E0,1.591041412E0,7.993475859E0
1.477242612E1,-1.687440948E0,-6.522236938E0,9.580078125E-1,6.804763817E0
1.478246912E1,-1.813628540E0,-5.788462830E0,2.811154175E-1,6.072444013E0
1.479251112E1,-2.283351746E0,-5.341641998E0,-2.392025757E-1,5.814125240E0
1.480255312E1,-3.068768463E0,-5.254972229E0,-4.939727783E-1,6.105414164E0
1.481259612E1,-3.686833191E0,-5.370531921E0,-3.614982605E-1,6.524264946E0
1.482263812E1,-4.035907288E0,-5.557942200E0,2.088157654E-1,6.871890071E0
1.483268112E1,-3.937561798E0,-5.671855316E0,1.000519409E0,6.976773949E0
1.484272312E1,-3.350931702E0,-5.707481232E0,1.698068848E0,6.832826874E0
1.485276512E1,-2.564916229E0,-5.745651855E0,2.246228943E0,6.681081871E0
1.486280812E1,-1.583257599E0,-5.594466248E0,2.599344635E0,6.368779298E0
1.487285012E1,-6.083349609E-1,-5.428760834E0,2.949616241E0,6.208200350E0
1.488289312E1,1.020877075E-1,-5.164111176E0,3.445534973E0,6.208878915E0
1.489293512E1,6.951544189E-1,-4.885839844E0,3.758683777E0,6.203416347E0
1.490297812E1,1.062041473E0,-4.630171509E0,3.962410126E0,6.186041893E0
1.491302012E1,1.083147583E0,-4.461472321E0,4.083508301E0,6.144345693E0
1.492306212E1,9.139993286E-1,-4.382885742E0,3.901786194E0,5.938772407E0
1.493310512E1,6.834786987E-1,-4.399800568E0,3.683390350E0,5.778646264E0
1.494314712E1,3.814068604E-1,-4.456981659E0,3.430117035E0,5.637008034E0
1.495319012E1,2.177970886E-1,-4.392016754E0,3.216660919E0,5.448316640E0
1.496323212E1,4.489164734E-1,-4.006568298E0,2.956352234E0,4.999413372E0
1.497327412E1,7.580236816E-1,-3.551514587E0,2.744542694E0,4.551963353E0
1.498331713E1,1.061742096E0,-3.196153564E0,2.590063934E0,4.248661562E0
1.499335912E1,1.494941254E0,-2.950514374E0,2.417622528E0,4.096984636E0
1.500340212E1,2.178569641E0,-2.637066193E0,2.156116333E0,4.043404683E0
1.501344412E1,2.565814362E0,-2.147434387E0,1.993704071E0,3.894834234E0
1.502348712E1,3.043620758E0,-1.671723633E0,2.053729248E0,4.034363772E0
1.503352912E1,3.727698212E0,-1.614392853E0,2.148033142E0,4.595219758E0
1.504357112E1,5.090464325E0,-1.800904999E0,2.168839874E0,5.818930508E0
1.505361413E1,6.148464203E0,-2.576292572E0,2.810256042E0,7.234530703E0
1.506365612E1,5.280569000E0,-4.630021820E0,3.271147614E0,7.747381347E0
1.507369912E1,4.555027771E0,-7.517517242E0,3.822451172E0,9.585013117E0
1.508374112E1,5.214406586E0,-9.888885956E0,5.073250122E0,1.227672466E1
1.509378312E1,7.548951874E0,-1.048779053E1,5.791157227E0,1.416043525E1
1.510382612E1,1.258043884E1,-1.060379929E1,5.937403107E0,1.749173395E1
1.511386812E1,2.142719193E1,-1.189696014E1,4.202211456E0,2.486605710E1
1.512391113E1,3.242422348E1,-1.274105484E1,1.788480835E0,3.488356935E1
1.513395312E1,4.148024139E1,-1.316482361E1,-6.810836792E-2,4.351927901E1
1.514399612E1,4.811863678E1,-1.458057953E1,-5.321434021E-1,5.028200157E1
1.515403812E1,5.459716461E1,-1.561223419E1,1.817969513E0,5.681458662E1
1.516408012E1,6.126055801E1,-1.563034653E1,3.873944092E0,6.334170146E1
1.517412312E1,6.714407318E1,-1.430934357E1,2.533182220E0,6.869862363E1
1.518416512E1,6.852779572E1,-1.117995117E1,-2.477348328E0,6.947796304E1
1.519420813E1,6.486566116E1,-8.247698822E0,-7.195387115E0,6.578261267E1
1.520425012E1,5.975918015E1,-6.434519348E0,-1.045725403E1,6.100751440E1
1.521429212E1,5.394976089E1,-5.265450439E0,-1.190654022E1,5.549835465E1
1.522433512E1,4.740297501E1,-4.646637268E0,-1.030636780E1,4.873247885E1
1.523437712E1,4.242223251E1,-3.966751099E0,-6.730004883E0,4.313552934E1
1.524442012E1,3.924149689E1,-2.545157318E0,-4.211941223E0,3.954887296E1
1.525446212E1,3.608366364E1,-7.517367554E-1,-3.763623505E0,3.628719817E1
1.526450412E1,3.300157288E1,1.005459137E0,-4.470753021E0,3.331819913E1
1.527454712E1,3.029714676E1,2.174827423E0,-6.610702972E0,3.108614434E1
1.528458912E1,2.733735168E1,2.852318573E0,-8.757388916E0,2.884715547E1
1.529463212E1,2.466406082E1,3.905528412E0,-9.399852905E0,2.668194676E1
1.530467412E1,2.286195831E1,5.208718414E0,-8.874445496E0,2.507101251E1
1.531471712E1,2.146641037E1,5.849386139E0,-7.800428925E0,2.357686968E1
1.532475912E1,2.007340714E1,5.811963959E0,-6.317612457E0,2.183192218E1
1.533480112E1,1.840812012E1,5.396877136E0,-4.559368744E0,1.971732772E1
1.534484412E1,1.669613022E1,4.867727509E0,-2.767445068E0,1.761006211E1
1.535488612E1,1.516197052E1,4.109703827E0,-1.344953156E0,1.576654415E1
1.536492912E1,1.386476807E1,3.261268158E0,-2.258802795E-1,1.424495298E1
1.537497112E1,1.257250534E1,2.504741364E0,7.265890503E-1,1.284015387E1
1.538501312E1,1.149863846E1,1.858684845E0,1.449884949E0,1.173778353E1
1.539505612E1,1.078956299E1,1.193917236E0,1.864822083E0,1.101443005E1
1.540509812E1,1.053060150E1,5.195695496E-1,1.997296600E0,1.073092327E1
1.541514112E1,1.068043991E1,-9.520202637E-2,1.922003174E0,1.085241707E1
1.542518312E1,1.096140564E1,-5.038522339E-1,1.445094910E0,1.106772696E1
1.543522512E1,1.115645004E1,-1.028511200E0,6.150709534E-1,1.122062944E1
1.544526812E1,1.093042007E1,-1.653012543E0,-6.556365967E-2,1.105490082E1
1.545531012E1,1.063538361E1,-2.211052094E0,-5.532495117E-1,1.087686631E1
1.546535312E1,1.059915894E1,-2.922971649E0,-6.703060913E-1,1.101522781E1
1.547539512E1,1.051278854E1,-3.774550781E0,-6.203100586E-1,1.118707920E1
1.548543812E1,1.068058960E1,-4.480183411E0,-5.254074097E-2,1.158230539E1
1.549548012E1,1.110735214E1,-5.184468842E0,4.902305603E-1,1.226753092E1
1.550552212E1,1.152722900E1,-5.725593567E0,7.777825928E-1,1.289435442E1
1.551556512E1,1.168440216E1,-6.328689423E0,7.848179626E-1,1.331140499E1
1.552560712E1,1.124102417E1,-6.869215393E0,5.719606018E-1,1.318612466E1
1.553565013E1,1.019963974E1,-7.294181671E0,3.385958862E-1,1.254401787E1
1.554569212E1,8.941506042E0,-7.632627869E0,3.239263916E-1,1.176063207E1
1.555573462E1,7.765401764E0,-7.456444244E0,-4.815486145E-1,1.077645185E1
1.556577762E1,7.547305298E0,-7.092550964E0,-9.184899902E-1,1.039758243E1
1.557581962E1,7.423063660E0,-8.097111969E0,4.278103638E-1,1.099309411E1
1.558586262E1,6.744075623E0,-8.593330078E0,1.152154083E0,1.098432232E1
1.559590462E1,6.088738403E0,-9.138496399E0,1.198707275E0,1.104634559E1
1.560594762E1,5.557343445E0,-9.608069916E0,1.598675537E0,1.121404642E1
1.561598962E1,4.967120819E0,-9.702972565E0,1.844464417E0,1.105540659E1
1.562603162E1,4.454137573E0,-9.921967163E0,2.011666718E0,1.106036061E1
1.563607462E1,3.779490509E0,-1.023691223E1,1.952240295E0,1.108558355E1
1.564611662E1,2.768792267E0,-1.055455170E1,1.537153473E0,1.101941981E1
1.565615962E1,2.068548431E0,-1.056068893E1,1.163829803E0,1.082411859E1
1.566620162E1,2.014660492E0,-1.041204803E1,9.349557495E-1,1.064630187E1
1.567624362E1,2.422113190E0,-1.032028885E1,6.307882690E-1,1.061945799E1
1.568628662E1,2.721640320E0,-9.864337006E0,4.180805969E-1,1.024144824E1
1.569632862E1,3.021017761E0,-9.261540527E0,4.215234375E-1,9.750916022E0
1.570637162E1,3.288511505E0,-8.858728180E0,3.903881836E-1,9.457471957E0
1.571641362E1,3.318598938E0,-8.738228760E0,3.264710999E-1,9.352877854E0
1.572645662E1,3.296894073E0,-8.784332886E0,2.600093079E-1,9.386246301E0
1.573649862E1,3.437900848E0,-8.849447479E0,3.243754578E-1,9.499321153E0
1.574654062E1,3.609444122E0,-8.901389465E0,5.292993164E-1,9.619926146E0
1.575658362E1,3.772006073E0,-8.713679810E0,6.701564026E-1,9.518684533E0
1.576662562E1,3.865711212E0,-8.555608521E0,6.530918884E-1,9.411093951E0
1.577666862E1,3.861220551E0,-8.507708130E0,6.491999817E-1,9.365446192E0
1.578671062E1,3.879332886E0,-8.336015167E0,7.517367554E-1,9.225154777E0
1.579675262E1,3.937861176E0,-8.155789948E0,8.553213501E-1,9.096990432E0
1.580679562E1,3.882027283E0,-8.086334381E0,9.991722107E-1,9.025368948E0
1.581683762E1,3.702251129E0,-7.936046906E0,1.233285370E0,8.843556791E0
1.582688062E1,3.642824707E0,-7.698640594E0,1.461410980E0,8.641467520E0
1.583692262E1,4.005071411E0,-7.630981293E0,1.557062073E0,8.757677477E0
1.584696462E1,4.408781891E0,-7.606132965E0,1.708846436E0,8.956046705E0
1.585700762E1,4.661456451E0,-7.501201172E0,1.759291534E0,9.005126427E0
1.586704962E1,4.613256683E0,-7.498057709E0,1.509760437E0,8.932098477E0
1.587709262E1,4.150119781E0,-7.434889069E0,1.061293030E0,8.580641733E0
1.588713462E1,3.597918091E0,-7.308102722E0,8.249345398E-1,8.187423098E0
1.589717762E1,2.976709900E0,-7.129673767E0,8.934919739E-1,7.777620315E0
1.590721962E1,2.359094238E0,-6.847959595E0,1.025816803E0,7.315201730E0
1.591726162E1,1.944456482E0,-6.609954529E0,1.223555603E0,6.997820961E0
1.592730462E1,1.821262665E0,-6.375242615E0,1.254391479E0,6.747904421E0
1.593734662E1,1.874701538E0,-6.095025330E0,1.088835754E0,6.469111448E0
1.594738962E1,2.239942017E0,-5.930068359E0,8.948391724E-1,6.401858178E0
1.595743162E1,2.726280670E0,-5.791755981E0,6.200106812E-1,6.431287343E0
1.596747362E1,2.964585114E0,-5.593119049E0,3.420387268E-1,6.339458659E0
1.597751662E1,2.813249817E0,-5.387297058E0,1.844165039E-1,6.080407352E0
1.598755862E1,2.486030273E0,-5.403463440E0,1.770817566E-1,5.950556412E0
1.599760162E1,2.468516693E0,-5.759423218E0,3.866459656E-1,6.278059061E0
1.600764362E1,2.597847748E0,-6.145919495E0,9.042695618E-1,6.733412418E0
1.601768563E1,2.856958923E0,-6.313870239E0,1.503024445E0,7.091280150E0
1.602772862E1,3.529061279E0,-6.364914093E0,2.028880920E0,7.555313542E0
1.603777062E1,4.620741119E0,-6.204597473E0,2.298769684E0,8.070478323E0
1.604781362E1,5.590424652E0,-5.456004181E0,2.277663574E0,8.136865537E0
1.605785562E1,5.946683807E0,-4.926555176E0,1.749561768E0,7.918014940E0
1.606789862E1,6.072272644E0,-5.002147980E0,1.023122406E0,7.933521219E0
1.607794062E1,6.075715485E0,-5.177583160E0,5.652246094E-1,8.002572392E0
1.608798263E1,5.968238983E0,-5.425467682E0,4.384382629E-1,8.077611295E0
1.609802562E1,5.937552795E0,-5.652395782E0,6.551875305E-1,8.223951725E0
1.610806762E1,6.083648987E0,-5.644911346E0,1.197509766E0,8.385096227E0
1.611811062E1,6.419999542E0,-5.643115082E0,1.895807648E0,8.755297173E0
1.612815262E1,6.738537140E0,-5.547913055E0,2.481389923E0,9.074388024E0
1.613819462E1,6.661896515E0,-5.227728882E0,2.697839813E0,8.887539260E0
1.614823762E1,6.589447174E0,-5.305267639E0,2.419867859E0,8.799002173E0
1.615827963E1,7.309300232E0,-5.559738464E0,1.748963013E0,9.348552470E0
1.616832262E1,8.891360321E0,-5.420527954E0,1.139430542E0,1.047552928E1
1.617836462E1,1.079854431E1,-4.579576721E0,7.213499451E-1,1.175165639E1
1.618840662E1,1.276335846E1,-3.797153778E0,2.321672058E-1,1.331824304E1
1.619844962E1,1.499731293E1,-3.178041229E0,-3.498225403E-1,1.533433132E1
1.620849162E1,1.716705093E1,-2.456391907E0,-6.487509155E-1,1.735403056E1
1.621853462E1,1.998449203E1,-1.984123993E0,-7.298822021E-1,2.009600453E1
1.622857662E1,2.358570328E1,-1.283730469E0,-7.605683899E-1,2.363285483E1
1.623861962E1,2.805540848E1,4.715194702E-2,-7.861651611E-1,2.806646084E1
1.624866162E1,3.211317032E1,1.391057281E0,-1.325942688E0,3.217062126E1
1.625870362E1,3.600747208E1,2.043550415E0,-2.267784119E0,3.613664329E1
1.626874662E1,4.059752701E1,1.920655975E0,-3.127596130E0,4.076309576E1
1.627878862E1,4.684568390E1,1.347348175E0,-2.402204590E0,4.692658132E1
1.628883162E1,5.491210968E1,6.881190491E-1,1.122964783E0,5.492790135E1
1.629887362E1,6.355528610E1,-4.441264343E-1,5.830974426E0,6.382375657E1
1.630891562E1,6.946020676E1,-3.510350189E0,8.724457397E0,7.009393011E1
1.631895862E1,7.145495865E1,-9.635163574E0,8.768914948E0,7.263292203E1
1.632900062E1,7.196839096E1,-1.724937973E1,8.519084473E0,7.449540388E1
1.633904362E1,7.301127228E1,-2.368015686E1,9.379495239E0,7.732639032E1
1.634908562E1,7.451624268E1,-2.813414474E1,1.112067444E1,8.042306835E1
1.635912762E1,7.615518448E1,-3.144271454E1,1.365250946E1,8.351435467E1
1.636917062E1,7.814080536E1,-3.457659760E1,1.622446106E1,8.697562705E1
1.637921262E1,7.971358475E1,-3.742307831E1,1.797492096E1,8.987680550E1
1.638925562E1,8.049211578E1,-3.947366409E1,2.022174866E1,9.190250257E1
1.639929762E1,8.053328018E1,-4.093013535E1,2.183793777E1,9.293966173E1
1.640934062E1,7.795773605E1,-4.205534546E1,2.181937637E1,9.122579612E1
1.641938262E1,7.276219025E1,-4.281920700E1,2.084774689E1,8.696234454E1
1.642942463E1,6.607664291E1,-4.274735641E1,1.996712814E1,8.119202809E1
1.643946762E1,5.899097763E1,-4.183156082E1,1.976190491E1,7.496897897E1
1.644950962E1,5.192686752E1,-4.014127579E1,1.937630676E1,6.843363834E1
1.645955262E1,4.491634598E1,-3.789504684E1,1.815858902E1,6.150810570E1
1.646959462E1,3.872237640E1,-3.517400528E1,1.634376297E1,5.480649295E1
1.647963662E1,3.379926407E1,-3.160572556E1,1.333187622E1,4.815652669E1
1.648967962E1,2.884696243E1,-2.901117096E1,1.004336472E1,4.212676651E1
1.649972163E1,2.372177032E1,-2.804313400E1,8.598718872E0,3.772370234E1
1.650976462E1,1.813897980E1,-2.723316833E1,8.864416351E0,3.390052983E1
1.651980662E1,1.317754715E1,-2.645074539E1,9.563762054E0,3.106050910E1
1.652984962E1,8.963210907E0,-2.567895035E1,9.928852844E0,2.895392477E1
1.653989162E1,6.236181793E0,-2.501717651E1,9.623188477E0,2.752008068E1
1.654993350E1,4.799619141E0,-2.489862305E1,8.111182709E0,2.662271696E1
1.655997650E1,2.044448547E0,-2.414000061E1,5.408702545E0,2.482284155E1
1.657001850E1,-1.937870178E0,-2.349648880E1,2.647095337E0,2.372440601E1
1.658006150E1,-4.419559479E0,-2.247396515E1,6.979985046E-1,2.291503475E1
1.659010350E1,-4.815785522E0,-2.090956833E1,-6.827302551E-1,2.146783544E1
1.660014550E1,-3.722908173E0,-1.977328125E1,-1.330583038E0,2.016465095E1
1.661018850E1,-2.480042725E0,-1.894430511E1,-2.374063110E-1,1.910742447E1
1.662023050E1,-9.859996033E-1,-1.855182129E1,2.223027191E0,1.871053495E1
1.663027350E1,9.529183960E-1,-1.794857574E1,4.817581787E0,1.860829167E1
1.664031550E1,2.419867859E0,-1.693967377E1,6.744375000E0,1.839279484E1
1.665035750E1,2.913391571E0,-1.587912918E1,7.337292023E0,1.773331464E1
1.666040050E1,2.054926758E0,-1.485870117E1,6.960675201E0,1.653646648E1
1.667044250E1,4.050576782E-1,-1.421518936E1,6.138884125E0,1.548940214E1
1.668048550E1,-1.430724792E0,-1.393557083E1,5.512287140E0,1.505431557E1
1.669052750E1,-3.085383911E0,-1.379950378E1,5.481002197E0,1.516533164E1
1.670057050E1,-4.405339050E0,-1.364248032E1,5.777535553E0,1.545652608E1
1.671061250E1,-5.300627289E0,-1.329205902E1,6.077212372E0,1.554696089E1
1.672065450E1,-5.396128693E0,-1.232776428E1,5.840105438E0,1.466965605E1
1.673069750E1,-4.404141541E0,-1.091769653E1,4.988526306E0,1.278584980E1
1.674073950E1,-3.136876831E0,-9.422455902E0,3.901786194E0,1.066989255E1
1.675078250E1,-2.126477966E0,-8.111033020E0,3.029849396E0,8.915758664E0
1.676082450E1,-1.895059204E0,-7.350764008E0,2.545606384E0,8.006565602E0
1.677086650E1,-2.190694427E0,-7.078180847E0,2.464924164E0,7.808689859E0
1.678090950E1,-2.728226624E0,-7.051985321E0,2.803220673E0,8.064227404E0
