"Time (s)","Acceleration x (m/s^2)","Acceleration y (m/s^2)","Acceleration z (m/s^2)","Absolute acceleration (m/s^2)"
-1.326458339E-3,-2.268682251E0,-5.178780670E0,-1.125659180E-1,5.655029573E0
8.680541665E-3,-2.509531403E0,-8.129444733E0,-3.904480591E0,9.361121098E0
1.868854166E-2,-2.831062775E0,-1.118773499E1,-4.986730042E0,1.257170661E1
2.869654167E-2,-3.426374817E0,-1.293295578E1,-3.571722565E0,1.384769265E1
3.870454166E-2,-4.048630829E0,-1.372226440E1,-2.802921295E0,1.457903700E1
4.871154166E-2,-4.177063751E0,-1.468296661E1,-2.910547485E0,1.554054879E1
5.871954167E-2,-4.220922546E0,-1.724593689E1,-3.966900787E0,1.819271360E1
6.872754166E-2,-4.135599976E0,-2.230302063E1,-6.702312469E0,2.365267234E1
7.873554166E-2,-3.640279999E0,-2.652903259E1,-1.023676254E1,2.866762139E1
8.874354167E-2,-3.428620148E0,-2.558764023E1,-1.138457565E1,2.821509049E1
9.875054166E-2,-4.207300873E0,-2.197924393E1,-7.300019531E0,2.353887910E1
1.087585417E-1,-4.895120544E0,-1.763647476E1,-1.313368835E0,1.835026934E1
1.187665417E-1,-4.565655670E0,-1.464509537E1,1.537901917E0,1.541717135E1
1.287745417E-1,-3.393293610E0,-1.322260345E1,1.688788147E0,1.375513319E1
1.387825417E-1,-2.397863617E0,-1.212104416E1,3.047662354E-1,1.235970646E1
1.487895417E-1,-1.761387177E0,-1.169038971E1,-1.713636475E0,1.194588826E1
1.587975417E-1,-1.468296661E0,-1.239871674E1,-3.510050812E0,1.296936885E1
1.688055417E-1,-1.475631409E0,-1.415935547E1,-4.012406158E0,1.479068080E1
1.788135417E-1,-1.496587830E0,-1.645094009E1,-3.633244629E0,1.691371253E1
1.888215417E-1,-1.352138214E0,-1.844614105E1,-3.471431122E0,1.881858739E1
1.988285417E-1,-1.234782257E0,-1.970577164E1,-3.547922058E0,2.006065487E1
2.088365417E-1,-1.372645569E0,-2.000110748E1,-3.267854462E0,2.031273810E1
2.188445417E-1,-1.685195618E0,-1.912991913E1,-2.466421051E0,1.936173863E1
2.288525417E-1,-2.017354889E0,-1.731658997E1,-1.568887482E0,1.750415427E1
2.388605417E-1,-2.298769684E0,-1.532498154E1,-9.075627136E-1,1.552298526E1
2.488675417E-1,-2.415676575E0,-1.350386856E1,-6.685098267E-1,1.373451364E1
2.588755417E-1,-2.326761475E0,-1.168829407E1,-8.268804932E-1,1.194628681E1
2.688835417E-1,-2.135908356E0,-9.870174866E0,-1.278491364E0,1.017924342E1
2.788915417E-1,-1.913021851E0,-8.242459717E0,-1.892514496E0,8.670605855E0
2.888995417E-1,-1.722168732E0,-6.662794647E0,-2.560275879E0,7.342595606E0
2.989065417E-1,-1.443448334E0,-5.232518921E0,-3.067570953E0,6.234804640E0
3.089145417E-1,-1.041534119E0,-4.009412384E0,-3.464545441E0,5.400301482E0
3.189225417E-1,-6.474037170E-1,-3.127147064E0,-3.584146729E0,4.800446657E0
3.289305417E-1,-2.686912537E-1,-2.185754700E0,-3.636238403E0,4.251111422E0
3.389385417E-1,8.547225952E-2,-1.419049072E0,-3.720962219E0,3.983285781E0
3.489455417E-1,3.185375977E-1,-1.023870850E0,-3.727099457E0,3.878279010E0
3.589535417E-1,5.257067871E-1,-6.071374512E-1,-3.584296417E0,3.673168158E0
3.689615417E-1,6.872209167E-1,-3.269201660E-1,-3.395988007E0,3.480213201E0
3.789695417E-1,7.617658997E-1,-1.986369324E-1,-3.227588196E0,3.322208524E0
3.889775417E-1,8.168513489E-1,-1.902543640E-1,-2.989732819E0,3.105148173E0
3.989845417E-1,8.205935669E-1,-2.721340942E-1,-2.636617126E0,2.774739743E0
4.089925417E-1,7.985893250E-1,-6.569837952E-1,-1.851050720E0,2.120321057E0
4.190005417E-1,9.554631042E-1,-1.137783966E0,-1.281784515E0,1.962252186E0
4.290085417E-1,1.116228790E0,-1.718276825E0,-8.292755127E-1,2.210461453E0
4.390165417E-1,1.039438477E0,-2.196532288E0,-3.608995056E-1,2.456712212E0
4.490235417E-1,8.830137634E-1,-2.387684784E0,6.706054688E-2,2.546615215E0
4.590315417E-1,6.361770630E-1,-2.476899261E0,5.433700562E-1,2.614383718E0
4.690395417E-1,2.924917603E-1,-2.566413116E0,9.015751648E-1,2.735848222E0
4.790475417E-1,-4.595443726E-2,-2.825075226E0,1.010698242E0,3.000778695E0
4.890555417E-1,-3.483256531E-1,-3.355721741E0,4.902305603E-1,3.409182477E0
4.990625417E-1,-6.939569092E-1,-4.036955109E0,4.385879517E-2,4.096401633E0
5.090705417E-1,-1.188528442E0,-4.765041046E0,-5.855822754E-1,4.945818702E0
5.190785417E-1,-2.096689911E0,-5.833369446E0,-2.249821472E0,6.594391885E0
5.290865417E-1,-3.174149323E0,-7.242089996E0,-3.059637451E0,8.478471134E0
5.390945417E-1,-3.594175873E0,-8.331225128E0,-1.163081360E0,9.147686625E0
5.491015417E-1,-3.377426605E0,-8.706943817E0,9.298663330E-1,9.385229486E0
5.591095417E-1,-3.242557068E0,-9.787995758E0,1.307081909E0,1.039362788E1
5.691175417E-1,-4.145479431E0,-1.303414536E1,-1.945953369E0,1.381523360E1
5.791252917E-1,-5.601052551E0,-2.139096725E1,-1.293984146E1,2.562000716E1
5.891332917E-1,-5.451214142E0,-3.167518112E1,-2.084939346E1,3.831096504E1
5.991402917E-1,-5.954617310E0,-3.078588043E1,-9.075178070E0,3.264332640E1
6.091482917E-1,-7.180418243E0,-2.918825272E1,1.401086426E0,3.009112072E1
6.191562917E-1,-8.522826691E0,-3.051299789E1,4.207749939E0,3.195914227E1
6.291642917E-1,-9.048383789E0,-3.158985855E1,4.315525818E0,3.314236225E1
6.391722917E-1,-8.432714081E0,-2.846286118E1,3.351680145E0,2.987438523E1
6.491792917E-1,-6.831194458E0,-2.240570709E1,3.336262207E0,2.366033756E1
6.591872917E-1,-5.472320251E0,-1.810739548E1,3.282673645E0,1.919895847E1
6.691952917E-1,-4.560715942E0,-1.512664398E1,2.493963776E0,1.599485365E1
6.792032917E-1,-3.986060944E0,-1.299238220E1,9.746232605E-1,1.362499789E1
6.892112917E-1,-3.335064697E0,-1.154354507E1,-9.219328308E-1,1.205097712E1
6.992182917E-1,-2.359543304E0,-1.056068893E1,-2.602488098E0,1.112962442E1
7.092262917E-1,-1.354533234E0,-9.719138947E0,-3.396586761E0,1.038427772E1
7.192342917E-1,-7.926017761E-1,-8.588390350E0,-3.686384125E0,9.379663869E0
7.292422917E-1,-6.572831726E-1,-7.202572174E0,-3.839216309E0,8.188323941E0
7.392502917E-1,-5.745053101E-1,-5.769452362E0,-3.947590942E0,7.014279090E0
7.492572917E-1,-6.132746887E-1,-4.704417114E0,-4.030518494E0,6.225168717E0
7.592652917E-1,-4.938230896E-1,-3.628005524E0,-4.031266937E0,5.445860671E0
7.692732917E-1,-4.032614136E-1,-2.912792816E0,-3.830085297E0,4.828719824E0
7.792812917E-1,-5.004093933E-1,-2.384541321E0,-3.327729950E0,4.124346432E0
7.892892917E-1,-7.128176880E-1,-1.929188232E0,-2.836301880E0,3.503496061E0
7.992962917E-1,-9.065148926E-1,-1.495839386E0,-2.433339844E0,2.996739481E0
8.093042917E-1,-9.331594849E-1,-1.091230774E0,-2.079625397E0,2.527135338E0
8.193122917E-1,-8.409512329E-1,-8.918453979E-1,-1.686393127E0,2.084828283E0
8.293202917E-1,-5.658233643E-1,-7.095245361E-1,-1.576371918E0,1.818936384E0
8.393282917E-1,-7.963439941E-2,-4.592449951E-1,-1.976639557E0,2.030849955E0
8.493352917E-1,5.511538696E-1,-2.534230042E-1,-2.575993195E0,2.646457018E0
8.593432917E-1,1.237626343E0,-5.170248413E-1,-2.800077209E0,3.104748948E0
8.693512917E-1,1.447789307E0,-1.128802643E0,-2.282303925E0,2.929027225E0
8.793592917E-1,1.244811401E0,-1.625320129E0,-1.103954315E0,2.325926929E0
8.893672917E-1,8.232879639E-1,-1.842219086E0,4.358935547E-1,2.064358840E0
8.993742917E-1,2.070195007E-1,-1.971400452E0,1.979333954E0,2.801256810E0
9.093822917E-1,-3.299139404E-1,-2.030078430E0,2.514321442E0,3.248364812E0
9.193902917E-1,-5.565426636E-1,-1.888023834E0,2.428250427E0,3.125823711E0
9.293982917E-1,-5.444178772E-1,-1.698517914E0,2.281854858E0,2.896241620E0
9.394062917E-1,-5.324427795E-1,-1.867067413E0,2.079475708E0,2.844935019E0
9.494132917E-1,-6.474037170E-1,-2.688708801E0,1.791175232E0,3.294934795E0
9.594212917E-1,-9.716294861E-1,-3.807931366E0,1.331930237E0,4.149511212E0
9.694292917E-1,-1.419797516E0,-5.331762543E0,-1.168919220E0,5.640025615E0
9.794372917E-1,-2.589016113E0,-9.217382355E0,-1.016865417E1,1.396655540E1
9.894452917E-1,-4.130211182E0,-1.436996750E1,-1.187510559E1,1.909378808E1
9.994522917E-1,-6.093977509E0,-1.869432495E1,-8.070916443E0,2.125450633E1
1.009460292E0,-6.719676361E0,-2.146685944E1,-3.584595795E0,2.277782763E1
1.019468292E0,-6.135740662E0,-2.412607956E1,-2.141596527E0,2.498602538E1
1.029476292E0,-6.425238647E0,-3.014506302E1,-6.403533783E0,3.148037104E1
1.039484292E0,-7.834258575E0,-3.589670242E1,-9.003028107E0,3.782860515E1
1.049491292E0,-9.604178009E0,-3.669978241E1,-5.229525146E0,3.829441470E1
1.059499292E0,-8.913514252E0,-3.040656921E1,-1.657054138E-1,3.168655308E1
1.069507292E0,-6.482868805E0,-2.309562241E1,1.405128021E0,2.402935178E1
1.079515292E0,-5.003644867E0,-1.849658615E1,1.403780823E0,1.921277600E1
1.089523292E0,-4.143084412E0,-1.526360916E1,6.248007202E-1,1.582824340E1
1.099530292E0,-3.651955719E0,-1.326870758E1,-9.714797974E-1,1.379634569E1
1.109538292E0,-3.339705048E0,-1.221923996E1,-2.099384308E0,1.284020520E1
1.119546292E0,-3.198698273E0,-1.177855637E1,-2.055226135E0,1.237699540E1
1.129554292E0,-2.926863556E0,-1.155686737E1,-1.574425964E0,1.202524556E1
1.139562292E0,-2.489173737E0,-1.155791519E1,-1.150806885E0,1.187879396E1
1.149569292E0,-1.831291809E0,-1.103969284E1,-1.212927704E0,1.125609352E1
1.159577292E0,-1.225202179E0,-1.016386414E1,-1.413360901E0,1.033454612E1
1.169585292E0,-7.640112305E-1,-8.537346497E0,-1.615740051E0,8.722420208E0
1.179593292E0,-4.032614136E-1,-6.564449158E0,-1.859582977E0,6.834666148E0
1.189601292E0,-1.426533508E-1,-4.725672913E0,-2.042801971E0,5.150279056E0
1.199608292E0,4.834945679E-2,-3.023113403E0,-2.076931000E0,3.668132317E0
1.209616292E0,2.142045593E-1,-1.773511963E0,-2.276615753E0,2.893822310E0
1.219624292E0,3.040177917E-1,-7.197033691E-1,-2.491419067E0,2.611047439E0
1.229632292E0,3.134481812E-1,2.387535095E-1,-2.781515808E0,2.809285174E0
1.239640292E0,3.356021118E-1,9.882449341E-1,-2.831511841E0,3.017733609E0
1.249648292E0,2.568658447E-1,1.469643860E0,-2.677781525E0,3.065346152E0
1.259655292E0,1.335223389E-1,1.660946045E0,-2.572550354E0,3.065058776E0
1.269663292E0,1.071771240E-1,1.723665619E0,-2.814147949E0,3.301808411E0
1.279671292E0,5.328918457E-2,1.693278809E0,-3.062032471E0,3.499439343E0
1.289679292E0,2.529739380E-2,1.415456543E0,-2.788251801E0,3.127060167E0
1.299686292E0,2.185455322E-2,8.125103760E-1,-1.850152588E0,2.020820460E0
1.309694292E0,-5.074447632E-2,-7.604187012E-2,-4.984634399E-1,5.067772379E-1
1.319702292E0,-1.529818726E-1,-8.050259399E-1,8.391549683E-1,1.172881613E0
1.329710292E0,-1.947450256E-1,-1.266665955E0,1.727407837E0,2.150884958E0
1.339718292E0,-3.936813354E-1,-1.528321838E0,1.845212860E0,2.428078074E0
1.349726292E0,-6.971003723E-1,-2.068698120E0,1.932930450E0,2.915764217E0
1.359733292E0,-1.028062134E0,-2.675087128E0,2.157313843E0,3.587060901E0
1.369741292E0,-1.362017670E0,-3.457809448E0,2.014810181E0,4.227410363E0
1.379749292E0,-1.542542267E0,-4.583019562E0,1.742077332E0,5.139877273E0
1.389757292E0,-1.702559509E0,-6.021378479E0,1.543141022E0,6.444919851E0
1.399765292E0,-2.077529755E0,-7.905959473E0,1.537153473E0,8.317641845E0
1.409772292E0,-2.698438568E0,-1.038570282E1,1.717378693E0,1.086709636E1
1.419780292E0,-3.854185181E0,-1.570384369E1,-4.546046448E-1,1.617628250E1
1.429788292E0,-5.516029358E0,-2.648173096E1,-6.457272034E0,2.781016031E1
1.439796292E0,-5.303171997E0,-3.294813400E1,-1.276919632E1,3.573171619E1
1.449804292E0,-5.590274963E0,-3.480128036E1,-1.369936203E1,3.781603905E1
1.459811292E0,-8.439899139E0,-3.307087875E1,-6.114185486E0,3.467417170E1
1.469819292E0,-1.122964783E1,-3.153612030E1,4.144880676E-1,3.347840609E1
1.479827292E0,-1.143996048E1,-2.946622467E1,2.928061066E0,3.174436381E1
1.489835292E0,-9.637558594E0,-2.518827072E1,3.273542633E0,2.716703147E1
1.499843292E0,-7.525001678E0,-2.022369461E1,1.728904724E0,2.164746141E1
1.509850292E0,-5.959107971E0,-1.671618851E1,7.747888184E-1,1.776350820E1
1.519858292E0,-4.703968048E0,-1.419393356E1,1.369651794E-1,1.495372278E1
1.529866292E0,-3.731590118E0,-1.227208008E1,-5.538482666E-1,1.283882635E1
1.539874292E0,-2.891986084E0,-1.101095261E1,-8.568182373E-1,1.141660187E1
1.549882292E0,-2.126028900E0,-1.008722351E1,-7.852670288E-1,1.033870018E1
1.559889292E0,-1.526375885E0,-9.104067993E0,-7.577243042E-1,9.262182437E0
1.569897292E0,-9.768685913E-1,-8.030051422E0,-9.222322083E-1,8.141652801E0
1.579908417E0,-4.085005188E-1,-6.669081573E0,-1.192570038E0,6.787175038E0
1.589916417E0,1.317260742E-1,-5.157824249E0,-1.695823517E0,5.431051477E0
1.599924417E0,5.774990845E-1,-3.785777435E0,-2.018402710E0,4.328921977E0
1.609931417E0,8.072712708E-1,-2.617756348E0,-2.057770844E0,3.426186808E0
1.619939417E0,8.785231018E-1,-1.740131378E0,-1.524280243E0,2.474528301E0
1.629947417E0,9.478289795E-1,-1.116079102E0,-9.919871521E-1,1.768629652E0
1.639955417E0,1.084943848E0,-6.102809143E-1,-1.022074585E0,1.610646580E0
1.649963417E0,1.176403656E0,-1.293310547E-1,-1.331780548E0,1.781654150E0
1.659970417E0,1.137783966E0,2.591111755E-1,-1.456471252E0,1.866279578E0
1.669978417E0,1.044677582E0,5.081932068E-1,-1.440753937E0,1.850779158E0
1.679986417E0,9.398954773E-1,5.511538696E-1,-1.760638733E0,2.070512701E0
1.689994417E0,6.771917725E-1,3.748205566E-1,-2.407593384E0,2.528949396E0
1.700002417E0,2.269281006E-1,-3.113525391E-1,-2.655777283E0,2.683577788E0
1.710010417E0,-7.529342651E-2,-9.806108093E-1,-2.070793762E0,2.292477582E0
1.720017417E0,-3.667373657E-1,-1.430575104E0,-8.756790161E-1,1.716931904E0
1.730025417E0,-6.649172974E-1,-1.854792938E0,2.083666992E-1,1.981360275E0
1.740033417E0,-8.355624390E-1,-2.272723846E0,7.973918152E-1,2.549366976E0
1.750041417E0,-1.006357269E0,-2.766097870E0,7.940986633E-1,3.048712034E0
1.760049417E0,-1.106948090E0,-3.483256531E0,6.448590088E-1,3.711368113E0
1.770056417E0,-1.124910736E0,-4.513863373E0,5.975573730E-1,4.690145150E0
1.780064417E0,-1.110241241E0,-6.005062408E0,4.833448792E-1,6.125931147E0
1.790072417E0,-1.150357819E0,-7.767048340E0,1.222956848E-1,7.852726868E0
1.800080417E0,-1.349144440E0,-9.746082916E0,-1.046024780E0,9.894467685E0
1.810088417E0,-1.776206360E0,-1.225681183E1,-2.805915070E0,1.269872059E1
1.820095417E0,-2.636317749E0,-1.517409531E1,-3.675007782E0,1.583379367E1
1.830103417E0,-3.965403900E0,-1.919668030E1,-4.013603668E0,2.000864755E1
1.840111417E0,-5.319488068E0,-2.343257172E1,-3.288062439E0,2.425270552E1
1.850119417E0,-6.822961578E0,-2.721565475E1,-1.166823578E0,2.808213214E1
1.860127417E0,-8.637637939E0,-3.041525116E1,1.457369385E0,3.165154369E1
1.870134417E0,-1.035561539E1,-3.344465149E1,2.139351196E0,3.507649223E1
1.880142417E0,-1.117995117E1,-3.444726654E1,5.180726624E-1,3.621979955E1
1.890150417E0,-9.431886292E0,-2.833861954E1,-2.065854034E0,2.993836317E1
1.900158417E0,-7.042554932E0,-2.061947159E1,-2.383792877E0,2.191900219E1
1.910166417E0,-5.732030182E0,-1.584574860E1,-1.096020813E0,1.688624234E1
1.920173417E0,-4.824317780E0,-1.270527924E1,-0.000000000E0,1.359037021E1
1.930181417E0,-4.148922272E0,-1.062640228E1,1.936972046E-1,1.140927255E1
1.940189417E0,-3.447630615E0,-8.836125183E0,-1.907034302E-1,9.486813633E0
1.950197417E0,-2.800825653E0,-6.940018158E0,-4.528083801E-1,7.497567059E0
1.960205417E0,-1.982627106E0,-5.345234528E0,-9.333091736E-1,5.776972253E0
1.970213417E0,-1.297801208E0,-3.832180939E0,-1.454824677E0,4.299582952E0
1.980220417E0,-6.824308777E-1,-2.548001404E0,-1.901795197E0,3.251899141E0
1.990228417E0,-2.335144043E-1,-1.569037170E0,-2.264041901E0,2.764469632E0
2.000236417E0,1.642085266E-1,-8.310717773E-1,-2.535726929E0,2.673491312E0
2.010244417E0,4.778063965E-1,-4.182302856E-1,-2.744692383E0,2.817188634E0
2.020252417E0,6.891668701E-1,-1.196012878E-1,-2.713108063E0,2.801822764E0
2.030259417E0,8.111631775E-1,6.885681152E-2,-2.441572723E0,2.573714111E0
2.040267417E0,8.991801453E-1,1.651066589E-1,-2.146386566E0,2.332972446E0
2.050275417E0,1.018781433E0,1.932481384E-1,-1.867815857E0,2.136351218E0
2.060283417E0,1.121168518E0,2.245330811E-3,-1.571132813E0,1.930150824E0
2.070291417E0,1.096918945E0,-4.682263184E-1,-1.365011444E0,1.812656421E0
2.080298417E0,9.361532593E-1,-1.033750305E0,-1.105451202E0,1.779619335E0
2.090306417E0,7.738906860E-1,-1.571432190E0,-6.012995911E-1,1.851990043E0
2.100314417E0,6.227050781E-1,-2.146835632E0,-1.239422607E-1,2.238755576E0
2.110322417E0,4.447251892E-1,-2.749183044E0,2.878514099E-1,2.799758265E0
2.120330417E0,1.930984497E-1,-3.338806915E0,5.972579956E-1,3.397298300E0
2.130338417E0,-1.814227295E-1,-3.839365997E0,1.030906219E0,3.979499102E0
2.140345417E0,-6.616241455E-1,-4.291875000E0,1.521735535E0,4.601479823E0
2.150353417E0,-1.184636536E0,-4.980892181E0,1.267863464E0,5.274478970E0
2.160361417E0,-1.814376984E0,-6.145470428E0,-3.667373657E-2,6.407816757E0
2.170369417E0,-2.534379730E0,-8.029452667E0,-2.085163879E0,8.674278019E0
2.180377417E0,-3.303779755E0,-1.048719177E1,-3.548371124E0,1.155366131E1
2.190384417E0,-4.187242584E0,-1.324011703E1,-4.011657715E0,1.445431068E1
2.200392417E0,-4.977449341E0,-1.594858475E1,-4.411925354E0,1.727997230E1
2.210400417E0,-5.588927765E0,-1.869192993E1,-5.016069031E0,2.014411345E1
2.220408417E0,-6.583759003E0,-2.117900803E1,-4.287683716E0,2.258938900E1
2.230416417E0,-8.031697998E0,-2.400408325E1,-2.793939972E0,2.546586512E1
2.240423417E0,-9.556726685E0,-2.658037582E1,-7.589218140E-1,2.825638629E1
2.250431417E0,-1.056473053E1,-2.863380569E1,5.978567505E-1,3.052647691E1
2.260439417E0,-1.008707382E1,-2.934812027E1,1.996847534E-1,3.103387014E1
2.270447417E0,-7.529043274E0,-2.564242630E1,-1.180445251E0,2.675096204E1
2.280455417E0,-5.347030792E0,-2.041200302E1,-1.090332642E0,2.112887671E1
2.290462417E0,-4.283492432E0,-1.703547455E1,-2.827619934E-1,1.756802934E1
2.300470417E0,-3.633843384E0,-1.445229630E1,1.663041687E-1,1.490306489E1
2.310478417E0,-3.169508972E0,-1.239602234E1,2.897973633E-1,1.279809124E1
2.320486417E0,-2.757565613E0,-1.070828201E1,2.164498901E-1,1.105976140E1
2.330494417E0,-2.419718170E0,-9.461524658E0,-2.290237427E-2,9.766064171E0
2.340502417E0,-2.174827423E0,-8.277037811E0,-3.721261597E-1,8.566078865E0
2.350509417E0,-1.967358856E0,-7.053781586E0,-7.057823181E-1,7.356933071E0
2.360517417E0,-1.711241455E0,-5.874533844E0,-8.891510010E-1,6.182967306E0
2.370525417E0,-1.369951172E0,-4.776118011E0,-9.605525208E-1,5.060704557E0
2.380533417E0,-1.171014862E0,-3.437302094E0,-1.178499298E0,3.817745681E0
2.390541417E0,-1.008003845E0,-2.357747040E0,-1.493294678E0,2.967317282E0
2.400548417E0,-9.532177734E-1,-1.431622925E0,-1.731748810E0,2.440721668E0
2.410556417E0,-9.556127930E-1,-6.595285034E-1,-2.089654541E0,2.390571011E0
2.420564417E0,-9.430389404E-1,4.041595459E-3,-2.488425293E0,2.661127433E0
2.430572417E0,-9.247769165E-1,5.284011841E-1,-3.005749512E0,3.188879158E0
2.440580417E0,-9.306147766E-1,8.219407654E-1,-3.241509247E0,3.471168777E0
2.450587417E0,-9.481283569E-1,7.475454712E-1,-2.929258575E0,3.168331961E0
2.460595417E0,-9.934840393E-1,-2.269281006E-1,-2.107317810E0,2.340789451E0
2.470603417E0,-1.011147308E0,-1.856738892E0,-1.317111053E0,2.490919452E0
2.480611417E0,-8.385562134E-1,-3.020419006E0,-8.201445007E-1,3.240176615E0
2.490619417E0,-7.485932922E-1,-3.809278564E0,-3.638932800E-1,3.899155475E0
2.500627417E0,-6.864724731E-1,-4.514761505E0,-1.053808594E-1,4.567868325E0
2.510634417E0,-6.117778015E-1,-5.143603821E0,-3.417393494E-1,5.191119159E0
2.520642417E0,-4.938230896E-1,-5.622607727E0,-1.159488831E0,5.762117080E0
2.530650417E0,-5.257067871E-1,-5.975424042E0,-1.752106476E0,6.249154919E0
2.540658417E0,-7.764353943E-1,-5.982908478E0,-1.951342163E0,6.340802947E0
2.550666417E0,-1.115929413E0,-5.830225983E0,-1.594334564E0,6.146440935E0
2.560673417E0,-1.548080750E0,-5.570066986E0,-1.190324707E0,5.902463312E0
2.570681417E0,-1.987866211E0,-5.704936523E0,-1.565893707E0,6.240988376E0
2.580690125E0,-2.480192413E0,-6.253545685E0,-1.701511688E0,6.939260052E0
2.590698125E0,-2.909349976E0,-7.269183655E0,-1.193019104E0,7.920141594E0
2.600706125E0,-3.100053406E0,-8.844956818E0,-1.488504639E0,9.489954599E0
2.610713125E0,-3.436703339E0,-1.098101486E1,-3.034489746E0,1.189965316E1
2.620721125E0,-3.464994507E0,-1.394215714E1,-4.634512482E0,1.509531843E1
2.630729125E0,-3.518882446E0,-1.669762711E1,-3.689527588E0,1.745869120E1
2.640737125E0,-4.671784973E0,-1.955503510E1,-1.794618073E0,2.018528242E1
2.650745125E0,-6.239175568E0,-2.344798965E1,-1.122366028E0,2.428981754E1
2.660753125E0,-7.390132141E0,-2.708273117E1,-1.872905273E0,2.813531864E1
2.670760125E0,-6.546486511E0,-2.869368118E1,-6.691684570E0,3.018215479E1
2.680768125E0,-3.888912964E0,-2.481868927E1,-1.086740112E1,2.737136073E1
2.690776125E0,-3.284769287E0,-1.997027161E1,-5.615871735E0,2.100332051E1
2.700784125E0,-3.657494202E0,-1.751223312E1,6.466552734E-2,1.789021393E1
2.710792125E0,-3.591930542E0,-1.607761642E1,1.639091492E0,1.655531141E1
2.720799125E0,-3.217259674E0,-1.519565048E1,1.166973267E0,1.557627619E1
2.730807125E0,-2.838098145E0,-1.468027222E1,-7.741900635E-1,1.497212622E1
2.740815125E0,-2.820584564E0,-1.431578018E1,-2.598147125E0,1.482051376E1
2.750823125E0,-3.221450958E0,-1.399215317E1,-2.751428375E0,1.461945466E1
2.760831125E0,-3.515439606E0,-1.363275055E1,-1.800904999E0,1.419343024E1
2.770839125E0,-3.419489136E0,-1.307545944E1,-1.039438477E0,1.355510892E1
2.780846125E0,-3.073558502E0,-1.218091965E1,-8.548722839E-1,1.259175810E1
2.790854125E0,-2.531685333E0,-1.091934311E1,-1.062640228E0,1.125924903E1
2.800862125E0,-1.898801422E0,-9.507628784E0,-1.520987091E0,9.813962180E0
2.810870125E0,-1.345701599E0,-8.154592438E0,-2.000290375E0,8.503496469E0
2.820878125E0,-9.080117798E-1,-6.893464966E0,-2.294578400E0,7.321846397E0
2.830885125E0,-6.242019653E-1,-5.645510101E0,-2.320474548E0,6.135634810E0
2.840893125E0,-4.722679138E-1,-4.523144073E0,-2.258054352E0,5.077467750E0
2.850901125E0,-4.087998962E-1,-3.472329254E0,-2.125130768E0,4.091499552E0
2.860909125E0,-4.593946838E-1,-2.307152252E0,-2.219434662E0,3.234174579E0
2.870917125E0,-5.782475281E-1,-1.087488556E0,-2.425256653E0,2.720086652E0
2.880925125E0,-6.526428223E-1,-4.614903259E-1,-2.310146027E0,2.444522579E0
2.890932125E0,-7.177574158E-1,2.151026917E-1,-2.223775635E0,2.346619473E0
2.900940125E0,-8.092172241E-1,7.191046143E-1,-2.055974579E0,2.323569545E0
2.910948125E0,-9.006770325E-1,9.361532593E-1,-1.559457092E0,2.029657228E0
2.920956125E0,-9.994715881E-1,9.506730652E-1,-1.027912445E0,1.720269376E0
2.930964125E0,-1.095571747E0,7.704478455E-1,-3.168910217E-1,1.376331085E0
2.940971125E0,-1.199156342E0,3.722758484E-1,5.319937134E-1,1.363665116E0
2.950979125E0,-1.242715759E0,-1.249900818E-1,1.248254242E0,1.765815288E0
2.960987125E0,-1.249152374E0,-4.144880676E-1,1.459315338E0,1.965142048E0
2.970995125E0,-1.296454010E0,-7.276368713E-1,1.404529266E0,2.045226363E0
2.981003125E0,-1.498683472E0,-1.236728210E0,1.416953430E0,2.404850481E0
2.991010125E0,-1.812281342E0,-1.891316986E0,1.491498413E0,3.014301100E0
3.001018125E0,-2.193837891E0,-2.692151642E0,1.507066040E0,3.785743415E0
3.011026125E0,-2.632575531E0,-3.778592377E0,1.146166534E0,4.745725656E0
3.021034125E0,-3.282973022E0,-5.628894653E0,7.294331360E-1,6.557014533E0
3.031042125E0,-4.232598267E0,-8.642427979E0,5.807922363E-2,9.623399745E0
3.041050125E0,-5.510790253E0,-1.302097275E1,-9.698332214E-1,1.417233633E1
3.051057125E0,-6.817722473E0,-1.860526016E1,-2.558629303E0,1.997958031E1
3.061065125E0,-7.396718445E0,-2.492811172E1,-5.048850861E0,2.648798016E1
3.071073125E0,-7.453899536E0,-3.009551605E1,-7.543712769E0,3.190937648E1
3.081081125E0,-8.066126404E0,-3.273752197E1,-6.755751343E0,3.438674041E1
3.091089125E0,-8.896749115E0,-3.334630600E1,-3.833228760E0,3.472494653E1
3.101096125E0,-8.803493042E0,-3.231525009E1,1.582209778E-1,3.349331145E1
3.111104125E0,-7.090155945E0,-2.703857300E1,2.542612610E0,2.806812463E1
3.121112125E0,-5.907315674E0,-1.986084915E1,2.115401001E0,2.082845719E1
3.131120125E0,-5.518723755E0,-1.516107239E1,1.012494507E0,1.616600052E1
3.141128125E0,-5.207670593E0,-1.211131439E1,1.227447510E-1,1.318403715E1
3.151136125E0,-4.799170074E0,-1.022089554E1,-1.836680603E-1,1.129302763E1
3.161143125E0,-4.432432709E0,-9.015751648E0,-6.331832886E-2,1.004660374E1
3.171151125E0,-4.067940674E0,-7.975864105E0,4.580474854E-2,8.953471261E0
3.181159125E0,-3.519481201E0,-6.644233246E0,-6.077362061E-2,7.519060898E0
3.191167125E0,-2.900967407E0,-5.098846893E0,-5.008584595E-1,5.887674476E0
3.201175125E0,-2.218536530E0,-3.634442139E0,-1.159638519E0,4.413143493E0
3.211182125E0,-1.481618958E0,-2.565065918E0,-1.833686829E0,3.483843464E0
3.221190125E0,-7.556286621E-1,-1.801054688E0,-2.284698944E0,3.005764782E0
3.231198125E0,-2.914439392E-1,-1.181193695E0,-2.408491516E0,2.698330873E0
3.241206125E0,1.730401611E-1,-1.190773773E0,-2.166744232E0,2.478440163E0
3.251214125E0,4.718188477E-1,-1.131796417E0,-1.812281342E0,2.188136151E0
3.261222125E0,6.441105652E-1,-1.179098053E0,-1.398541718E0,1.939347719E0
3.271229125E0,7.421566772E-1,-1.229692841E0,-9.249266052E-1,1.708341371E0
3.281237125E0,7.577243042E-1,-1.221459961E0,-5.577401733E-1,1.541812135E0
3.291245125E0,8.047265625E-1,-1.103654938E0,-3.665876770E-1,1.414222609E0
3.301253125E0,8.437953186E-1,-1.158141632E0,-2.496807861E-1,1.454518159E0
3.311261125E0,8.045768738E-1,-1.315015411E0,-4.246669006E-1,1.599047046E0
3.321268125E0,6.021977234E-1,-1.655108185E0,-1.099313965E0,2.076178315E0
3.331276125E0,2.915936279E-1,-2.091600494E0,-2.207309875E0,3.054838189E0
3.341284125E0,-2.544708252E-3,-2.500101013E0,-3.512595520E0,4.311477570E0
3.351292125E0,-2.642005920E-1,-2.922672272E0,-3.537593536E0,4.596344546E0
3.361300125E0,-7.604187012E-1,-3.242557068E0,-1.531016235E0,3.665572759E0
3.371308125E0,-1.261576538E0,-3.573219452E0,4.721182251E-1,3.818686716E0
3.381315125E0,-1.554816742E0,-4.311484222E0,1.740580444E0,4.902649445E0
3.391323125E0,-1.819915466E0,-5.389991455E0,2.352208557E0,6.156052736E0
3.401331125E0,-2.343676300E0,-6.887776794E0,2.324067078E0,7.637772944E0
3.411339125E0,-3.245850220E0,-8.860524445E0,2.010918274E0,9.648224157E0
3.421347125E0,-4.425397339E0,-1.172781189E1,1.070274353E0,1.258058824E1
3.431354125E0,-5.626200256E0,-1.577045517E1,-2.432142334E0,1.691971341E1
3.441362125E0,-6.528673553E0,-2.067066513E1,-8.027806091E0,2.311591759E1
3.451370125E0,-7.236701202E0,-2.574556183E1,-1.119117783E1,2.899045117E1
3.461378125E0,-8.927884369E0,-2.884097488E1,-7.824828186E0,3.118873014E1
3.471386125E0,-1.118519028E1,-3.064891525E1,-2.054777069E0,3.269077234E1
3.481394125E0,-1.244676682E1,-3.243634827E1,9.788145447E-1,3.475624794E1
3.491401125E0,-1.182091827E1,-3.141098053E1,2.667303314E0,3.366746669E1
3.501409125E0,-9.253906403E0,-2.553584793E1,2.862796783E0,2.731135146E1
3.511417125E0,-7.187603302E0,-1.894939453E1,2.289638672E0,2.039567698E1
3.521425125E0,-6.012696533E0,-1.473505829E1,1.391955414E0,1.597535609E1
3.531433125E0,-5.366789703E0,-1.225306961E1,1.450483704E-1,1.337763752E1
3.541441125E0,-4.892126770E0,-1.066562073E1,-9.933343506E-1,1.177603851E1
3.551448125E0,-4.319866791E0,-9.437873840E0,-1.738335114E0,1.052409239E1
3.561456125E0,-3.493734741E0,-8.267308044E0,-2.488574982E0,9.313837565E0
3.571464125E0,-2.710263977E0,-6.959328003E0,-3.249143372E0,8.144612313E0
3.581472375E0,-1.900148621E0,-5.392685852E0,-3.607797546E0,6.760756512E0
3.591480375E0,-8.249345398E-1,-4.187242584E0,-3.644920349E0,5.612393590E0
3.601487375E0,1.857637024E-1,-3.611390076E0,-3.141666870E0,4.790273182E0
3.611495375E0,8.446934509E-1,-3.242706757E0,-2.637215881E0,4.264218773E0
3.621503375E0,1.226250000E0,-2.740800476E0,-2.556533661E0,3.943544176E0
3.631511375E0,1.326391754E0,-2.563119965E0,-1.842069397E0,3.423757979E0
3.641519375E0,1.342258759E0,-2.167792053E0,-1.198108521E0,2.817169677E0
3.651527375E0,1.199904785E0,-1.652563477E0,-6.861730957E-1,2.154430564E0
3.661534375E0,1.243015137E0,-1.158291321E0,-3.963757324E-1,1.744660178E0
3.671542375E0,1.351539459E0,-7.206015015E-1,-4.784051514E-1,1.604617376E0
3.681550375E0,1.401086426E0,-2.522254944E-1,-9.014254761E-1,1.685001116E0
3.691558375E0,1.688339081E0,-1.410067749E-1,-1.562001801E0,2.304391761E0
3.701566375E0,2.130519562E0,-5.718109131E-1,-2.023043060E0,2.993122875E0
3.711574375E0,2.196981354E0,-1.128952332E0,-2.077829132E0,3.227790938E0
3.721581375E0,1.557810516E0,-1.426683197E0,-1.506467285E0,2.594540852E0
3.731589375E0,6.234535217E-1,-1.560504913E0,-5.481600952E-1,1.767582917E0
3.741597375E0,-2.233355713E-1,-1.760938110E0,5.144801331E-1,1.848099460E0
3.751605375E0,-9.226812744E-1,-2.112407227E0,1.078507233E0,2.544952431E0
3.761613375E0,-1.739532623E0,-2.622546387E0,8.478369141E-1,3.259225480E0
3.771620375E0,-3.507206726E0,-4.360731812E0,-1.529070282E0,5.801253044E0
3.781628375E0,-5.170098724E0,-8.617579651E0,-3.268453217E0,1.056765756E1
3.791636375E0,-5.935606842E0,-1.255139923E1,-2.969225464E0,1.419807561E1
3.801644375E0,-5.154082031E0,-1.394455215E1,-2.408641205E0,1.506043322E1
3.811652375E0,-4.632117462E0,-1.421159683E1,-1.290316772E-1,1.494799806E1
3.821660375E0,-5.551804962E0,-1.612132553E1,1.794767761E0,1.714470375E1
3.831667375E0,-7.391928406E0,-1.972702744E1,2.313289490E0,2.119310089E1
3.841675375E0,-9.776469727E0,-2.535472458E1,1.689835968E0,2.722676926E1
3.851683375E0,-1.361344070E1,-3.440310837E1,-8.219407654E-1,3.700777242E1
3.861691375E0,-1.420695648E1,-3.907399521E1,-5.240153046E0,4.190553565E1
3.871699375E0,-1.171942932E1,-3.573728394E1,-7.580985260E0,3.836625893E1
3.881707375E0,-8.897048492E0,-2.599120102E1,-2.956052856E0,2.763038637E1
3.891714375E0,-7.088958435E0,-1.854014557E1,5.304968262E-1,1.985627750E1
3.901722375E0,-5.805377655E0,-1.420590866E1,9.512718201E-1,1.537579815E1
3.911730375E0,-4.663851471E0,-1.132035919E1,5.776487732E-1,1.225706820E1
3.921738375E0,-3.734583893E0,-9.211394806E0,-1.317260742E-1,9.940536348E0
3.931746375E0,-3.153641968E0,-7.579188995E0,-8.499325562E-1,8.252996355E0
3.941753375E0,-2.579585724E0,-5.759572906E0,-1.624721375E0,6.516645005E0
3.951761375E0,-1.931134186E0,-3.970942383E0,-2.614612885E0,5.131653066E0
3.961769375E0,-1.425036621E0,-2.294129333E0,-3.381168823E0,4.327361943E0
3.971777375E0,-8.167016602E-1,-9.713301086E-1,-4.133204956E0,4.323640479E0
3.981785375E0,-2.140548706E-1,6.032455444E-2,-4.412224731E0,4.417825893E0
3.991793375E0,1.571731567E-1,6.503974915E-1,-4.212240601E0,4.265054651E0
4.001800375E0,8.644523621E-1,5.484594727E-1,-3.507805481E0,3.654146271E0
4.011808375E0,1.398392029E0,2.493814087E-1,-2.589315491E0,2.953344894E0
4.021816375E0,1.567839661E0,4.805007935E-2,-1.468596039E0,2.148768098E0
4.031824375E0,1.486558685E0,-8.023315430E-2,-2.698887634E-1,1.512988443E0
4.041832375E0,1.215622101E0,-4.595443726E-2,6.743476868E-1,1.390896727E0
4.051840375E0,1.248403931E0,-4.385879517E-2,1.337169342E0,1.829879181E0
4.061847375E0,1.446142731E0,-1.516346741E-1,1.696721649E0,2.234543852E0
4.071855375E0,1.592388611E0,-3.409909058E-1,1.735341339E0,2.379786934E0
4.081863375E0,1.627715149E0,-5.761518860E-1,1.466949463E0,2.265689372E0
4.091871375E0,1.597777405E0,-9.165440369E-1,8.409512329E-1,2.024881375E0
4.101879375E0,1.683549042E0,-1.684447174E0,-1.910776520E0,3.053320580E0
4.111887375E0,1.246457977E0,-2.854414215E0,-6.255192261E0,6.987758455E0
4.121894375E0,-3.562591553E-2,-3.576362915E0,-5.926775208E0,6.922304910E0
4.131902375E0,-1.054407349E0,-4.343068542E0,-2.659070435E0,5.200449480E0
4.141910375E0,-1.759441223E0,-5.262456665E0,-1.555265808E-1,5.550970373E0
4.151918375E0,-2.968477020E0,-6.949149170E0,2.304008789E0,7.900062437E0
4.161926375E0,-3.914958801E0,-8.135881348E0,3.815565491E0,9.801938978E0
4.171934375E0,-3.604504395E0,-8.146060181E0,1.730102234E0,9.074359599E0
4.181941375E0,-3.585942993E0,-1.068493057E1,-1.360820160E0,1.135246933E1
4.191949375E0,-4.430037689E0,-1.947135910E1,-1.260887970E1,2.361658118E1
4.201957375E0,-3.927981720E0,-2.879756516E1,-2.373539200E1,3.752462701E1
4.211965375E0,-4.118086395E0,-2.597727997E1,-1.010877869E1,2.817738662E1
4.221973375E0,-6.145470428E0,-2.442021790E1,3.600612488E0,2.543773298E1
4.231980375E0,-9.394913177E0,-2.710877701E1,4.788841553E0,2.908750914E1
4.241988375E0,-1.324161392E1,-3.126817749E1,6.274502106E0,3.453127046E1
4.251996375E0,-1.257564880E1,-2.929857330E1,2.331401825E0,3.196855916E1
4.262004375E0,-9.592502289E0,-2.564751572E1,-2.159559174E0,2.746770574E1
4.272012375E0,-7.726931763E0,-2.228565674E1,-2.475851440E0,2.371678332E1
4.282020375E0,-6.269861755E0,-1.857532242E1,-1.661993866E0,1.967526348E1
4.292027375E0,-5.041067047E0,-1.534563858E1,-1.166823578E0,1.619451937E1
4.302035375E0,-3.980971527E0,-1.265528320E1,-1.386117554E0,1.333887736E1
4.312043375E0,-2.830464020E0,-1.092652817E1,-1.781146088E0,1.142685546E1
4.322051375E0,-1.935175781E0,-9.752669220E0,-2.621348877E0,1.028255475E1
4.332059375E0,-1.429227905E0,-8.618926849E0,-3.909570007E0,9.571485260E0
4.342067375E0,-1.218466187E0,-7.173981628E0,-4.899760895E0,8.772589645E0
4.352074375E0,-1.463356934E0,-5.740562439E0,-5.256618805E0,7.920070195E0
4.362082375E0,-1.657054138E0,-4.435276794E0,-5.107229462E0,6.964287575E0
4.372090375E0,-1.446442108E0,-3.341950378E0,-4.831353149E0,6.050024823E0
4.382098375E0,-1.183139648E0,-2.634671173E0,-4.378694458E0,5.245405301E0
4.392106375E0,-8.788224792E-1,-2.053579559E0,-3.636238403E0,4.267522429E0
4.402114375E0,-6.556365967E-1,-1.676813049E0,-2.616409149E0,3.176028681E0
4.412121375E0,-4.179309082E-1,-1.525328064E0,-1.642833710E0,2.280393507E0
4.422129375E0,-8.187973022E-2,-1.389410706E0,-8.683442688E-1,1.640484126E0
4.432137375E0,1.758842468E-1,-1.089733887E0,-4.718188477E-1,1.200445016E0
4.442145375E0,5.026547241E-1,-6.512956238E-1,-4.170327759E-1,9.223687426E-1
4.452153375E0,8.626560974E-1,-2.929408264E-1,-4.520599365E-1,1.017029034E0
4.462161375E0,1.140178986E0,-1.993853760E-1,-3.757186890E-1,1.216933515E0
4.472168375E0,1.023870850E0,-4.246669006E-1,2.664459229E-2,1.108766624E0
4.482176375E0,4.867877197E-1,-7.020401001E-1,5.894741821E-1,1.037931789E0
4.492184375E0,-1.300794983E-1,-9.255253601E-1,1.456920319E0,1.730934627E0
4.502192375E0,-7.786807251E-1,-1.381776581E0,2.011666718E0,2.561728552E0
4.512200375E0,-1.349593506E0,-2.095342712E0,1.815424805E0,3.083444654E0
4.522208375E0,-1.796564026E0,-2.616259460E0,1.669777679E0,3.586169734E0
4.532215375E0,-2.060165863E0,-3.203338623E0,1.700763245E0,4.171121831E0
4.542223375E0,-2.342778168E0,-4.016447754E0,1.797611847E0,4.985165038E0
4.552231375E0,-2.729274445E0,-5.139412537E0,1.934876404E0,6.132393245E0
4.562239375E0,-3.409160614E0,-6.774013367E0,2.117047577E0,7.873469605E0
4.572247375E0,-5.376519470E0,-9.979447632E0,2.146386566E0,1.153704087E1
4.582250750E0,-8.826545105E0,-1.633059036E1,3.179687805E0,1.883365325E1
4.592257750E0,-1.138457565E1,-2.231858826E1,9.208850098E-1,2.507141747E1
4.602265750E0,-1.277952484E1,-2.942416214E1,-5.973777466E0,3.263102190E1
4.612273750E0,-1.392344604E1,-3.553236008E1,-1.239033417E1,4.012394975E1
4.622281750E0,-1.619123016E1,-3.643243835E1,-8.584947510E0,4.078210174E1
4.632289750E0,-1.599139572E1,-3.215598129E1,-7.318281555E-1,3.592029291E1
4.642297750E0,-1.210323120E1,-2.290761337E1,3.838018799E-1,2.591127669E1
4.652304750E0,-9.630223846E0,-1.611144608E1,2.475851440E-1,1.877181942E1
4.662312750E0,-8.109236755E0,-1.244646744E1,6.845265198E-1,1.487087250E1
4.672320750E0,-6.833140411E0,-1.001327728E1,7.030879211E-1,1.214297585E1
4.682328750E0,-5.846542053E0,-8.344098358E0,3.872447205E-1,1.019588102E1
4.692336750E0,-4.741539917E0,-6.902446289E0,-5.643264771E-2,8.374314909E0
4.702344750E0,-3.670068054E0,-5.580545197E0,-2.887495422E-1,6.685451407E0
4.712351750E0,-2.562221832E0,-4.308490448E0,-4.682263184E-1,5.034610863E0
4.722359750E0,-1.658551025E0,-2.920876007E0,-7.658074951E-1,3.445108020E0
4.732367750E0,-9.104067993E-1,-1.653012543E0,-1.218017120E0,2.246075847E0
4.742375750E0,-2.059716797E-1,-7.960446167E-1,-1.703757019E0,1.891797913E0
4.752383750E0,3.405418396E-1,-1.886077881E-1,-2.120789795E0,2.156221463E0
4.762391750E0,7.261399841E-1,1.387614441E-1,-2.129022675E0,2.253723932E0
4.772398750E0,9.511221313E-1,1.779798889E-1,-1.773362274E0,2.020179176E0
4.782406750E0,1.124761047E0,2.080673218E-2,-1.163979492E0,1.618755260E0
4.792414750E0,1.171763306E0,-3.049159241E-1,-3.652404785E-1,1.264675283E0
4.802422750E0,1.065634003E0,-6.553372192E-1,4.146377563E-1,1.317940502E0
4.812430750E0,8.689430237E-1,-9.840536499E-1,7.490423584E-1,1.511452288E0
4.822438750E0,6.149212646E-1,-1.402433624E0,4.013154602E-1,1.583035796E0
4.832445750E0,5.041516113E-1,-1.946252747E0,-4.725672913E-1,2.065281687E0
4.842453750E0,2.954855347E-1,-2.500849457E0,-1.479523315E0,2.920710350E0
4.852461750E0,-2.029779053E-1,-2.800975342E0,-2.109413452E0,3.512305227E0
4.862469750E0,-8.422984314E-1,-2.950664062E0,-1.647773438E0,3.482964593E0
4.872477750E0,-1.426982574E0,-3.271297302E0,-7.601193237E-1,3.649033666E0
4.882485750E0,-1.950743408E0,-3.913611603E0,-1.499880981E-1,4.375414501E0
4.892492750E0,-2.522704010E0,-4.979994049E0,9.205856323E-2,5.583265266E0
4.902500750E0,-3.189118195E0,-6.357130280E0,2.318678284E-1,7.115992056E0
4.912508750E0,-4.173770599E0,-7.859705658E0,-1.507365417E-1,8.900452548E0
4.922516750E0,-5.042863312E0,-9.243577881E0,-5.751040649E-1,1.054537563E1
4.932524750E0,-6.154601440E0,-1.067041077E1,-1.903890839E0,1.246441275E1
4.942532750E0,-7.960146790E0,-1.322170532E1,-4.825365601E0,1.616977371E1
4.952539750E0,-9.945019226E0,-1.690255096E1,-8.248746643E0,2.127537209E1
4.962547750E0,-1.093281509E1,-2.059851517E1,-9.716594238E0,2.526336234E1
4.972555750E0,-1.170266418E1,-2.372356659E1,-7.537276154E0,2.750582652E1
4.982563750E0,-1.345656693E1,-2.643652496E1,-3.647465057E0,2.988767383E1
4.992571750E0,-1.511571671E1,-2.900203995E1,-2.624043274E-1,3.270584151E1
5.002579750E0,-1.546404236E1,-3.046360062E1,2.199226685E0,3.423454639E1
5.012586750E0,-1.246742386E1,-2.769316177E1,2.350861359E0,3.046103110E1
5.022594750E0,-7.954907684E0,-2.128633484E1,9.358538818E-1,2.274344806E1
5.032602750E0,-5.417683868E0,-1.588347015E1,1.052311707E-1,1.678234180E1
5.042610750E0,-3.903881836E0,-1.213616272E1,-8.771759033E-2,1.274889930E1
5.052618750E0,-2.830314331E0,-9.870923309E0,-1.871109009E-1,1.027038542E1
5.062626750E0,-2.091151428E0,-8.653055878E0,-3.848497009E-1,8.910465735E0
5.072634750E0,-1.609303436E0,-7.674241333E0,-7.253915405E-1,7.874644784E0
5.082641750E0,-1.158441010E0,-6.276597748E0,-9.633966064E-1,6.454904948E0
5.092649750E0,-7.044351196E-1,-4.594545593E0,-1.148411865E0,4.787998314E0
5.102657750E0,-2.040257263E-1,-3.292702789E0,-1.524130554E0,3.634073761E0
5.112665750E0,4.505630493E-1,-2.152972870E0,-2.227817230E0,3.130729763E0
5.122673750E0,9.650431824E-1,-1.302291870E0,-2.898273010E0,3.320731682E0
5.132681750E0,1.257684631E0,-7.188052368E-1,-3.115022278E0,3.435377038E0
5.142688750E0,1.395847321E0,-5.167254639E-1,-2.551144867E0,2.953596973E0
5.152696750E0,1.332528992E0,-5.328918457E-1,-1.417552185E0,2.017191471E0
5.162704750E0,1.088087311E0,-5.210664368E-1,-4.821473694E-1,1.299196026E0
5.172712750E0,8.006849670E-1,-4.605921936E-1,1.234931946E-1,9.319292647E-1
5.182720750E0,4.936734009E-1,-3.830534363E-1,6.252497864E-1,8.839573842E-1
5.192728750E0,1.877096558E-1,-3.153941345E-1,8.385562134E-1,9.153605289E-1
5.202735750E0,-2.058219910E-1,-5.466632080E-1,5.334906006E-1,7.910850623E-1
5.212743750E0,-6.432124329E-1,-1.340761871E0,-4.936734009E-1,1.566868870E0
5.222751750E0,-1.169368286E0,-2.309247894E0,-2.797233124E0,3.811110229E0
5.232759750E0,-1.856439514E0,-3.503913574E0,-5.921087036E0,7.126222681E0
5.242767750E0,-2.652334442E0,-4.430037689E0,-5.285508728E0,7.388958955E0
5.252775750E0,-3.434757385E0,-4.770579529E0,-3.095113678E0,6.643471684E0
5.262782750E0,-4.138743439E0,-4.815186768E0,-8.201445007E-1,6.402176025E0
5.272790750E0,-4.956792297E0,-5.147944794E0,3.698808289E-1,7.155972143E0
5.282798750E0,-6.218668213E0,-6.564898224E0,8.039781189E-1,9.078331556E0
5.292806750E0,-7.147187347E0,-8.305179291E0,4.550537109E-2,1.095720588E1
5.302814750E0,-6.887178040E0,-9.565109253E0,-2.413730621E0,1.203123568E1
5.312822750E0,-6.453829193E0,-1.063418610E1,-4.251009979E0,1.314568032E1
5.322829750E0,-6.058052216E0,-1.129685806E1,-3.017574921E0,1.316908338E1
5.332837750E0,-6.331832886E0,-1.183468964E1,6.264472961E-1,1.343668198E1
5.342845750E0,-7.472011871E0,-1.404978333E1,2.534529419E0,1.611369642E1
5.352853750E0,-9.820029144E0,-1.946252747E1,2.953657837E0,2.199879638E1
5.362861750E0,-1.140089172E1,-2.552237595E1,-5.658233643E-1,2.795875824E1
5.372869750E0,-1.091590027E1,-2.907853088E1,-7.230114899E0,3.189031826E1
5.382877750E0,-1.036175262E1,-2.870266251E1,-7.573500824E0,3.144148004E1
5.392884750E0,-1.010144394E1,-2.612801651E1,-4.900808716E-1,2.801700547E1
5.402892750E0,-9.266180878E0,-2.263847305E1,3.053500214E0,2.465129680E1
5.412900750E0,-8.213270416E0,-1.843895599E1,2.083517303E0,2.029270690E1
5.422908750E0,-7.343728638E0,-1.550760178E1,-2.121089172E-1,1.715986752E1
5.432916750E0,-6.554120636E0,-1.342333603E1,-1.762135620E0,1.504152816E1
5.442924750E0,-5.855223999E0,-1.195878159E1,-1.866768036E0,1.344547983E1
5.452931750E0,-5.291496277E0,-1.067265610E1,-1.404229889E0,1.199488985E1
5.462939750E0,-4.803960114E0,-9.466763763E0,-1.269060974E0,1.069149965E1
5.472947750E0,-4.324357452E0,-8.369096375E0,-1.477727051E0,9.535487336E0
5.482955750E0,-3.728296967E0,-6.873256989E0,-1.914818115E0,8.050365726E0
5.492963750E0,-3.036286011E0,-5.381608887E0,-2.613265686E0,6.708942129E0
5.502971750E0,-2.252964935E0,-3.727249146E0,-3.448828125E0,5.555416513E0
5.512978750E0,-1.603615265E0,-2.430196381E0,-3.865711212E0,4.839541253E0
5.522986750E0,-9.970765686E-1,-1.100361786E0,-4.318220215E0,4.566397220E0
5.532994750E0,-3.785627747E-1,-1.692979431E-1,-4.229754181E0,4.250034353E0
5.543002750E0,-4.071533203E-2,1.492396545E-1,-3.287912750E0,3.291549858E0
5.553010750E0,2.311193848E-1,2.776725769E-1,-2.483635254E0,2.509773357E0
5.563018750E0,4.108955383E-1,2.342628479E-1,-1.877994690E0,1.936640979E0
5.573026750E0,4.349954224E-1,2.588117981E-1,-1.298250275E0,1.393434010E0
5.583034250E0,3.153941345E-1,2.007325745E-1,-5.842350769E-1,6.936120325E-1
5.593042250E0,2.183958435E-1,4.730163574E-2,4.086502075E-2,2.271654444E-1
5.603050250E0,1.172062683E-1,-1.622625732E-1,4.935237122E-1,5.325712220E-1
5.613058250E0,-5.673202515E-2,-4.923262024E-1,7.713459778E-1,9.168305349E-1
5.623066250E0,-2.432441711E-1,-8.047265625E-1,7.532336426E-1,1.128766356E0
5.633074250E0,-4.938230896E-1,-1.113833771E0,8.213420105E-1,1.469384092E0
5.643081250E0,-8.162525940E-1,-1.603615265E0,1.067879333E0,2.092418812E0
5.653089250E0,-1.227447510E0,-2.158810730E0,1.383123779E0,2.842555636E0
5.663097250E0,-1.634750519E0,-2.797532501E0,1.504970398E0,3.572608746E0
5.673105250E0,-2.166893921E0,-3.569626923E0,1.426383820E0,4.412735708E0
5.683113250E0,-3.043620758E0,-4.636159058E0,1.306183777E0,5.697693760E0
5.693121250E0,-4.409081268E0,-6.202801208E0,1.114133148E0,7.691295933E0
5.703129250E0,-5.689219208E0,-7.764204254E0,4.920268250E-1,9.638058585E0
5.713136250E0,-6.717431030E0,-9.471404114E0,-8.464897156E-1,1.164250490E1
5.723144250E0,-7.947572937E0,-1.222013809E1,-3.362008667E0,1.495990618E1
5.733152250E0,-9.510921936E0,-1.665182236E1,-5.550607452E0,1.996371877E1
5.743160250E0,-1.173574539E1,-2.219210129E1,-6.661746826E0,2.597298501E1
5.753168250E0,-1.513188309E1,-2.820240280E1,-5.295687561E0,3.244061831E1
5.763176250E0,-1.869252869E1,-3.336561584E1,-2.332449646E0,3.831599236E1
5.773183250E0,-2.036425232E1,-3.646596863E1,-4.411326599E-1,4.176917809E1
5.783191250E0,-1.762240402E1,-3.538117447E1,2.947370911E-1,3.952800906E1
5.793199250E0,-1.222403000E1,-2.791170731E1,1.098715210E-1,3.047133712E1
5.803207250E0,-9.086404724E0,-1.927781158E1,-6.472540283E-1,2.132171916E1
5.813215250E0,-7.530091095E0,-1.378752869E1,-9.840536499E-1,1.574060294E1
5.823223250E0,-6.477779388E0,-1.045680496E1,-8.032296753E-1,1.232686391E1
5.833230250E0,-5.782774658E0,-8.335865479E0,-9.169931030E-1,1.018665855E1
5.843238250E0,-5.127587128E0,-6.650669861E0,-1.250948639E0,8.490490672E0
5.853246250E0,-4.082460480E0,-4.570296021E0,-1.779349823E0,6.381236171E0
5.863254250E0,-3.118465118E0,-2.875220947E0,-2.197430420E0,4.777072392E0
5.873262250E0,-2.086960144E0,-1.520238647E0,-2.355202332E0,3.494782713E0
5.883270250E0,-1.105151825E0,-6.200106812E-1,-2.213746490E0,2.550773868E0
5.893278250E0,-3.962260437E-1,4.276606750E-1,-2.227068787E0,2.302112967E0
5.903285250E0,7.694000244E-2,7.617658997E-1,-1.854942627E0,2.006743431E0
5.913293250E0,4.638853455E-1,6.363267517E-1,-1.234183502E0,1.464004872E0
5.923301250E0,5.453160095E-1,4.936734009E-1,-4.481680298E-1,8.613579743E-1
5.933309250E0,5.182223511E-1,4.263134766E-1,1.609153748E-1,6.900661876E-1
5.943317250E0,4.263134766E-1,4.674778748E-1,5.676196289E-1,8.499828156E-1
5.953325250E0,3.118016052E-1,5.680686951E-1,7.897576904E-1,1.021586753E0
5.963332250E0,2.844085693E-1,5.977070618E-1,8.777746582E-1,1.099377240E0
5.973340250E0,2.875520325E-1,6.155200195E-1,1.028960266E0,1.233008635E0
5.983348250E0,3.576063538E-1,5.255570984E-1,1.209185486E0,1.366097400E0
5.993356250E0,5.089416504E-1,2.465373230E-1,1.055904236E0,1.197804663E0
6.003364250E0,7.411088562E-1,-2.811154175E-1,2.532733154E-1,8.321151284E-1
6.013372250E0,8.440946960E-1,-8.473878479E-1,-4.695735168E-1,1.284936305E0
6.023380250E0,5.433700562E-1,-1.201551361E0,-3.194357300E-1,1.356840402E0
6.033387250E0,1.796264648E-2,-1.284329224E0,8.307723999E-2,1.287138702E0
6.043395250E0,-5.559439087E-1,-1.582509155E0,-1.411564636E-1,1.683251022E0
6.053403250E0,-1.866468658E0,-3.157084808E0,-1.721420288E0,4.051441416E0
6.063411250E0,-4.833149414E0,-7.402256927E0,-2.033221893E0,9.071203456E0
6.073419250E0,-7.322323151E0,-1.184801193E1,-2.822680206E0,1.421123945E1
6.083427250E0,-8.015531616E0,-1.557256668E1,-6.104006653E0,1.854757335E1
6.093434250E0,-9.529932404E0,-1.901001846E1,-6.756050720E0,2.231243230E1
6.103442250E0,-1.316437454E1,-2.280417847E1,-3.106639709E0,2.651381758E1
6.113450250E0,-1.816292999E1,-2.799658081E1,1.345102844E0,3.339924946E1
6.123458250E0,-2.341460907E1,-3.392590073E1,4.825365601E0,4.150294943E1
6.133466250E0,-2.449476288E1,-3.686713440E1,1.912423096E0,4.430390919E1
6.143474250E0,-1.995171021E1,-3.267465271E1,-5.986051941E0,3.874966436E1
6.153482250E0,-1.378962433E1,-2.193912735E1,-6.469546509E0,2.670831481E1
6.163489250E0,-1.059107574E1,-1.470706650E1,-2.351310425E0,1.827559441E1
6.173497250E0,-8.294701080E0,-1.131242569E1,3.617976379E-1,1.403224638E1
6.183505250E0,-6.605014801E0,-9.383686523E0,9.583071899E-1,1.151512683E1
6.193513250E0,-5.482948151E0,-7.749684448E0,4.664300537E-1,9.504624478E0
6.203521250E0,-4.271816711E0,-6.149961090E0,-1.207987976E-1,7.488994043E0
6.213529250E0,-3.196602631E0,-4.560715942E0,-5.894741821E-1,5.600524805E0
6.223536250E0,-2.277513885E0,-2.850821686E0,-9.916877747E-1,3.781229750E0
6.233544250E0,-1.297352142E0,-1.480271759E0,-1.262923737E0,2.338654191E0
6.243552250E0,-2.960842896E-1,-4.426295471E-1,-1.767374725E0,1.845860299E0
6.253560250E0,4.800517273E-1,4.020639038E-1,-2.518662415E0,2.595335316E0
6.263568250E0,9.824070740E-1,1.046324158E0,-3.244503021E0,3.547776452E0
6.273576250E0,1.162482605E0,1.247805176E0,-3.298540649E0,3.713321152E0
6.283584250E0,1.223256226E0,1.127754822E0,-2.698288879E0,3.170007825E0
6.293591250E0,1.113235016E0,9.005273438E-1,-1.803898773E0,2.303104965E0
6.303599250E0,1.023870850E0,6.593788147E-1,-1.027762756E0,1.593545801E0
6.313607250E0,9.807604980E-1,4.805007935E-1,-5.010081482E-1,1.201574522E0
6.323615250E0,9.771679688E-1,3.017724609E-1,-1.330732727E-1,1.031325532E0
6.333623250E0,9.991722107E-1,9.295669556E-2,1.525328064E-1,1.015013454E0
6.343631250E0,9.976753235E-1,-1.308279419E-1,4.275109863E-1,1.093269246E0
6.353639250E0,8.258326721E-1,-4.460723877E-1,6.938072205E-1,1.167196914E0
6.363646250E0,3.406915283E-1,-8.918453979E-1,6.861730957E-1,1.175709338E0
6.373654250E0,-1.242416382E-1,-1.230441284E0,1.492396545E-1,1.245670186E0
6.383662250E0,-4.442761230E-1,-1.513053589E0,-1.072669373E0,1.907179074E0
6.393670250E0,-1.116378479E0,-2.257455597E0,-3.925736389E0,4.664098292E0
6.403678250E0,-2.645598450E0,-4.113446045E0,-5.015769653E0,7.005538861E0
6.413686250E0,-4.413422241E0,-7.219636688E0,-3.420237579E0,9.126854600E0
6.423693250E0,-6.020480347E0,-1.053404434E1,-3.564537506E0,1.264587686E1
6.433701250E0,-7.427254944E0,-1.268132904E1,-4.814438324E0,1.546476765E1
6.443709250E0,-8.473279724E0,-1.382315460E1,-3.048710175E0,1.649759698E1
6.453717250E0,-1.109313171E1,-1.621173752E1,2.309696960E-1,1.964513557E1
6.463725250E0,-1.605935440E1,-2.069117249E1,3.191064148E0,2.638579870E1
6.473733250E0,-2.362267639E1,-2.903377396E1,7.849975891E0,3.824412362E1
6.483741250E0,-2.735636215E1,-3.533402252E1,2.414029999E0,4.475143840E1
6.493748250E0,-2.542807205E1,-3.759926193E1,-9.313332825E0,4.633604984E1
6.503756250E0,-1.983779709E1,-3.159030762E1,-1.082563797E1,3.884173228E1
6.513764250E0,-1.424647430E1,-2.075523926E1,-2.838846588E0,2.533379239E1
6.523772250E0,-1.086979614E1,-1.447983902E1,8.810678101E-1,1.812717536E1
6.533780250E0,-8.511600037E0,-1.098909805E1,1.009800110E0,1.393654575E1
6.543788250E0,-6.919361115E0,-8.928632812E0,-3.379971313E-1,1.130098598E1
6.553795250E0,-5.907615051E0,-7.512577515E0,-1.784439240E0,9.722291906E0
6.563803250E0,-4.707111511E0,-5.960006104E0,-2.154170380E0,7.894239771E0
6.573811250E0,-3.639531555E0,-4.313280487E0,-2.323168945E0,6.103088763E0
6.583823292E0,-2.792892151E0,-2.847528534E0,-3.265609131E0,5.154887808E0
6.593831292E0,-1.910177765E0,-1.565294952E0,-4.151317291E0,4.830358437E0
6.603839292E0,-1.253044281E0,-4.010160828E-1,-4.527335358E0,4.714626105E0
6.613847292E0,-6.044430542E-1,4.598437500E-1,-4.262386322E0,4.329520163E0
6.623854292E0,-3.177891541E-1,1.077010345E0,-3.183729401E0,3.375955291E0
6.633862292E0,4.161346436E-2,1.244811401E0,-1.842967529E0,2.224368769E0
6.643870292E0,4.212240601E-1,9.629475403E-1,-8.153544617E-1,1.330225760E0
6.653878292E0,5.730084229E-1,5.960604858E-1,1.905537415E-1,8.484912986E-1
6.663886292E0,6.098318481E-1,2.839595032E-1,1.053060150E0,1.249585356E0
6.673894292E0,5.510041809E-1,2.350112915E-1,1.327289886E0,1.456205465E0
6.683902292E0,5.399272156E-1,3.586541748E-1,1.177451477E0,1.344078196E0
6.693909292E0,5.831872559E-1,4.315525818E-1,1.026714935E0,1.257174835E0
6.703917292E0,6.246510315E-1,4.803511047E-1,9.000782776E-1,1.196272127E0
6.713925292E0,6.631210327E-1,5.866300964E-1,8.050259399E-1,1.196633251E0
6.723933292E0,6.554869080E-1,6.457571411E-1,7.313790894E-1,1.175406629E0
6.733941292E0,5.703140259E-1,5.475613403E-1,4.534071350E-1,9.114052554E-1
6.743949292E0,6.735992432E-2,-1.573228455E-1,-7.536827087E-1,7.728683346E-1
6.753957292E0,-5.351371765E-1,-8.397537231E-1,-2.866688690E0,3.034709568E0
6.763964292E0,-9.014254761E-1,-1.322350159E0,-3.686384125E0,4.018781625E0
6.773972292E0,-1.809586945E0,-2.236648865E0,-3.000959473E0,4.157278053E0
6.783980292E0,-4.262236633E0,-4.630021820E0,5.349874878E-1,6.315851074E0
6.793988292E0,-6.945706329E0,-7.244335327E0,2.134860535E0,1.026064619E1
6.803996292E0,-8.922495575E0,-1.052102142E1,4.472698975E-1,1.380227769E1
6.814004292E0,-1.308953018E1,-1.641456573E1,-3.927682343E0,2.135884962E1
6.824012292E0,-1.917587357E1,-2.543390991E1,-8.418942719E0,3.294657034E1
6.834019292E0,-2.505654465E1,-3.218053024E1,-7.474257202E0,4.146421924E1
6.844027292E0,-2.771576477E1,-3.457165787E1,-1.827549591E0,4.434752622E1
6.854035292E0,-2.649969360E1,-3.437930786E1,3.360212402E0,4.353689926E1
6.864043292E0,-2.063548828E1,-2.771591446E1,4.090393982E0,3.479549703E1
6.874051292E0,-1.450154388E1,-1.796608932E1,1.279988251E0,2.312387317E1
6.884059292E0,-1.088730972E1,-1.236803055E1,-6.735992432E-1,1.649107118E1
6.894066292E0,-8.200546875E0,-9.053922272E0,-1.268013153E0,1.228130021E1
6.904074292E0,-6.785240021E0,-7.472610626E0,-1.444645844E0,1.019639119E1
6.914082292E0,-5.907914429E0,-6.646927643E0,-1.453028412E0,9.010904036E0
6.924090292E0,-5.024301910E0,-5.483247528E0,-1.696571960E0,7.628103929E0
6.934098292E0,-4.353247375E0,-4.189936981E0,-2.266436920E0,6.453144267E0
6.944106292E0,-3.691473541E0,-3.050057373E0,-2.973566437E0,5.636658961E0
6.954114292E0,-2.762804718E0,-2.320025482E0,-3.451672211E0,4.992959964E0
6.964121292E0,-1.577120361E0,-1.552870789E0,-4.033212891E0,4.600600237E0
6.974129292E0,-5.604345703E-1,-1.217118988E0,-4.386328583E0,4.586430418E0
6.984137292E0,1.520837402E-1,-1.105750580E0,-4.378694458E0,4.518714304E0
6.994145292E0,6.515950012E-1,-1.116528168E0,-3.979175262E0,4.183903317E0
7.004153292E0,7.812254333E-1,-1.271755371E0,-3.047961731E0,3.393780431E0
7.014161292E0,9.032217407E-1,-1.304686890E0,-2.145338745E0,2.668425701E0
7.024169292E0,1.048868866E0,-1.276395721E0,-1.436263275E0,2.189101215E0
7.034176292E0,1.159189453E0,-1.377285919E0,-9.770182800E-1,2.048219083E0
7.044184292E0,1.292412415E0,-1.641037445E0,-1.070573730E0,2.347224288E0
7.054192292E0,1.122366028E0,-2.094294891E0,-1.794019318E0,2.977294393E0
7.064200292E0,3.947291565E-1,-2.646346893E0,-3.281176758E0,4.233802535E0
7.074208292E0,-4.379891968E-1,-3.368445282E0,-4.930447083E0,5.987283740E0
7.084216292E0,-1.407223663E0,-4.024381256E0,-5.421126709E0,6.896704846E0
7.094224292E0,-2.855761414E0,-4.283642120E0,-4.630470886E0,6.924321172E0
7.104231292E0,-4.408482513E0,-3.981270905E0,-2.272723846E0,6.360071522E0
7.114239292E0,-5.295986938E0,-3.527115326E0,-1.746867371E-1,6.365417161E0
7.124247292E0,-5.378465424E0,-3.013982391E0,1.999990997E0,6.481662145E0
7.134255292E0,-4.874613190E0,-2.778372345E0,3.341800690E0,6.530607819E0
7.144263292E0,-4.381987610E0,-3.157084808E0,3.283272400E0,6.320512444E0
7.154271292E0,-4.350552979E0,-3.832929382E0,3.688030701E0,6.871697703E0
7.164279292E0,-4.838089142E0,-4.812192993E0,3.833079071E0,7.826672544E0
7.174286292E0,-6.580316162E0,-7.398664398E0,4.657564545E0,1.094228967E1
7.184294292E0,-1.144385239E1,-1.555969345E1,-5.384003906E0,2.005126719E1
7.194302292E0,-1.217867432E1,-2.780228485E1,-3.951408005E1,4.982619465E1
7.204310292E0,-1.371986938E1,-2.442635513E1,-1.416519333E1,3.139322129E1
7.214318292E0,-1.711076797E1,-2.037068893E1,7.635022888E0,2.767737204E1
7.224326292E0,-1.879656235E1,-2.258967453E1,7.298522644E0,3.027990397E1
7.234334292E0,-1.973526031E1,-2.379212402E1,2.255659332E0,3.099409080E1
7.244341292E0,-1.926927933E1,-2.220123230E1,-9.113199005E0,3.077743065E1
7.254349292E0,-1.768572235E1,-2.015438873E1,-9.701924744E0,2.851511010E1
7.264357292E0,-1.625814102E1,-1.836605759E1,-1.835183716E0,2.459689249E1
7.274365292E0,-1.392045227E1,-1.583527039E1,5.435197449E-1,2.109099792E1
7.284373292E0,-1.156644745E1,-1.270497986E1,3.113525391E-1,1.718418343E1
7.294381292E0,-9.576635284E0,-9.994416504E0,-7.255412292E-1,1.386097813E1
7.304389292E0,-7.805518341E0,-7.900420990E0,-2.383792877E0,1.135892763E1
7.314396292E0,-6.036946106E0,-6.710695038E0,-4.591701508E0,1.012728339E1
7.324404292E0,-4.752018127E0,-6.668782196E0,-5.871540070E0,1.007617562E1
7.334412292E0,-4.393214264E0,-6.968459015E0,-4.799918518E0,9.534095153E0
7.344420292E0,-4.418212280E0,-6.741081848E0,-3.348386993E0,8.727799247E0
7.354428292E0,-4.318818970E0,-6.043233032E0,-2.761008453E0,7.924394643E0
7.364436292E0,-3.899690552E0,-5.070705414E0,-2.546803894E0,6.885190620E0
7.374444292E0,-3.340303802E0,-4.216731262E0,-2.187700653E0,5.807278724E0
7.384451292E0,-2.424807587E0,-3.176244965E0,-2.175426178E0,4.549802519E0
7.394459292E0,-1.533261566E0,-2.397414551E0,-2.312690735E0,3.667018679E0
7.404467292E0,-1.008452911E0,-1.558409271E0,-2.340233459E0,2.987023498E0
7.414475292E0,-4.463717651E-1,-7.963439941E-1,-1.907483368E0,2.114687757E0
7.424483292E0,4.101470947E-2,-3.249742126E-1,-1.159937897E0,1.205299286E0
7.434491292E0,3.914360046E-1,3.143463135E-2,-4.212240601E-1,5.758819241E-1
7.444499292E0,6.981481934E-1,2.115101624E-1,1.936972046E-1,7.547622511E-1
7.454506292E0,9.677375793E-1,3.137475586E-1,4.260140991E-1,1.102924098E0
7.464514292E0,1.092278595E0,4.845423889E-1,1.999841309E-1,1.211547567E0
7.474522292E0,1.212927704E0,5.548960876E-1,-2.619552612E-1,1.359310061E0
7.484530292E0,1.350042572E0,4.572990417E-1,-7.186555481E-1,1.596309230E0
7.494538292E0,1.460512848E0,2.136058044E-1,-1.058598633E0,1.816413027E0
7.504546292E0,1.468296661E0,-4.535568237E-2,-1.171164551E0,1.878717283E0
7.514554292E0,1.280437317E0,-2.348616028E-1,-1.145118713E0,1.733775234E0
7.524561292E0,8.472381592E-1,-4.141886902E-1,-1.194515991E0,1.521917614E0
7.534569292E0,2.122586060E-1,-6.303392029E-1,-9.217831421E-1,1.136690542E0
7.544577292E0,-5.670208740E-1,-9.578581238E-1,-1.751358032E-1,1.126799630E0
7.554585292E0,-1.298998718E0,-1.490600281E0,3.923341370E-1,2.015741288E0
7.564593292E0,-1.960173798E0,-1.988914032E0,5.764512634E-1,2.851377983E0
7.574601292E0,-3.264411621E0,-3.532055054E0,-2.763253784E-1,4.817483975E0
7.584604625E0,-5.643564148E0,-7.234455872E0,-3.509751434E0,9.823722471E0
7.594611625E0,-9.056466980E0,-1.255858429E1,-9.303603058E0,1.806362819E1
7.604619625E0,-1.068328400E1,-1.496602798E1,-7.893684998E0,2.001061752E1
7.614627625E0,-1.407133850E1,-1.628239059E1,-1.115779724E0,2.154910149E1
7.624635625E0,-2.080104401E1,-2.244073425E1,2.422412567E0,3.069426768E1
7.634643625E0,-2.807771210E1,-2.985227188E1,2.978506165E0,4.108999333E1
7.644651625E0,-3.083827148E1,-3.425012650E1,-3.382216644E0,4.621157369E1
7.654659625E0,-2.827425339E1,-3.211586472E1,-9.542356567E0,4.383969366E1
7.664667625E0,-2.155337952E1,-2.228924927E1,-3.922293549E0,3.125289088E1
7.674674625E0,-1.614527573E1,-1.499102600E1,9.005273438E-1,2.205020949E1
7.684682625E0,-1.223091568E1,-1.134326157E1,2.215243378E0,1.682772072E1
7.694690625E0,-9.479187927E0,-8.696764984E0,2.118245087E0,1.303747242E1
7.704698625E0,-7.822283478E0,-6.861880646E0,1.487606506E0,1.051125577E1
7.714706625E0,-6.712191925E0,-5.684429169E0,3.124003601E-1,8.801354975E0
7.724714625E0,-5.603896637E0,-4.537065125E0,-9.352551270E-1,7.270716582E0
7.734722625E0,-4.515809326E0,-3.622017975E0,-2.095791779E0,6.156613619E0
7.744729625E0,-3.720662842E0,-3.114273834E0,-2.547252960E0,5.480011965E0
7.754737625E0,-3.103945312E0,-2.919828186E0,-2.303559723E0,4.844198647E0
7.764745625E0,-2.608924713E0,-2.890040131E0,-1.899998932E0,4.332299165E0
7.774753625E0,-2.131717072E0,-2.737657013E0,-1.632954254E0,3.834778115E0
7.784761625E0,-1.755399628E0,-2.513722687E0,-1.423988800E0,3.380528613E0
7.794769625E0,-1.365161133E0,-2.245779877E0,-1.218765564E0,2.896995284E0
7.804777625E0,-8.358618164E-1,-1.989363098E0,-1.198258209E0,2.468208510E0
7.814784625E0,-2.326162720E-1,-1.884580994E0,-1.414408722E0,2.367764322E0
7.824792625E0,2.951861572E-1,-1.793719940E0,-1.610650635E0,2.428736618E0
7.834800625E0,6.273454285E-1,-1.618733826E0,-1.788480835E0,2.492493768E0
7.844808625E0,7.111711121E-1,-1.301842804E0,-2.099384308E0,2.570597889E0
7.854816625E0,5.349874878E-1,-8.345146179E-1,-2.133363647E0,2.352417206E0
7.864824625E0,3.832031250E-2,-1.905537415E-1,-1.676962738E0,1.688189326E0
7.874832625E0,-6.012995911E-1,4.592449951E-1,-9.195378113E-1,1.190805169E0
7.884839625E0,-1.125808868E0,8.773255920E-1,-2.383044434E-1,1.447043472E0
7.894847625E0,-1.477128296E0,1.245110779E0,3.906875610E-2,1.932287562E0
7.904855625E0,-1.877994690E0,1.465602264E0,-1.886077881E-1,2.389649964E0
7.914863625E0,-2.718347168E0,1.106049957E0,-1.119971008E0,3.141192909E0
7.924871625E0,-3.870800629E0,-5.673202515E-1,-2.930156708E0,4.887818338E0
7.934879625E0,-4.573738861E0,-2.816692657E0,-3.335962830E0,6.323092020E0
7.944887625E0,-5.478457489E0,-4.628524933E0,-1.866169281E0,7.410757539E0
7.954895625E0,-6.972201233E0,-6.387816467E0,-6.688092041E-1,9.479614708E0
7.964902625E0,-8.906329193E0,-8.989855499E0,-1.022523651E0,1.269589525E1
7.974910625E0,-1.089015381E1,-1.260199402E1,-3.817361755E0,1.708736241E1
7.984918625E0,-1.290526337E1,-1.670166870E1,-5.836363220E0,2.189873731E1
7.994926625E0,-1.566237991E1,-2.042322968E1,-4.631518707E0,2.615089713E1
8.004934625E0,-1.863849106E1,-2.364602783E1,-2.735711060E0,3.023263297E1
8.014942625E0,-2.061004120E1,-2.646421738E1,-8.553213501E-1,3.355383993E1
8.024950625E0,-2.030961594E1,-2.788147018E1,-1.065783691E0,3.451076316E1
8.034957625E0,-1.681049240E1,-2.534095322E1,-2.239792328E0,3.049218317E1
8.044965625E0,-1.280287628E1,-1.877755188E1,-1.521585846E0,2.277773736E1
8.054973625E0,-1.084554657E1,-1.406669815E1,-2.457888794E-1,1.776396041E1
8.064981625E0,-9.326355743E0,-1.084943848E1,3.531156921E-1,1.431139118E1
8.074989625E0,-7.886499939E0,-8.446335754E0,3.706292725E-1,1.156178338E1
8.084997625E0,-6.523883514E0,-6.613397369E0,1.568737793E-1,9.291000498E0
8.095005625E0,-5.234015808E0,-5.050796814E0,-2.154020691E-1,7.276803418E0
8.105012625E0,-4.081712036E0,-3.719764709E0,-8.270301819E-1,5.583995125E0
8.115020625E0,-3.047512665E0,-2.497107239E0,-1.563947754E0,4.238963385E0
8.125028625E0,-2.100432129E0,-1.495390320E0,-2.284399567E0,3.444777020E0
8.135036625E0,-1.311572571E0,-7.491920471E-1,-2.840193787E0,3.216863702E0
8.145044625E0,-8.568182373E-1,-3.327580261E-1,-3.069965973E0,3.204614871E0
8.155052625E0,-7.315287781E-1,6.616241455E-2,-3.242706757E0,3.324854723E0
8.165060625E0,-7.478448486E-1,1.528321838E-1,-3.713777161E0,3.791407442E0
8.175068625E0,-9.241781616E-1,-5.298980713E-2,-4.167483673E0,4.269055324E0
8.185075625E0,-1.155746613E0,-5.498066711E-1,-4.235292664E0,4.424448164E0
8.195083625E0,-1.256038055E0,-1.140328674E0,-3.926784210E0,4.277571194E0
8.205091625E0,-1.099164276E0,-1.761087799E0,-3.735332336E0,4.273441237E0
8.215099625E0,-8.375083923E-1,-2.500999146E0,-3.814367981E0,4.637436806E0
8.225107625E0,-8.017327881E-1,-3.106040955E0,-3.874991913E0,5.030489857E0
8.235115625E0,-9.961784363E-1,-3.476520538E0,-3.875890045E0,5.301046139E0
8.245123625E0,-1.275946655E0,-3.770209808E0,-3.961661682E0,5.615806723E0
8.255130625E0,-1.603914642E0,-4.152215424E0,-4.042044525E0,6.012616656E0
8.265138625E0,-1.972148895E0,-4.622687073E0,-3.876189423E0,6.346924568E0
8.275146625E0,-2.375859375E0,-5.204527130E0,-3.581452332E0,6.749711936E0
8.285154625E0,-2.846331024E0,-5.823340302E0,-3.453468475E0,7.344340479E0
8.295162625E0,-3.611839142E0,-6.363566895E0,-3.536994781E0,8.127158033E0
8.305170625E0,-4.833897858E0,-6.855144653E0,-4.290078735E0,9.421483549E0
8.315178625E0,-6.348448334E0,-7.255711670E0,-4.230652313E0,1.052836963E1
8.325186625E0,-8.004754028E0,-7.548502808E0,-4.131109314E0,1.175253359E1
8.335193625E0,-9.735305328E0,-7.901618500E0,-4.001628571E0,1.316148836E1
8.345201625E0,-1.113773895E1,-8.223299561E0,-1.981429596E0,1.398563362E1
8.355209625E0,-1.202793777E1,-8.892557831E0,-1.232237549E0,1.500890673E1
8.365217625E0,-1.285841080E1,-1.028870453E1,-1.923500061E0,1.657998859E1
8.375225625E0,-1.333262466E1,-1.197883987E1,-2.272574158E0,1.806698864E1
8.385233625E0,-1.347138611E1,-1.343605957E1,-2.050136719E0,1.913658802E1
8.395241625E0,-1.338112381E1,-1.422357193E1,4.492158508E-1,1.953372130E1
8.405248625E0,-1.366807709E1,-1.510164597E1,2.263742523E0,2.049391550E1
8.415256625E0,-1.462638428E1,-1.732377502E1,1.550775146E-1,2.267307538E1
8.425264625E0,-1.516855682E1,-1.945968338E1,-3.898043976E0,2.497917413E1
8.435272625E0,-1.545565979E1,-1.953797058E1,-4.243974609E0,2.527095239E1
8.445280625E0,-1.518367538E1,-1.708801529E1,-4.772076416E-1,2.286420766E1
8.455288625E0,-1.410427002E1,-1.400412827E1,1.991309052E0,1.997526853E1
8.465296625E0,-1.305180862E1,-1.185205353E1,2.492915955E0,1.780549104E1
8.475304625E0,-1.215038315E1,-1.021535706E1,2.152074738E0,1.601926203E1
8.485311625E0,-1.128383514E1,-8.772956543E0,1.379531250E0,1.435941533E1
8.495319625E0,-1.034019745E1,-7.467820587E0,1.880090332E-1,1.275630726E1
8.505327625E0,-9.269623718E0,-6.323899384E0,-1.124162292E0,1.127747171E1
8.515335625E0,-8.059091034E0,-5.444478149E0,-1.897603912E0,9.909197305E0
8.525343625E0,-6.780000916E0,-4.862488403E0,-1.946701813E0,8.567488187E0
8.535351625E0,-5.443130951E0,-4.323908386E0,-1.958976288E0,7.222288168E0
8.545359625E0,-3.978726196E0,-3.886967010E0,-2.128124542E0,5.955475527E0
8.555366625E0,-2.504591675E0,-3.418591003E0,-2.462529144E0,4.901407318E0
8.565374625E0,-1.127904510E0,-3.004402313E0,-3.033890991E0,4.416231017E0
8.575382625E0,1.077758789E-2,-2.737507324E0,-3.548969879E0,4.482103269E0
8.585390875E0,9.283694458E-1,-2.791544952E0,-3.933819580E0,4.912181749E0
8.595398875E0,1.412163391E0,-2.630180511E0,-3.871249695E0,4.888622420E0
8.605406875E0,1.576072540E0,-2.419568481E0,-3.684288483E0,4.681057350E0
8.615414875E0,1.710043945E0,-2.381248169E0,-3.565884705E0,4.616289296E0
8.625422875E0,1.743873596E0,-2.318378906E0,-3.154540100E0,4.285685373E0
8.635429875E0,1.546883240E0,-2.231559448E0,-2.668201447E0,3.806836520E0
8.645437875E0,1.263672180E0,-2.215842133E0,-2.272574158E0,3.416345568E0
8.655445875E0,8.933422852E-1,-2.301015015E0,-2.183060303E0,3.295221210E0
8.665453875E0,3.365002441E-1,-2.552791443E0,-2.315684509E0,3.463000334E0
8.675461875E0,-1.210981750E-1,-2.967429199E0,-2.405497742E0,3.821873913E0
8.685469875E0,-3.454815674E-1,-3.124153290E0,-2.141746216E0,3.803520494E0
8.695477875E0,-6.096821594E-1,-2.993924103E0,-1.625469818E0,3.460844694E0
8.705485875E0,-1.045725403E0,-2.716700592E0,-9.392967224E-1,3.058804024E0
8.715492875E0,-1.608854370E0,-2.508034515E0,-3.722758484E-1,3.002871762E0
8.725500875E0,-2.676284637E0,-2.553390198E0,-5.545967102E-1,3.740304596E0
8.735508875E0,-4.440964966E0,-3.039279785E0,-1.006207581E0,5.474654796E0
8.745516875E0,-6.592141571E0,-4.332290955E0,-2.505938873E0,8.276762957E0
8.755524875E0,-8.429420929E0,-6.497538300E0,-5.133724365E0,1.181644054E1
8.765532875E0,-9.856104126E0,-9.100625153E0,-6.718179474E0,1.500326972E1
8.775540875E0,-1.110944778E1,-1.184262314E1,-8.466543732E0,1.831256169E1
8.785548875E0,-1.204290665E1,-1.341360626E1,-5.697452087E0,1.890548581E1
8.795555875E0,-1.294942154E1,-1.338426727E1,1.390159149E0,1.867508156E1
8.805563875E0,-1.536764282E1,-1.471140747E1,4.382736053E0,2.172091920E1
8.815571875E0,-1.882275787E1,-1.821397385E1,4.608167267E0,2.659474126E1
8.825579875E0,-1.906031387E1,-2.078966766E1,-1.426084442E0,2.824074297E1
8.835587875E0,-1.527738052E1,-2.071437424E1,-1.234782257E1,2.854737077E1
8.845595875E0,-1.457863358E1,-1.955772949E1,-7.608827362E0,2.555260444E1
8.855603875E0,-1.540192154E1,-1.750489838E1,1.164278870E0,2.334515366E1
8.865610875E0,-1.463910782E1,-1.492426483E1,2.139650574E0,2.101464401E1
8.875618875E0,-1.356239685E1,-1.272054749E1,9.490264893E-1,1.861858179E1
8.885626875E0,-1.253583160E1,-1.089629105E1,-4.846920776E-1,1.661659288E1
8.895634875E0,-1.152079239E1,-9.179511108E0,-1.563498688E0,1.481339291E1
8.905642875E0,-1.073777069E1,-7.823181610E0,-1.913470917E0,1.342249086E1
8.915650875E0,-1.011865814E1,-7.001989288E0,-1.531914368E0,1.240007493E1
8.925658875E0,-9.363628235E0,-6.419550476E0,-1.056502991E0,1.140194547E1
8.935666875E0,-8.352630615E0,-5.970634003E0,-1.053808594E0,1.032111531E1
8.945673875E0,-7.094047852E0,-5.696254578E0,-1.507215729E0,9.221959140E0
8.955681875E0,-5.686674500E0,-5.365143127E0,-2.077080688E0,8.089331977E0
8.965689875E0,-4.163442078E0,-4.971461792E0,-2.458188171E0,6.934866356E0
8.975697875E0,-2.656076660E0,-4.515659637E0,-2.537672882E0,5.821143259E0
8.985705875E0,-1.236279144E0,-4.058959351E0,-2.578986969E0,4.965351037E0
8.995713875E0,6.137237549E-3,-3.706143036E0,-2.461481323E0,4.449092511E0
9.005721875E0,8.147557068E-1,-3.719615021E0,-2.101479950E0,4.349204611E0
9.015729875E0,1.428030396E0,-3.433559875E0,-1.764830017E0,4.116215400E0
9.025736875E0,1.869911499E0,-3.021167450E0,-1.511856079E0,3.861312028E0
9.035744875E0,2.391876068E0,-2.968477020E0,-1.368603973E0,4.050432542E0
9.045752875E0,2.750230865E0,-3.007096710E0,-1.111738129E0,4.224022029E0
9.055760875E0,2.746189270E0,-2.876867523E0,-7.093748474E-1,4.039942441E0
9.065768875E0,2.585124207E0,-2.630030823E0,-4.730163574E-1,3.718020141E0
9.075776875E0,2.301913147E0,-2.373913422E0,-3.456312561E-1,3.324715031E0
9.085784875E0,1.898801422E0,-1.972298584E0,-8.159532166E-1,2.856779340E0
9.095792875E0,1.345102844E0,-1.410217438E0,-1.652862854E0,2.555380695E0
9.105799875E0,4.754113770E-1,-9.891430664E-1,-2.394271088E0,2.633809793E0
9.115807875E0,-8.714877319E-1,-7.650590515E-1,-3.131787415E0,3.339595579E0
9.125815875E0,-2.457290039E0,-7.749385071E-1,-2.560425568E0,3.632434874E0
9.135823875E0,-3.673959961E0,-1.397044830E0,-1.235381012E0,4.120179887E0
9.145831875E0,-3.991749115E0,-2.047891388E0,-1.243613892E0,4.655587572E0
9.155839875E0,-3.855682068E0,-2.574496307E0,-9.801617432E-1,4.738674128E0
9.165847875E0,-3.739673309E0,-3.324736176E0,6.469546509E-1,5.045550259E0
9.175855875E0,-4.085304565E0,-4.301604767E0,1.696422272E0,6.170199793E0
9.185862875E0,-4.909790039E0,-5.644462280E0,2.228865051E0,7.806012559E0
9.195870875E0,-7.551646271E0,-7.674540710E0,2.851270752E0,1.113802861E1
9.205878875E0,-1.538350983E1,-1.430679886E1,-3.774401093E0,2.134438970E1
9.215886875E0,-1.817730011E1,-2.771756104E1,-3.058529755E1,4.510141744E1
9.225894875E0,-1.614108444E1,-2.623728928E1,-1.592493393E1,3.467756445E1
9.235902875E0,-1.867591324E1,-2.041245209E1,7.227869568E0,2.859545478E1
9.245910875E0,-2.229029709E1,-2.261721725E1,8.064629517E0,3.276330432E1
9.255918875E0,-2.045541275E1,-2.322764786E1,9.506281586E0,3.237772267E1
9.265925875E0,-1.583527039E1,-1.896975220E1,5.106031952E0,2.523249589E1
9.275933875E0,-1.432730621E1,-1.527932648E1,1.644929352E0,2.101036205E1
9.285941875E0,-1.297382080E1,-1.272204437E1,-2.395019531E-1,1.817217104E1
9.295949875E0,-1.161285095E1,-1.076531342E1,-5.950126648E-1,1.584627149E1
9.305957875E0,-1.132874176E1,-9.745035095E0,-1.250050507E0,1.499562353E1
9.315965875E0,-1.097053665E1,-9.706714783E0,-2.095791779E0,1.479747713E1
9.325973875E0,-9.666149139E0,-9.346563721E0,-2.468067627E0,1.367055414E1
9.335981875E0,-8.135581970E0,-8.398585052E0,-2.652484131E0,1.198997902E1
9.345988875E0,-6.715934143E0,-7.324718170E0,-2.983146515E0,1.037566532E1
9.355996875E0,-5.660778351E0,-6.118676147E0,-3.022215271E0,8.866588661E0
9.366004875E0,-4.802313538E0,-4.520599365E0,-3.237916718E0,7.347253814E0
9.376012875E0,-3.914360046E0,-3.077151031E0,-3.764371948E0,6.241920314E0
9.386020875E0,-2.870730286E0,-1.954785004E0,-4.668491821E0,5.818684789E0
9.396028875E0,-1.905537415E0,-1.191671906E0,-5.379513245E0,5.830121570E0
9.406036875E0,-1.179696808E0,-6.544390869E-1,-5.442681885E0,5.607384522E0
9.416044875E0,-7.596702576E-1,-5.194198608E-1,-4.665198669E0,4.755099843E0
9.426051875E0,-6.727011108E-1,-5.828878784E-1,-3.343746643E0,3.460191711E0
9.436059875E0,-5.742059326E-1,-8.436456299E-1,-1.705104218E0,1.987166524E0
9.446067875E0,-1.842668152E-1,-1.116378479E0,-3.814068604E-1,1.194037839E0
9.456075875E0,3.023712158E-1,-1.301842804E0,3.264710999E-1,1.375793014E0
9.466083875E0,6.765930176E-1,-1.455722809E0,5.292993164E-1,1.690285412E0
9.476091875E0,9.728269958E-1,-1.772164764E0,5.206173706E-1,2.087582995E0
9.486099875E0,9.928852844E-1,-2.081571350E0,7.390132141E-1,2.421755769E0
9.496107875E0,5.599855042E-1,-2.401456146E0,1.213676147E0,2.748378645E0
9.506114875E0,-2.956352234E-1,-2.477947083E0,1.789977722E0,3.071097878E0
9.516122875E0,-1.565893707E0,-2.395618286E0,1.828597412E0,3.396288941E0
9.526130875E0,-3.016227722E0,-3.115621033E0,1.333876190E0,4.536953800E0
9.536138875E0,-4.760700073E0,-4.518503723E0,7.400610352E-1,6.605212443E0
9.546146875E0,-6.847809906E0,-7.089557190E0,1.660646667E0,9.995602484E0
9.556154875E0,-8.225095825E0,-9.668693848E0,1.633553009E0,1.279860686E1
9.566162875E0,-9.366771698E0,-1.152124146E1,-5.688171387E-1,1.485930583E1
9.576170875E0,-1.045485901E1,-1.257355316E1,-2.302212524E0,1.651358527E1
9.586178000E0,-1.195279404E1,-1.345462097E1,-1.083596649E0,1.802970583E1
9.596186000E0,-1.406280624E1,-1.476873825E1,1.414408722E0,2.044208162E1
9.606194000E0,-1.813239349E1,-1.748005005E1,2.495610352E0,2.530936417E1
9.616202000E0,-2.176773376E1,-1.994901581E1,1.285526733E0,2.955418826E1
9.626210000E0,-2.206067459E1,-2.123394379E1,-2.606978760E0,3.073027937E1
9.636218000E0,-1.976699432E1,-2.042233154E1,-6.546037445E0,2.916601269E1
9.646226000E0,-1.555580154E1,-1.658805496E1,-4.988376617E0,2.328154699E1
9.656234000E0,-1.255439301E1,-1.308219543E1,-1.794468384E0,1.822022881E1
9.666242000E0,-1.064211960E1,-1.062280975E1,-5.468128967E-1,1.504652122E1
9.676249000E0,-8.918154602E0,-8.743916931E0,-2.409988403E-1,1.249190319E1
9.686257000E0,-7.288942566E0,-7.164551239E0,-5.548960876E-1,1.023559416E1
9.696265000E0,-5.933660889E0,-5.707780609E0,-1.207089844E0,8.321307404E0
9.706273000E0,-4.719535675E0,-4.383334808E0,-2.016007690E0,6.749216846E0
9.716281000E0,-3.647165680E0,-3.106639709E0,-2.595901794E0,5.449012196E0
9.726289000E0,-2.656525726E0,-1.991758118E0,-3.048410797E0,4.507442481E0
9.736297000E0,-1.796264648E0,-1.379680939E0,-3.218008118E0,3.935182642E0
9.746305000E0,-1.082848206E0,-1.017733612E0,-2.918780365E0,3.275304682E0
9.756312000E0,-4.451742554E-1,-1.006806335E0,-2.278112640E0,2.530145513E0
9.766320000E0,1.847158813E-1,-1.233285370E0,-1.461261292E0,1.921040687E0
9.776328000E0,6.616241455E-1,-1.434916077E0,-7.372169495E-1,1.743622519E0
9.786336000E0,1.012644196E0,-1.593885498E0,-2.817141724E-1,1.909262193E0
9.796344000E0,1.205592957E0,-1.709894257E0,3.263214111E-2,2.092428637E0
9.806352000E0,1.395697632E0,-1.822160797E0,4.189787292E-1,2.333192025E0
9.816360000E0,1.539847870E0,-2.048041077E0,5.333409119E-1,2.617261210E0
9.826368000E0,1.609602814E0,-2.312541046E0,2.067201233E-1,2.825137256E0
9.836375000E0,1.349593506E0,-2.464774475E0,2.918930054E-2,2.810225589E0
9.846383000E0,7.650590515E-1,-2.409838715E0,2.694396973E-2,2.528510225E0
9.856391000E0,3.098556519E-2,-2.411784668E0,1.853146362E-1,2.419092165E0
9.866399000E0,-7.975415039E-1,-2.594404907E0,1.216969299E-1,2.716950389E0
9.876407000E0,-1.751358032E0,-3.260669403E0,-6.471043396E-1,3.757387914E0
9.886415000E0,-2.915487213E0,-4.456831970E0,-1.670975189E0,5.581717924E0
9.896423000E0,-4.553381195E0,-6.145470428E0,-2.401905212E0,8.016809574E0
9.906431000E0,-6.683002625E0,-8.295000458E0,-3.573967896E0,1.123578227E1
9.916439000E0,-8.387358398E0,-9.512867889E0,-4.109404449E0,1.333152809E1
9.926446000E0,-9.817783813E0,-1.009575577E1,-4.857848053E0,1.489670605E1
9.936454000E0,-1.151330795E1,-1.173439819E1,-4.079167328E0,1.693788555E1
9.946462000E0,-1.563289124E1,-1.494851440E1,-4.036056976E0,2.200307086E1
9.956470000E0,-2.065614532E1,-1.912961975E1,-4.327051849E0,2.848406694E1
9.966478000E0,-2.346894608E1,-2.217339020E1,-3.817212067E0,3.251187123E1
9.976486000E0,-2.413027084E1,-2.307765976E1,-1.114282837E0,3.340793285E1
9.986494000E0,-2.372880569E1,-2.297976334E1,2.677482147E0,3.314052886E1
9.996502000E0,-2.006442581E1,-1.915356995E1,3.759881287E0,2.799244777E1
1.000650900E1,-1.484373230E1,-1.368124969E1,1.867217102E0,2.027312215E1
1.001651700E1,-1.154070099E1,-1.037746994E1,-4.481680298E-1,1.552676773E1
1.002652500E1,-9.182504883E0,-8.220455475E0,-2.025288391E0,1.248983896E1
1.003653300E1,-7.529192963E0,-6.993307343E0,-2.222129059E0,1.051346526E1
1.004654100E1,-6.335275726E0,-6.462361450E0,-1.793121185E0,9.225677082E0
1.005654900E1,-5.395230560E0,-6.047574005E0,-1.325044556E0,8.212028204E0
1.006655700E1,-4.387077026E0,-4.993615723E0,-1.244661713E0,6.762531005E0
1.007656500E1,-3.344046021E0,-3.769161987E0,-1.757944336E0,5.336627602E0
1.008657300E1,-2.329006805E0,-2.810854797E0,-2.344873810E0,4.338618510E0
1.009658000E1,-1.199455719E0,-2.387984161E0,-2.926115112E0,3.962740469E0
1.010658800E1,-2.354603577E-1,-2.135459290E0,-3.600762177E0,4.192984165E0
1.011659600E1,4.370910645E-1,-1.983225861E0,-3.829636230E0,4.334783394E0
1.012660400E1,8.376580811E-1,-2.047891388E0,-3.758384399E0,4.361305251E0
1.013661200E1,9.439370728E-1,-2.243534546E0,-3.257525940E0,4.066440668E0
1.014662000E1,1.098715210E0,-2.356250153E0,-2.622546387E0,3.692809154E0
1.015662800E1,1.270557861E0,-2.308499451E0,-2.221230927E0,3.446353699E0
1.016663600E1,1.360820160E0,-2.147584076E0,-2.535128174E0,3.590379329E0
1.017664300E1,8.988807678E-1,-1.804796906E0,-2.940934296E0,3.565721952E0
1.018665100E1,-1.480421448E-1,-1.420695648E0,-2.480342102E0,2.862235061E0
1.019665900E1,-9.107061768E-1,-1.365759888E0,-2.193239136E0,2.739522535E0
1.020666700E1,-1.445543976E0,-1.713037720E0,-2.191592560E0,3.134832302E0
1.021667500E1,-2.036664734E0,-2.336491241E0,-1.851499786E0,3.610435710E0
1.022668300E1,-2.656076660E0,-2.915786591E0,-8.262817383E-2,3.945045257E0
1.023669100E1,-3.413202209E0,-3.560495911E0,2.067500610E0,5.348050040E0
1.024669900E1,-4.344415741E0,-4.231400757E0,3.169658661E0,6.842911407E0
1.025670700E1,-5.629194031E0,-5.143304443E0,3.444187775E0,8.366829475E0
1.026671400E1,-7.189549255E0,-7.083869019E0,3.416195984E0,1.065557196E1
1.027672200E1,-1.006941055E1,-1.031654663E1,3.088078308E0,1.474314725E1
1.028673000E1,-1.417567154E1,-1.540596313E1,-1.054407349E0,2.096199271E1
1.029673800E1,-1.664074539E1,-2.176848221E1,-1.326197159E1,3.044110897E1
1.030674600E1,-1.846664841E1,-2.419044571E1,-1.251053421E1,3.290453211E1
1.031675400E1,-2.218641312E1,-2.377565826E1,-2.401007080E-1,3.252040131E1
1.032676200E1,-2.360785721E1,-2.362881363E1,5.585784302E0,3.386521433E1
1.033677000E1,-2.037383240E1,-2.015603531E1,5.135820007E0,2.911589691E1
1.034677800E1,-1.556613007E1,-1.480810638E1,3.990102539E0,2.185189553E1
1.035678500E1,-1.250155289E1,-1.104972198E1,2.603984985E0,1.688685638E1
1.036679300E1,-1.052655991E1,-8.696166229E0,1.362466736E0,1.372181060E1
1.037680100E1,-8.981921997E0,-7.193441162E0,4.340972900E-3,1.150741228E1
1.038680900E1,-7.430997162E0,-5.930517426E0,-1.292711792E0,9.594887156E0
1.039681700E1,-5.815706177E0,-4.688101044E0,-2.718796234E0,7.949376246E0
1.040682500E1,-4.361031189E0,-3.499722290E0,-3.759881287E0,6.738201275E0
1.041683300E1,-3.268303528E0,-2.358345795E0,-3.914809113E0,5.618659380E0
1.042684100E1,-2.385738831E0,-1.354233856E0,-4.007616119E0,4.856612612E0
1.043684800E1,-1.672771454E0,-7.741900635E-1,-4.771477661E0,5.115127922E0
1.044685600E1,-1.219813385E0,-8.589138794E-1,-5.143753510E0,5.355733182E0
1.045686400E1,-1.127904510E0,-1.445244598E0,-4.721631317E0,5.065047169E0
1.046687200E1,-1.275796967E0,-2.224673767E0,-3.725003815E0,4.522442337E0
1.047688000E1,-1.133592682E0,-2.715503082E0,-3.012036438E0,4.210861297E0
1.048688800E1,-9.526190186E-1,-2.715952148E0,-2.566263428E0,3.856110352E0
1.049689600E1,-8.548722839E-1,-2.590063934E0,-2.226020966E0,3.520569151E0
1.050690400E1,-7.725434875E-1,-2.702779541E0,-1.879940643E0,3.381718130E0
1.051691200E1,-6.661148071E-1,-2.707419891E0,-1.629960480E0,3.229644341E0
1.052692000E1,-7.613168335E-1,-2.986140289E0,-1.953737183E0,3.648797902E0
1.053692700E1,-8.680448914E-1,-3.537593536E0,-2.951711884E0,4.688355043E0
1.054693500E1,-1.027014313E0,-4.334685974E0,-3.749253387E0,5.822470426E0
1.055694300E1,-1.393751678E0,-5.075944519E0,-3.568429413E0,6.359358849E0
1.056695100E1,-2.000589752E0,-5.556894379E0,-2.826422424E0,6.547526114E0
1.057695900E1,-3.283721466E0,-5.522016907E0,-1.199156342E0,6.535554553E0
1.058696725E1,-5.010380859E0,-4.938380585E0,1.509311371E0,7.195105279E0
1.059697525E1,-6.231691132E0,-4.703219604E0,2.950664062E0,8.346296629E0
1.060698325E1,-7.861651611E0,-5.668412476E0,3.614683228E0,1.034419648E1
1.061699125E1,-1.003797592E1,-7.373516693E0,4.164639587E0,1.313293310E1
1.062699825E1,-1.136451736E1,-9.114845581E0,2.011217651E0,1.470638165E1
1.063700625E1,-1.106289459E1,-9.737550659E0,-1.852248230E0,1.485390027E1
1.064701425E1,-1.128937363E1,-1.024649231E1,-2.478994904E0,1.544622858E1
1.065702225E1,-1.314656158E1,-1.247266296E1,-3.000660095E0,1.836854278E1
1.066703025E1,-1.712184494E1,-1.727228210E1,-6.922504578E0,2.528656507E1
1.067703825E1,-1.903651337E1,-2.133483398E1,-7.455396423E0,2.954905951E1
1.068704625E1,-1.806398575E1,-2.166998703E1,-3.619922333E0,2.844292103E1
1.069705425E1,-1.600920868E1,-2.019645126E1,6.430627441E-1,2.577993281E1
1.070706225E1,-1.437550598E1,-1.852367981E1,2.954705658E0,2.363286211E1
1.071706925E1,-1.249571503E1,-1.636950943E1,3.137475586E0,2.083140624E1
1.072707725E1,-1.108055786E1,-1.344668747E1,7.855664063E-1,1.744159629E1
1.073708525E1,-1.036744080E1,-1.089209976E1,-2.448608093E0,1.523539784E1
1.074709325E1,-9.792037354E0,-8.688681793E0,-4.529730377E0,1.385264033E1
1.075710125E1,-9.452094269E0,-7.514972534E0,-3.509901123E0,1.257522581E1
1.076710925E1,-8.995393982E0,-6.789730682E0,-1.932331696E0,1.143466053E1
1.077711725E1,-8.148155823E0,-5.948779449E0,-1.414857788E0,1.018735701E1
1.078712525E1,-7.068750458E0,-5.238805847E0,-1.750310211E0,8.970836392E0
1.079713325E1,-5.738317108E0,-4.369713135E0,-2.803669739E0,7.738426204E0
1.080714025E1,-4.176914062E0,-3.390150146E0,-3.924538879E0,6.658958966E0
1.081714825E1,-2.603386230E0,-2.681224365E0,-4.498146057E0,5.848068221E0
1.082715625E1,-1.275647278E0,-2.430795135E0,-4.356241150E0,5.149065733E0
1.083716425E1,-3.957769775E-1,-2.591560822E0,-3.594774628E0,4.449183243E0
1.084717225E1,2.568658447E-1,-2.675386505E0,-2.427801361E0,3.621863120E0
1.085718025E1,8.327183533E-1,-2.675985260E0,-1.443148956E0,3.152300093E0
1.086718825E1,1.037941589E0,-2.499053192E0,-4.688250732E-1,2.746340574E0
1.087719625E1,1.135388947E0,-2.263592834E0,1.510359192E-1,2.536882423E0
1.088720425E1,1.171763306E0,-2.097737732E0,5.725593567E-1,2.470092519E0
1.089721225E1,1.256038055E0,-1.885479126E0,6.909631348E-1,2.368563528E0
1.090721925E1,1.320703583E0,-1.703607330E0,4.215234375E-1,2.196410230E0
1.091722725E1,1.367256775E0,-1.691781921E0,-2.026785278E-1,2.184627141E0
1.092723525E1,1.241817627E0,-1.684447174E0,-1.063837738E0,2.347599632E0
1.093724325E1,7.870632935E-1,-1.598675537E0,-1.905387726E0,2.608780268E0
1.094725125E1,-5.748046875E-2,-1.497935028E0,-2.101779327E0,2.581586662E0
1.095725925E1,-1.136436768E0,-1.105750580E0,-1.478475494E0,2.167962790E0
1.096726725E1,-1.998194733E0,-5.752537537E-1,-5.090913391E-1,2.140764598E0
1.097727525E1,-2.825224915E0,-5.135820007E-1,-8.726852417E-2,2.872851908E0
1.098728325E1,-4.409680023E0,-9.156459045E-1,-6.426136780E-1,4.549355742E0
1.099729025E1,-7.651937714E0,-2.017654266E0,-6.535409546E-1,7.940415310E0
1.100729825E1,-1.012898666E1,-4.611011353E0,-1.979184265E0,1.130375897E1
1.101730625E1,-1.055964111E1,-8.297844543E0,-5.783223724E0,1.462210386E1
1.102731425E1,-9.908195801E0,-1.110705276E1,-7.241640930E0,1.655235115E1
1.103732225E1,-1.010413834E1,-1.210607529E1,-1.898801422E0,1.588257275E1
1.104733025E1,-1.349144440E1,-1.405157959E1,2.388732605E0,1.962579946E1
1.105733825E1,-2.061827408E1,-2.003538620E1,4.550237732E0,2.910729444E1
1.106734625E1,-2.890863419E1,-2.820330093E1,3.361709290E0,4.052698365E1
1.107735425E1,-3.005105850E1,-3.192037125E1,-9.751471710E0,4.491177371E1
1.108736125E1,-2.502181686E1,-2.789359497E1,-1.312500641E1,3.970402691E1
1.109736925E1,-1.868549332E1,-1.926793213E1,-1.822160797E0,2.690206570E1
1.110737725E1,-1.452459595E1,-1.382929184E1,3.000211029E0,2.027842367E1
1.111738525E1,-1.127230911E1,-1.035741165E1,3.553610229E0,1.571524974E1
1.112739325E1,-8.907227325E0,-7.895032196E0,2.478096771E0,1.215776277E1
1.113740125E1,-7.279362488E0,-6.415508881E0,6.062393188E-1,9.721903031E0
1.114740925E1,-6.048921204E0,-5.307962036E0,-8.836125183E-1,8.095966884E0
1.115741725E1,-4.922513580E0,-4.336631927E0,-1.856589203E0,6.817949831E0
1.116742525E1,-3.745511169E0,-3.388353882E0,-2.766097870E0,5.758566955E0
1.117743325E1,-2.665806427E0,-2.675536194E0,-3.224594421E0,4.966188379E0
1.118744025E1,-1.836530914E0,-1.902094574E0,-3.206482086E0,4.156000113E0
1.119744825E1,-9.536668396E-1,-1.254092102E0,-3.358715515E0,3.709878347E0
1.120745625E1,-8.532257080E-3,-7.388635254E-1,-3.553759918E0,3.629766062E0
1.121746425E1,5.863307190E-1,-4.227209473E-1,-3.672313385E0,3.742774681E0
1.122747225E1,8.969348145E-1,-3.281176758E-1,-3.317850494E0,3.452576599E0
1.123748025E1,9.886940002E-1,-4.038601685E-1,-2.464924164E0,2.686348822E0
1.124748825E1,1.053359528E0,-4.345463562E-1,-1.590143280E0,1.956259819E0
1.125749625E1,1.081501007E0,-3.662882996E-1,-9.300160217E-1,1.472664710E0
1.126750425E1,1.114432526E0,-2.671943665E-1,-8.129594421E-1,1.405082111E0
1.127751225E1,1.183439026E0,-2.145039368E-1,-1.363664246E0,1.818273918E0
1.128751925E1,1.012793884E0,-4.306544495E-1,-1.920206909E0,2.213235026E0
1.129752725E1,2.754272461E-1,-9.345066833E-1,-2.259850616E0,2.460911969E0
1.130753525E1,-4.788542175E-1,-1.515149231E0,-2.643802185E0,3.084585636E0
1.131754325E1,-1.334624634E0,-2.346969452E0,-2.840193787E0,3.918697394E0
1.132755125E1,-2.455942841E0,-2.815794525E0,-1.922003174E0,4.201719915E0
1.133755925E1,-3.534599762E0,-2.927312622E0,-5.777984619E-1,4.625624901E0
1.134756725E1,-4.357887726E0,-3.222498779E0,9.425898743E-1,5.501287075E0
1.135757525E1,-4.907844086E0,-3.801195374E0,2.204316101E0,6.587490365E0
1.136758325E1,-5.732778625E0,-5.074747009E0,2.831362152E0,8.162990850E0
1.137759125E1,-8.304281158E0,-7.752977600E0,2.727777557E0,1.168377155E1
1.138759825E1,-1.153755753E1,-1.146645538E1,-1.232686615E0,1.631301165E1
1.139760625E1,-1.344414276E1,-1.505419464E1,-7.710765381E0,2.160624108E1
1.140761425E1,-1.556313629E1,-1.973226654E1,-1.102502335E1,2.744311742E1
1.141762225E1,-2.008553192E1,-2.367895935E1,-6.747368774E0,3.177496961E1
1.142763025E1,-2.422038345E1,-2.567550751E1,6.050418091E-1,3.530190839E1
1.143763825E1,-2.479443970E1,-2.614118912E1,4.115841064E0,3.626384089E1
1.144764625E1,-2.302916061E1,-2.569406891E1,4.544549561E0,3.480201641E1
1.145765425E1,-1.832609070E1,-2.144515457E1,4.049978027E0,2.849811532E1
1.146766225E1,-1.401550461E1,-1.556598038E1,2.278412018E0,2.106953431E1
1.147766925E1,-1.130509094E1,-1.123368942E1,1.796264648E-2,1.593741453E1
1.148767725E1,-9.193581848E0,-7.959248657E0,-2.305954742E0,1.237695494E1
1.149768525E1,-7.644153900E0,-6.112538910E0,-3.412004700E0,1.036523019E1
1.150769325E1,-6.339317322E0,-4.991669769E0,-3.163970490E0,8.666857588E0
1.151770125E1,-5.119204559E0,-3.565735016E0,-2.721041565E0,6.806231609E0
1.152770925E1,-4.116739197E0,-2.067949677E0,-2.740351410E0,5.360362239E0
1.153771725E1,-3.143463135E0,-5.165757751E-1,-2.597997437E0,4.110693578E0
1.154772525E1,-1.905836792E0,2.546205139E-1,-3.052901459E0,3.607943015E0
1.155773325E1,-5.301974487E-1,5.393284607E-1,-4.196523285E0,4.264128540E0
1.156774125E1,5.047503662E-1,5.258564758E-1,-4.588258667E0,4.645795471E0
1.157774825E1,9.475296021E-1,9.714797974E-2,-3.905229034E0,4.019709428E0
1.158775600E1,1.163530426E0,-5.188211060E-1,-3.105591888E0,3.356736416E0
1.159776400E1,1.124162292E0,-1.067430267E0,-2.175875244E0,2.671625220E0
1.160777200E1,9.809101868E-1,-1.445094910E0,-1.343456268E0,2.203487880E0
1.161778000E1,8.478369141E-1,-1.588796082E0,-7.768844604E-1,1.961287813E0
1.162778800E1,5.774990845E-1,-1.688788147E0,-2.047741699E-1,1.796508575E0
1.163779600E1,3.327580261E-1,-1.753303986E0,2.618055725E-1,1.803703115E0
1.164780400E1,1.224453735E-1,-1.921105042E0,4.704716492E-1,1.981661178E0
1.165781200E1,-1.701960754E-1,-2.186503143E0,1.904040527E-1,2.201366940E0
1.166782000E1,-6.218069458E-1,-2.437082062E0,-7.574249268E-1,2.626729025E0
1.167782800E1,-1.465901642E0,-2.547702026E0,-1.514849854E0,3.306723955E0
1.168783500E1,-2.636467438E0,-2.845283203E0,-1.054257660E0,4.019708481E0
1.169784300E1,-3.709436188E0,-3.418890381E0,1.640588379E-1,5.047340247E0
1.170785100E1,-4.972060547E0,-4.323609009E0,1.251248016E0,6.706757975E0
1.171785900E1,-7.085515594E0,-5.791755981E0,1.867217102E0,9.339992949E0
1.172786700E1,-9.228908386E0,-7.945776672E0,1.154399414E0,1.223277380E1
1.173787500E1,-1.036729111E1,-9.802066498E0,-2.056124268E0,1.441488396E1
1.174788300E1,-1.147783173E1,-1.162377823E1,-4.342020721E0,1.690283957E1
1.175789100E1,-1.383153717E1,-1.430979263E1,-4.304299164E0,2.036193942E1
1.176789900E1,-1.826441895E1,-1.948213669E1,-7.949219513E0,2.786274825E1
1.177790700E1,-1.959515167E1,-2.423265793E1,-1.038719971E1,3.284943831E1
1.178791400E1,-1.732033218E1,-2.274729675E1,-4.251309357E0,2.890513878E1
1.179792200E1,-1.503847733E1,-1.875345200E1,2.620301056E0,2.418085482E1
1.180793000E1,-1.382435211E1,-1.623703491E1,4.868026886E0,2.187353880E1
1.181793800E1,-1.239811798E1,-1.490480530E1,4.497846680E0,1.990219021E1
1.182794600E1,-1.114552277E1,-1.355176895E1,3.126847687E0,1.782274659E1
1.183795400E1,-1.053015244E1,-1.224274109E1,1.780846710E0,1.624623755E1
1.184796200E1,-1.018003052E1,-1.100691101E1,4.189787292E-1,1.499868843E1
1.185797000E1,-9.883946228E0,-9.652078400E0,-6.554869080E-1,1.383057025E1
1.186797800E1,-9.336534576E0,-8.311466217E0,-1.534758453E0,1.259392044E1
1.187798600E1,-8.465046844E0,-6.841972046E0,-1.925146637E0,1.105331575E1
1.188799300E1,-7.248077545E0,-5.303171997E0,-2.510878601E0,9.325383246E0
1.189800100E1,-6.036646729E0,-4.012555847E0,-3.284619598E0,7.958042100E0
1.190800900E1,-4.995411987E0,-2.827021179E0,-4.193828888E0,7.108754491E0
1.191801700E1,-4.095184021E0,-1.655706940E0,-5.168302460E0,6.798768120E0
1.192802500E1,-3.401825867E0,-1.075513458E0,-5.734724579E0,6.753977674E0
1.193803300E1,-2.631677399E0,-9.840536499E-1,-5.747747498E0,6.397709654E0
1.194804100E1,-2.025438080E0,-1.127006378E0,-4.961582336E0,5.476298209E0
1.195804900E1,-1.674118652E0,-1.488804016E0,-3.655548248E0,4.287451884E0
1.196805700E1,-1.304986267E0,-1.865420837E0,-3.000211029E0,3.766171833E0
1.197806500E1,-9.383985901E-1,-2.179018707E0,-2.628683624E0,3.541001558E0
1.198807300E1,-4.692741394E-1,-2.448907471E0,-2.180216217E0,3.312206028E0
1.199808000E1,2.245330811E-3,-2.742746429E0,-2.042951660E0,3.419987500E0
1.200808800E1,1.495390320E-1,-3.082839203E0,-2.094743958E0,3.730175830E0
1.201809600E1,8.547225952E-2,-3.613036652E0,-1.985770569E0,4.123666343E0
1.202810400E1,-2.255809021E-1,-4.152065735E0,-1.587448883E0,4.450902219E0
1.203811200E1,-8.153544617E-1,-4.497996368E0,-6.219566345E-1,4.613415685E0
1.204812000E1,-1.547332306E0,-4.804858246E0,5.686674500E-1,5.079791600E0
1.205812800E1,-2.639610901E0,-5.064568176E0,1.138083344E0,5.823455179E0
1.206813600E1,-3.942651215E0,-5.036726074E0,1.360520782E0,6.539428488E0
1.207814400E1,-5.270839233E0,-4.982538757E0,9.997709656E-1,7.321678815E0
1.208815200E1,-6.844816132E0,-5.695805511E0,5.703140259E-2,8.904884103E0
1.209815900E1,-7.778424683E0,-6.708898773E0,2.749781799E-1,1.027564238E1
1.210816700E1,-8.090076599E0,-7.833510132E0,-1.680106201E0,1.138577960E1
1.211817500E1,-8.609496460E0,-8.587791595E0,-5.191204834E0,1.322203469E1
1.212818300E1,-8.541537781E0,-7.227719879E0,-3.028951263E0,1.159190873E1
1.213819100E1,-8.317154388E0,-6.481820984E0,2.167342987E0,1.076505625E1
1.214819900E1,-1.036788986E1,-8.044122162E0,2.820135498E0,1.342215354E1
1.215820700E1,-1.607222763E1,-1.205907303E1,1.201401672E0,2.012911099E1
1.216821500E1,-2.053878937E1,-1.791444672E1,-9.018296356E0,2.870712349E1
1.217822300E1,-1.989782227E1,-2.241693375E1,-1.339399704E1,3.283049506E1
1.218823100E1,-1.873623779E1,-2.168286026E1,-2.402803345E0,2.875702522E1
1.219823900E1,-1.713247284E1,-2.042472656E1,3.958518219E0,2.695108434E1
1.220824600E1,-1.455812622E1,-1.889939850E1,3.955823822E0,2.418211829E1
1.221825400E1,-1.163590302E1,-1.500868927E1,8.081694031E-1,1.900810696E1
1.222826200E1,-9.980794830E0,-1.101708984E1,-3.936813354E0,1.537826497E1
1.223827000E1,-9.095685425E0,-8.399483185E0,-4.276606750E0,1.309855627E1
1.224827800E1,-8.574169922E0,-7.289541321E0,-1.375040588E0,1.133774842E1
1.225828600E1,-8.159681854E0,-6.553821259E0,-7.125183105E-2,1.046604309E1
1.226829400E1,-7.578590240E0,-5.951324158E0,-2.550695801E-1,9.639416463E0
1.227830200E1,-6.652915192E0,-5.525908813E0,-9.906399536E-1,8.705074169E0
1.228831000E1,-5.483696594E0,-4.871619415E0,-1.977986755E0,7.597107059E0
1.229831800E1,-4.308340759E0,-4.080065460E0,-3.188070374E0,6.735913224E0
1.230832600E1,-3.162623291E0,-3.156935120E0,-3.943998413E0,5.960163497E0
1.231833300E1,-2.108215942E0,-2.515369263E0,-3.908073120E0,5.103400092E0
1.232834100E1,-1.108295288E0,-1.947749634E0,-3.719315643E0,4.342275433E0
1.233834900E1,-1.169068909E-1,-1.820065155E0,-3.849844208E0,4.260000565E0
1.234835700E1,6.580316162E-1,-1.836979980E0,-3.660487976E0,4.148092728E0
1.235836500E1,1.149309998E0,-1.887425079E0,-2.978655853E0,3.708864731E0
1.236837300E1,1.206191711E0,-2.029479675E0,-2.094893646E0,3.156305686E0
1.237838100E1,1.114731903E0,-2.195783844E0,-1.342408447E0,2.804666530E0
1.238838900E1,1.057401123E0,-2.376009064E0,-6.939569092E-1,2.691670930E0
1.239839700E1,8.586145020E-1,-2.656076660E0,-3.835025024E-1,2.817629546E0
1.240840500E1,4.011657715E-1,-3.059487762E0,-6.298901367E-1,3.149311183E0
1.241841300E1,-2.962339783E-1,-3.439846802E0,-1.237027588E0,3.667497490E0
1.242842000E1,-9.996212769E-1,-3.777544556E0,-1.741029510E0,4.277881406E0
1.243842800E1,-1.705104218E0,-4.174519043E0,-1.860630798E0,4.878107891E0
1.244843600E1,-2.257455597E0,-4.421804810E0,-1.815574493E0,5.286281707E0
1.245844400E1,-2.847528534E0,-4.119882660E0,-1.290616150E0,5.171802580E0
1.246845200E1,-3.669169922E0,-3.305576019E0,4.763095093E-1,4.961502946E0
1.247846000E1,-4.585115204E0,-2.876867523E0,2.018402710E0,5.776988634E0
1.248846800E1,-5.869743805E0,-3.633993073E0,2.752775574E0,7.432198285E0
1.249847600E1,-7.804919586E0,-5.340743866E0,2.733316040E0,9.844355305E0
1.250848400E1,-1.015278717E1,-7.910749512E0,9.644444275E-1,1.290694380E1
1.251849200E1,-1.223301132E1,-1.165311722E1,-7.354356537E0,1.842629282E1
1.252850000E1,-1.296154633E1,-1.407478134E1,-1.301977524E1,2.314337271E1
1.253850700E1,-1.459599747E1,-1.338052505E1,-2.547402649E0,1.996423936E1
1.254851500E1,-1.895927399E1,-1.570549026E1,1.503772888E0,2.466531629E1
1.255852300E1,-2.225437180E1,-1.982432510E1,1.476230164E0,2.984024439E1
1.256853100E1,-2.031949539E1,-2.069446564E1,-4.297563171E-1,2.900564586E1
1.257853900E1,-1.607282639E1,-1.831082245E1,-1.908231812E0,2.443897124E1
1.258855087E1,-1.419812485E1,-1.610830261E1,-6.346801758E-2,2.147249847E1
1.259855887E1,-1.319610855E1,-1.500315079E1,2.058369598E0,2.008653031E1
1.260856687E1,-1.218630844E1,-1.411145508E1,2.794538727E0,1.885334783E1
1.261857487E1,-1.121018829E1,-1.313443680E1,2.358645172E0,1.742828043E1
1.262858287E1,-1.025562332E1,-1.174143356E1,1.594633942E0,1.567105387E1
1.263859087E1,-9.434131622E0,-1.008812164E1,8.002359009E-1,1.383522372E1
1.264859887E1,-8.542136536E0,-8.506809998E0,-1.553768921E-1,1.205645283E1
1.265860587E1,-7.516768799E0,-6.902296600E0,-9.611512756E-1,1.025023528E1
1.266861387E1,-6.397396545E0,-5.445825348E0,-1.718276825E0,8.575323407E0
1.267862187E1,-4.836442566E0,-3.783831482E0,-3.852538605E0,7.249180028E0
1.268862987E1,-3.246748352E0,-2.006876678E0,-6.502028961E0,7.539582845E0
1.269863787E1,-1.943408661E0,-9.208850098E-1,-8.470735016E0,8.739463263E0
1.270864587E1,-1.096469879E0,-7.589218140E-1,-8.765921173E0,8.866768438E0
1.271865387E1,-9.002279663E-1,-1.537303162E0,-6.807393951E0,7.036641515E0
1.272866188E1,-1.029858398E0,-2.419269104E0,-4.707111511E0,5.391694548E0
1.273866987E1,-9.469308472E-1,-2.683320007E0,-3.332669678E0,4.382187978E0
1.274867787E1,-6.602769470E-1,-2.681673431E0,-2.324516144E0,3.609807937E0
1.275868588E1,-2.984793091E-1,-2.646047516E0,-1.120569763E0,2.889002241E0
1.276869387E1,-1.317260742E-1,-2.627785492E0,-1.016386414E-1,2.633047429E0
1.277870087E1,2.258802795E-1,-2.637814636E0,-2.095642090E-3,2.647469046E0
1.278870887E1,8.282276917E-1,-2.649041290E0,-5.601351929E-1,2.831454097E0
1.279871687E1,1.289418640E0,-2.699336700E0,-1.515747986E0,3.353581818E0
1.280872487E1,1.391656036E0,-3.043620758E0,-2.622845764E0,4.252017609E0
1.281873287E1,1.211879883E0,-3.669618988E0,-3.414549408E0,5.156927770E0
1.282874087E1,6.890171814E-1,-4.073778534E0,-3.168760529E0,5.206866573E0
1.283874887E1,-2.826123047E-1,-4.169130249E0,-1.944905548E0,4.609140304E0
1.284875687E1,-1.769320679E0,-4.200714569E0,5.254074097E-2,4.558427260E0
1.285876487E1,-3.551364899E0,-3.898043976E0,1.936522980E0,5.617567154E0
1.286877287E1,-4.931494904E0,-3.635489960E0,2.355950775E0,6.564063778E0
1.287878087E1,-7.492369537E0,-4.997507629E0,5.782475281E-1,9.024691352E0
1.288878787E1,-1.088760910E1,-8.772208099E0,-2.212848358E0,1.415585973E1
1.289879588E1,-1.240470428E1,-1.217433334E1,-5.515131226E0,1.823479512E1
1.290880387E1,-1.325388840E1,-1.358993958E1,-8.121511230E0,2.064729910E1
1.291881187E1,-1.405262741E1,-1.337049591E1,-6.607559509E0,2.049161635E1
1.292881988E1,-1.454749832E1,-1.342962296E1,-1.754052429E0,1.987614601E1
1.293882787E1,-1.583976105E1,-1.361209351E1,2.636168060E0,2.105080763E1
1.294883587E1,-1.784529053E1,-1.440619217E1,4.713847504E0,2.341395151E1
1.295884387E1,-1.906540329E1,-1.564815948E1,5.657335510E0,2.530533428E1
1.296885187E1,-1.868998398E1,-1.748933075E1,2.167642365E0,2.568834102E1
1.297885987E1,-1.778945663E1,-1.972747650E1,-8.604556732E0,2.792268778E1
1.298886787E1,-1.615755020E1,-1.939202408E1,-1.223854980E1,2.805172237E1
1.299887587E1,-1.392494293E1,-1.511152542E1,-3.900738373E0,2.091597466E1
1.300888287E1,-1.189217010E1,-1.123099503E1,1.529818726E-1,1.635794494E1
1.301889087E1,-1.002225861E1,-8.802744598E0,9.816586304E-1,1.337526200E1
1.302889887E1,-8.544980621E0,-6.927144928E0,5.661227417E-1,1.101465050E1
1.303890687E1,-7.251071320E0,-5.576353912E0,-2.691403198E-1,9.151294703E0
1.304891487E1,-5.980812836E0,-4.772525482E0,-1.308878174E0,7.762749753E0
1.305892287E1,-4.890031128E0,-3.888014832E0,-2.539020081E0,6.743566321E0
1.306893088E1,-3.913611603E0,-2.828667755E0,-3.426823883E0,5.921219382E0
1.307893887E1,-2.921175385E0,-2.008523254E0,-3.912713470E0,5.279844505E0
1.308894687E1,-1.891766052E0,-1.329834595E0,-3.987258453E0,4.609280727E0
1.309895488E1,-1.055155792E0,-9.476792908E-1,-3.899840240E0,4.149723326E0
1.310896287E1,-2.900967407E-1,-6.997947693E-1,-3.605252838E0,3.683981116E0
1.311897087E1,4.700225830E-1,-6.503974915E-1,-3.200494537E0,3.299561093E0
1.312897787E1,1.081650696E0,-7.183561707E-1,-2.863545227E0,3.144184327E0
1.313898587E1,1.621727600E0,-1.109343109E0,-2.540217590E0,3.211440167E0
1.314899387E1,2.068398743E0,-1.928290100E0,-1.869761810E0,3.390071577E0
1.315900187E1,2.343825989E0,-2.928210754E0,-1.292861481E0,3.967294960E0
1.316900987E1,2.295925598E0,-3.891457672E0,-1.172362061E0,4.667884957E0
1.317901787E1,1.900597687E0,-4.672832794E0,-1.553918610E0,5.278475247E0
1.318902587E1,1.386117554E0,-5.344935150E0,-2.113904114E0,5.912549724E0
1.319903387E1,7.695497131E-1,-5.966143341E0,-2.418969727E0,6.483709406E0
1.320904187E1,-9.340576172E-2,-6.531517639E0,-2.289938049E0,6.921940738E0
1.321904987E1,-1.406624908E0,-6.806495819E0,-1.338666229E0,7.078065148E0
1.322905787E1,-2.988385620E0,-6.525829468E0,1.582209778E-1,7.179271045E0
1.323906587E1,-4.410428467E0,-5.781876526E0,8.668473816E-1,7.323482765E0
1.324907387E1,-5.868845673E0,-5.763165436E0,-2.050735474E-2,8.225438950E0
1.325908087E1,-8.384813690E0,-7.213499451E0,-9.288185120E-1,1.109965670E1
1.326908888E1,-1.029469208E1,-8.733738098E0,-1.601819000E0,1.359502447E1
1.327909687E1,-1.100541412E1,-9.633217621E0,-4.734354858E0,1.537309786E1
1.328910487E1,-1.154085068E1,-9.529782715E0,-7.052434387E0,1.654523568E1
1.329911287E1,-1.170191574E1,-8.973689117E0,-3.130140839E0,1.507513549E1
1.330912087E1,-1.245065872E1,-9.246871033E0,2.756068726E0,1.575180756E1
1.331912887E1,-1.607671829E1,-1.134221375E1,4.359534302E0,2.015222625E1
1.332913687E1,-2.140099640E1,-1.417043243E1,5.551804962E0,2.626073762E1
1.333914487E1,-2.394839905E1,-1.662652496E1,2.827619934E0,2.929099834E1
1.334915287E1,-2.312795517E1,-1.943977478E1,-3.636837158E0,3.043080246E1
1.335916087E1,-1.996428406E1,-2.153317154E1,-9.326505432E0,3.080963840E1
1.336916887E1,-1.530627045E1,-1.959245728E1,-5.489235077E0,2.546130395E1
1.337917587E1,-1.179427368E1,-1.532737656E1,-9.861492920E-1,1.936506789E1
1.338918387E1,-9.768985291E0,-1.243045074E1,7.664062500E-2,1.580996689E1
1.339919187E1,-8.154143372E0,-1.043839325E1,1.648072815E-1,1.324678335E1
1.340919987E1,-6.907984772E0,-8.595425720E0,-1.657054138E-1,1.102855635E1
1.341920787E1,-5.885461121E0,-7.138505402E0,-7.758366394E-1,9.284332742E0
1.342921587E1,-4.958139496E0,-5.931565247E0,-1.386267242E0,7.854193173E0
1.343922388E1,-4.120631104E0,-4.763095093E0,-1.565294952E0,6.489747595E0
1.344923187E1,-3.035836945E0,-3.538042603E0,-1.775757294E0,4.988723823E0
1.345923987E1,-1.771116943E0,-2.341580658E0,-2.540966034E0,3.882829328E0
1.346924788E1,-6.879693604E-1,-1.795665894E0,-3.061882782E0,3.615638811E0
1.347925587E1,3.135978699E-1,-1.285377045E0,-3.793860626E0,4.017949256E0
1.348926387E1,1.201401672E0,-9.868977356E-1,-3.989503784E0,4.281760568E0
1.349927187E1,1.687590637E0,-9.961784363E-1,-3.385060730E0,3.911389751E0
1.350927887E1,2.020348663E0,-9.586065674E-1,-2.735112305E0,3.532927199E0
1.351928687E1,2.058818665E0,-9.702822876E-1,-1.873504028E0,2.947914408E0
1.352929487E1,1.761836243E0,-9.514215088E-1,-9.955796814E-1,2.236168316E0
1.353930287E1,1.206790466E0,-1.013841705E0,-3.565585327E-1,1.615967890E0
1.354931087E1,4.873864746E-1,-1.467248840E0,-2.204914856E-1,1.561723801E0
1.355931887E1,-1.158590698E-1,-2.095642090E0,-4.957690430E-1,2.156600574E0
1.356932687E1,-5.629792786E-1,-2.697989502E0,-9.105564880E-1,2.902620564E0
1.357933487E1,-9.413923645E-1,-3.141517181E0,-1.276246033E0,3.519112633E0
1.358934317E1,-1.337319031E0,-3.375480652E0,-9.231303406E-1,3.746259661E0
1.359935117E1,-1.899100800E0,-3.241060181E0,1.845661926E-1,3.760999817E0
1.360935917E1,-2.697390747E0,-2.927612000E0,8.378077698E-1,4.068015575E0
1.361936717E1,-3.644321594E0,-2.900368652E0,1.152603149E0,4.798094645E0
1.362937517E1,-4.652774506E0,-3.278781738E0,1.083896027E0,5.794268796E0
1.363938217E1,-5.736670532E0,-4.060306549E0,2.797682190E-1,7.033757767E0
1.364939017E1,-7.445516968E0,-5.982160034E0,-1.428030396E0,9.657185532E0
1.365939817E1,-9.642947388E0,-8.899742889E0,-5.931565247E0,1.440053208E1
1.366940617E1,-1.102307739E1,-1.151285889E1,-9.329948273E0,1.846894934E1
1.367941417E1,-1.148995651E1,-1.251712051E1,-3.899540863E0,1.743283756E1
1.368942217E1,-1.450184326E1,-1.389919647E1,1.415306854E0,2.013688690E1
1.369943017E1,-2.055645264E1,-1.807940369E1,2.750380554E0,2.751358166E1
1.370943817E1,-2.581471802E1,-2.164873123E1,-9.729766846E-1,3.370480550E1
1.371944617E1,-2.719140518E1,-2.354932892E1,-7.376660156E0,3.672000168E1
1.372945417E1,-2.404375076E1,-2.261048126E1,-5.856421509E0,3.352064269E1
1.373946217E1,-1.840437790E1,-1.835228622E1,-5.264552307E-1,2.599624378E1
1.374947017E1,-1.449765198E1,-1.456112000E1,1.061143341E0,2.057508575E1
1.375947717E1,-1.177092224E1,-1.191327621E1,6.791377258E-1,1.676132419E1
1.376948517E1,-9.532028046E0,-9.804910583E0,1.942959595E-1,1.367602212E1
1.377949317E1,-7.713759155E0,-8.108488312E0,-3.775149536E-1,1.119786500E1
1.378950117E1,-6.444997559E0,-6.952741699E0,-9.053173828E-1,9.523560796E0
1.379950917E1,-5.678142242E0,-6.124813385E0,-1.159488831E0,8.432025419E0
1.380951717E1,-4.896018677E0,-4.964127045E0,-1.357826385E0,7.103326593E0
1.381952517E1,-3.898493042E0,-3.682192841E0,-1.905537415E0,5.691033733E0
1.382953317E1,-2.786605225E0,-2.562820587E0,-2.659968567E0,4.626948327E0
1.383954117E1,-1.664837952E0,-1.740730133E0,-3.272494812E0,4.063379024E0
1.384954917E1,-6.393205261E-1,-1.200952606E0,-3.391497345E0,3.654212930E0
1.385955717E1,2.393522644E-1,-9.803114319E-1,-3.384312286E0,3.531553435E0
1.386956517E1,8.901988220E-1,-1.042731628E0,-3.287463684E0,3.561904079E0
1.387957317E1,1.120719452E0,-1.421893158E0,-2.387086029E0,2.995992649E0
1.388958117E1,9.804611206E-1,-1.776805115E0,-9.674382019E-1,2.248171946E0
1.389958817E1,8.322692871E-1,-1.945055237E0,2.522254944E-1,2.130617221E0
1.390959617E1,6.548881531E-1,-1.977238312E0,1.074315948E0,2.343609309E0
1.391960417E1,5.408253479E-1,-1.896107025E0,1.393601990E0,2.414506246E0
1.392961217E1,7.743397522E-1,-1.953886871E0,8.482859802E-1,2.266465323E0
1.393962017E1,1.127006378E0,-2.362537079E0,-8.860075378E-1,2.763464163E0
1.394962817E1,1.097368011E0,-3.028202820E0,-3.122357025E0,4.485904843E0
1.395963617E1,3.098556519E-1,-3.525468750E0,-3.740721130E0,5.149556778E0
1.396964417E1,-8.448431396E-1,-3.814218292E0,-2.938239899E0,4.888279331E0
1.397965217E1,-2.312840424E0,-4.242028656E0,-1.977837067E0,5.220716177E0
1.398966017E1,-4.111949158E0,-4.567152557E0,-1.717977448E0,6.381101384E0
1.399966817E1,-6.457571411E0,-4.962330780E0,-1.404978333E0,8.264316028E0
1.400967617E1,-9.053173828E0,-6.031108246E0,-1.634600830E-1,1.087938152E1
1.401968417E1,-9.997559967E0,-7.640261993E0,-4.140390015E-1,1.258952886E1
1.402969217E1,-9.899813232E0,-9.292975159E0,-2.688259735E0,1.384169172E1
1.403969917E1,-1.007839188E1,-1.029723679E1,-3.558400269E0,1.484147165E1
1.404970717E1,-1.099388809E1,-1.072100555E1,-1.917512512E-1,1.535715807E1
1.405971517E1,-1.373079666E1,-1.225860809E1,2.512375488E0,1.857741317E1
1.406972317E1,-1.883802612E1,-1.651126465E1,4.930746460E0,2.553047883E1
1.407973117E1,-2.429911972E1,-2.212803452E1,5.697003021E0,3.335495427E1
1.408973917E1,-2.457574448E1,-2.618579636E1,-2.078876953E0,3.597200129E1
1.409974717E1,-2.040856018E1,-2.731534744E1,-1.075663147E1,3.575391804E1
1.410975517E1,-1.555086182E1,-2.206980560E1,-7.132368164E0,2.792447490E1
1.411976317E1,-1.253972351E1,-1.592687988E1,-8.158035278E-2,2.027108344E1
1.412977117E1,-1.058538757E1,-1.187286026E1,1.475481720E0,1.597473903E1
1.413977917E1,-9.073381805E0,-8.965456238E0,6.785389709E-1,1.277364780E1
1.414978717E1,-8.022866364E0,-7.002588043E0,-7.861651611E-1,1.067804662E1
1.415979517E1,-7.158264313E0,-5.626050568E0,-2.298470306E0,9.390216116E0
1.416980217E1,-6.344855804E0,-4.681215363E0,-2.691702576E0,8.331640607E0
1.417981017E1,-5.405259705E0,-3.451821899E0,-2.580783234E0,6.913201067E0
1.418981817E1,-4.393064575E0,-2.098635864E0,-2.753374329E0,5.593242266E0
1.419982617E1,-3.423231354E0,-1.157093811E0,-2.841540985E0,4.596926599E0
1.420983417E1,-2.586770782E0,-9.289682007E-1,-3.006797333E0,4.073720069E0
1.421984217E1,-1.697470093E0,-5.664221191E-1,-2.997067566E0,3.490652192E0
1.422985017E1,-8.906478882E-1,-4.161346436E-1,-2.749482422E0,2.919944399E0
1.423985817E1,-1.954934692E-1,-4.870870972E-1,-2.487078094E0,2.541855422E0
1.424986617E1,4.505630493E-1,-7.849676514E-1,-2.013612671E0,2.207672363E0
1.425987417E1,9.527687073E-1,-1.269060974E0,-1.350192261E0,2.083579398E0
1.426988217E1,1.302441559E0,-1.715133362E0,-6.491999817E-1,2.249332585E0
1.427989017E1,1.534159698E0,-2.168241119E0,-2.993774414E-4,2.656109113E0
1.428989817E1,1.521286469E0,-2.603086853E0,5.604345703E-1,3.066669299E0
1.429990617E1,1.167871399E0,-2.877765656E0,8.699908447E-1,3.225266321E0
1.430991417E1,5.902226257E-1,-3.101849670E0,8.101153564E-1,3.259773154E0
1.431992117E1,1.311273193E-1,-3.580554199E0,3.004252625E-1,3.595527511E0
1.432992917E1,-2.305206299E-1,-4.225263519E0,-3.332070923E-1,4.244645867E0
1.433993717E1,-7.538323975E-1,-4.647385712E0,-6.408174133E-1,4.751537035E0
1.434994517E1,-1.698218536E0,-4.718038788E0,-5.186714172E-1,5.041116567E0
1.435995317E1,-2.555635529E0,-5.278623047E0,-1.327140198E0,6.013022146E0
1.436996117E1,-3.524420929E0,-6.455326080E0,-2.392474823E0,7.734126548E0
1.437996917E1,-4.989274750E0,-7.630831604E0,-7.652087402E-1,9.149207502E0
1.438997717E1,-6.539451141E0,-8.303233337E0,1.053958282E0,1.062162573E1
1.439998517E1,-7.650141449E0,-8.320597229E0,2.282752991E-1,1.130526922E1
1.440999317E1,-7.549999695E0,-8.082741852E0,1.432521057E-1,1.106136214E1
1.442000117E1,-8.121211853E0,-8.484057312E0,1.541195068E0,1.184519281E1
1.443000917E1,-1.063328796E1,-1.013572266E1,2.038460999E0,1.483088028E1
1.444001717E1,-1.603031479E1,-1.386117554E1,2.580184479E0,2.134854870E1
1.445002517E1,-2.348331619E1,-1.906465485E1,1.648521881E0,3.029265304E1
1.446003217E1,-2.701806564E1,-2.281016602E1,-8.016729126E0,3.625668891E1
1.447004017E1,-2.619582550E1,-2.484593262E1,-1.198377960E1,3.804145916E1
1.448004817E1,-2.318827972E1,-2.267035675E1,-3.069816284E0,3.257399521E1
1.449005617E1,-1.735176682E1,-1.749037857E1,1.634600830E-1,2.463785448E1
1.450006417E1,-1.321691528E1,-1.362586487E1,-8.961863708E-1,1.900405728E1
1.451007217E1,-1.052027298E1,-1.132455048E1,-1.627715149E0,1.554255589E1
1.452008017E1,-8.464448090E0,-9.749376068E0,-1.626068573E0,1.301312085E1
1.453008817E1,-7.068750458E0,-8.518785095E0,-1.014889526E0,1.111606645E1
1.454009617E1,-6.118077393E0,-7.489226074E0,-6.084846497E-1,9.689666235E0
1.455010417E1,-5.288352814E0,-6.555018768E0,-8.205935669E-1,8.462169954E0
1.456011217E1,-4.502936096E0,-5.511089630E0,-1.093027039E0,7.200225726E0
1.457012017E1,-3.434607697E0,-4.390370178E0,-1.622925110E0,5.805666735E0
1.458012817E1,-2.283351746E0,-3.239114227E0,-2.247725830E0,4.556075897E0
1.459013617E1,-1.166224823E0,-2.271526337E0,-2.717449036E0,3.728865980E0
1.460014037E1,2.844085693E-2,-1.478325806E0,-3.299588470E0,3.615735077E0
1.461014737E1,9.533674622E-1,-8.999285889E-1,-3.490142212E0,3.728253431E0
1.462015537E1,1.672621765E0,-7.096742249E-1,-3.052751770E0,3.552547599E0
1.463016337E1,2.290387115E0,-9.162446594E-1,-2.198777618E0,3.304542393E0
1.464017137E1,2.581381989E0,-1.117875366E0,-1.321452026E0,3.107959743E0
1.465017937E1,2.328258362E0,-1.178349609E0,-2.447410583E-1,2.620914533E0
1.466018737E1,1.932481384E0,-1.160686340E0,6.248007202E-1,2.339241976E0
1.467019537E1,1.633103943E0,-1.099463654E0,9.292675781E-1,2.177013331E0
1.468020337E1,1.312470703E0,-1.008602600E0,6.938072205E-1,1.794777705E0
1.469021137E1,8.138575745E-1,-7.632627869E-1,-8.532257080E-3,1.115798832E0
1.470021937E1,1.655557251E-1,-4.379891968E-1,-5.682183838E-1,7.362848405E-1
1.471022737E1,-4.508624268E-1,-1.375639343E-1,-8.128097534E-2,4.783381240E-1
1.472023537E1,-8.196954346E-1,-6.586303711E-3,1.107995911E0,1.378259382E0
1.473024337E1,-1.216370544E0,-3.552113342E-1,1.641486511E0,2.073694857E0
1.474025137E1,-1.857487335E0,-8.638536072E-1,1.667831726E0,2.641621646E0
1.475025937E1,-2.664459229E0,-1.387015686E0,1.531016235E0,3.371522832E0
1.476026638E1,-4.390669556E0,-2.467618561E0,1.419198761E0,5.232709206E0
1.477027437E1,-7.530540161E0,-4.741090851E0,1.382824402E0,9.005508364E0
1.478028237E1,-1.159174484E1,-8.335266724E0,-2.703827362E0,1.453120443E1
1.479029038E1,-1.459450058E1,-1.490211090E1,-1.357616821E1,2.488744060E1
1.480029837E1,-1.742346771E1,-2.246228943E1,-1.793585220E1,3.361289139E1
1.481030637E1,-2.357582382E1,-2.551653809E1,-5.960155792E0,3.524821473E1
1.482031437E1,-2.831017868E1,-2.749377640E1,3.481460266E0,3.961684646E1
1.483032237E1,-2.809372879E1,-2.699471420E1,5.162763977E0,3.930173437E1
1.484033037E1,-2.335638016E1,-2.439162735E1,5.392985229E0,3.419877583E1
1.485033837E1,-1.741568390E1,-1.911869247E1,5.257816315E0,2.639081431E1
1.486034637E1,-1.405547150E1,-1.515613266E1,3.754941559E0,2.100867017E1
1.487035437E1,-1.187525528E1,-1.254017258E1,2.070045319E0,1.739432965E1
1.488036237E1,-1.033810181E1,-1.039094193E1,3.945794678E-1,1.466300501E1
1.489037037E1,-9.197473755E0,-8.492290192E0,-1.158740387E0,1.257200046E1
1.490037837E1,-8.033344574E0,-7.212601318E0,-2.249372406E0,1.102796078E1
1.491038537E1,-6.868616638E0,-6.246959381E0,-2.463427277E0,9.605772742E0
1.492039337E1,-6.075565796E0,-5.008883972E0,-2.491419067E0,8.258849033E0
1.493040138E1,-5.325924683E0,-3.668720856E0,-2.718197479E0,7.015239410E0
1.494040937E1,-4.299359436E0,-2.470911713E0,-3.654650116E0,6.160061990E0
1.495041737E1,-3.164868622E0,-1.161135406E0,-5.065615997E0,6.084824916E0
1.496042538E1,-1.807790680E0,-2.875520325E-1,-6.438111877E0,6.693286029E0
1.497043337E1,-7.051835632E-1,3.481759644E-1,-6.524482269E0,6.571710526E0
1.498044137E1,2.448907471E-1,1.916015625E-1,-5.982010345E0,5.990086010E0
1.499044938E1,6.357279968E-1,1.752854919E-1,-5.449118500E0,5.488876708E0
1.500045737E1,4.706213379E-1,1.175056458E-1,-4.142335968E0,4.170640154E0
1.501046537E1,2.444416809E-1,1.264869690E-1,-2.457439728E0,2.472804219E0
1.502047337E1,2.875520325E-1,1.040336609E-1,-1.231938171E0,1.269322982E0
1.503048137E1,1.691482544E-1,-2.062710571E-1,-9.783654785E-1,1.014079825E0
1.504048937E1,-4.453239441E-1,-1.102756805E0,-1.745819550E0,2.112409024E0
1.505049737E1,-6.870712280E-1,-2.059567108E0,-2.744692383E0,3.499602809E0
1.506050537E1,-7.318281555E-1,-3.046764221E0,-2.913241882E0,4.278472033E0
1.507051237E1,-9.090596008E-1,-4.019740906E0,-2.007176056E0,4.584044287E0
1.508052037E1,-1.417552185E0,-4.501738586E0,-5.325924683E-1,4.749606219E0
1.509052837E1,-2.456990662E0,-4.291875000E0,1.383123779E0,5.135175315E0
1.510053637E1,-3.713028717E0,-3.833228760E0,3.206332397E0,6.225816607E0
1.511054437E1,-4.618046722E0,-3.904181213E0,3.633993073E0,7.055132325E0
1.512055237E1,-5.669460297E0,-4.741240540E0,3.172951813E0,8.042994785E0
1.513056038E1,-6.556216278E0,-6.044131165E0,3.058140564E0,9.426967547E0
1.514056837E1,-7.356751556E0,-7.544461212E0,2.555785217E0,1.084309580E1
1.515057637E1,-9.330097961E0,-9.884694672E0,9.250762939E-2,1.359288323E1
1.516058438E1,-1.176164154E1,-1.366448456E1,-9.129515076E0,2.020896819E1
1.517059237E1,-1.236219269E1,-1.844254852E1,-1.664254166E1,2.774753317E1
1.518060037E1,-1.368603973E1,-1.948363358E1,-6.566694489E0,2.469901086E1
1.519060838E1,-1.799677551E1,-2.063024918E1,2.535277863E0,2.749397650E1
1.520061637E1,-2.285417450E1,-2.324605957E1,5.954916687E0,3.313840084E1
1.521062437E1,-2.428953964E1,-2.384855667E1,5.290598145E0,3.444888707E1
1.522063237E1,-1.918545364E1,-1.945174988E1,1.453627167E0,2.735992026E1
1.523063937E1,-1.361433884E1,-1.284703445E1,-5.937702484E0,1.963804540E1
1.524064737E1,-1.058389069E1,-8.476423187E0,-7.882458344E0,1.568443947E1
1.525065537E1,-8.957672424E0,-6.809040527E0,-3.154390411E0,1.168559400E1
1.526066337E1,-7.903714142E0,-5.791606293E0,-8.940907288E-1,9.839247884E0
1.527067137E1,-6.940916290E0,-5.140310669E0,-6.912625122E-1,8.664695989E0
1.528067937E1,-5.808970184E0,-4.155508575E0,-8.502319336E-1,7.192724134E0
1.529068737E1,-4.656516724E0,-2.742896118E0,-1.489702148E0,5.605875454E0
1.530069537E1,-3.539988556E0,-1.430874481E0,-2.449955292E0,4.536650933E0
1.531070337E1,-2.661615143E0,-9.026229858E-1,-2.977009277E0,4.094082029E0
1.532071137E1,-2.130669250E0,-6.018983459E-1,-3.261866913E0,3.942310088E0
1.533071938E1,-1.864672394E0,-5.385800171E-1,-3.366199951E0,3.885662580E0
1.534072737E1,-1.808239746E0,-9.252259827E-1,-3.188070374E0,3.780154336E0
1.535073537E1,-1.726958771E0,-1.334325256E0,-2.846331024E0,3.586699149E0
1.536074338E1,-1.629511414E0,-1.912423096E0,-2.724783783E0,3.706361586E0
1.537075137E1,-1.692979431E0,-2.650987244E0,-2.920127563E0,4.291975968E0
1.538075937E1,-1.732347565E0,-3.209775238E0,-3.514092407E0,5.064832733E0
1.539076737E1,-1.857936401E0,-3.749552765E0,-3.629352722E0,5.539248576E0
1.540077437E1,-2.143392792E0,-4.159550171E0,-3.128943329E0,5.629056461E0
1.541078237E1,-2.283800812E0,-4.425097961E0,-2.967429199E0,5.796798614E0
1.542079037E1,-2.446811829E0,-4.841531982E0,-3.164120178E0,6.280045905E0
1.543079837E1,-2.676733704E0,-5.565875702E0,-3.446433105E0,7.072607497E0
1.544080637E1,-3.237168274E0,-6.300847321E0,-2.966680756E0,7.679917324E0
1.545081437E1,-4.206253052E0,-6.544091492E0,-1.130449219E0,7.861018612E0
1.546082237E1,-5.441634064E0,-6.120173035E0,-1.666035461E-1,8.191193808E0
1.547083037E1,-6.869664459E0,-5.799539795E0,-1.861678619E0,9.181110984E0
1.548083837E1,-8.276738434E0,-5.996829529E0,-3.361409912E0,1.075943493E1
1.549084637E1,-7.569010162E0,-5.510490875E0,1.481768646E0,9.478980053E0
1.550085437E1,-6.406228180E0,-5.879473572E0,6.237528992E-1,8.717627926E0
1.551086237E1,-6.451883240E0,-7.090305634E0,-2.703378296E0,9.960295454E0
1.552087037E1,-7.260052643E0,-6.366860046E0,-8.045768738E-1,9.689820183E0
1.553087838E1,-9.107660522E0,-6.844816132E0,1.728904724E0,1.152345867E1
1.554088637E1,-1.262609390E1,-1.052865555E1,2.471959534E0,1.662472312E1
1.555089437E1,-1.728246094E1,-1.611458954E1,1.722468109E0,2.369241120E1
1.556090238E1,-2.000350250E1,-2.028551605E1,6.122268677E-2,2.848940193E1
1.557090937E1,-2.093501541E1,-2.283725967E1,5.623805237E-1,3.098598992E1
1.558091737E1,-2.103096588E1,-2.496164200E1,2.517315216E0,3.273716501E1
1.559092537E1,-1.881572250E1,-2.463906281E1,3.107088776E0,3.115716338E1
1.560093275E1,-1.395263535E1,-1.858759689E1,1.278940430E0,2.327682281E1
1.561094075E1,-1.068058960E1,-1.311003754E1,-8.987310791E-1,1.693386536E1
1.562094875E1,-8.709638214E0,-9.533075867E0,-2.459086304E0,1.314474947E1
1.563095675E1,-7.472311249E0,-7.108717346E0,-2.935545502E0,1.072318633E1
1.564096475E1,-6.391858063E0,-5.335654449E0,-2.698139191E0,8.752428977E0
1.565097275E1,-5.236261139E0,-3.634591827E0,-2.740351410E0,6.938170819E0
1.566098075E1,-4.452341309E0,-2.226320343E0,-3.105741577E0,5.867322741E0
1.567098875E1,-3.994742889E0,-7.789801025E-1,-3.838617554E0,5.594619333E0
1.568099675E1,-3.710933075E0,1.592687988E-1,-4.277804260E0,5.665333188E0
1.569100475E1,-3.332819366E0,8.589138794E-1,-5.405259705E0,6.407983338E0
1.570101275E1,-2.951113129E0,9.874964905E-1,-6.341562653E0,7.063967362E0
1.571102075E1,-2.629282379E0,3.746708679E-1,-5.842949524E0,6.418221189E0
1.572102875E1,-1.969604187E0,-1.025068359E0,-4.882247314E0,5.363435898E0
1.573103675E1,-1.380429382E0,-2.304457855E0,-3.706592102E0,4.577656201E0
1.574104475E1,-1.004411316E0,-2.852019196E0,-2.502046967E0,3.924677644E0
1.575105175E1,-8.737330627E-1,-2.989732819E0,-1.919308777E0,3.658641547E0
1.576105975E1,-1.091530151E0,-3.247047729E0,-1.762584686E0,3.852461785E0
1.577106775E1,-1.210382996E0,-3.638633423E0,-1.248703308E0,4.032857564E0
1.578107575E1,-1.061293030E0,-4.194128265E0,-1.290915527E0,4.514810926E0
1.579108375E1,-8.241860962E-1,-4.907395020E0,-2.116598511E0,5.407568571E0
1.580109175E1,-6.524931335E-1,-5.584736481E0,-2.960094452E0,6.354304684E0
1.581109975E1,-8.425978088E-1,-6.217171326E0,-2.841391296E0,6.887430207E0
1.582110775E1,-1.743274841E0,-6.495143280E0,-1.060843964E0,6.808177679E0
1.583111575E1,-3.065026245E0,-6.246061249E0,9.816586304E-1,7.026472847E0
1.584112375E1,-4.631369019E0,-5.536686401E0,2.387984161E0,7.603087771E0
1.585113175E1,-6.256689148E0,-5.296286316E0,3.238216095E0,8.813787569E0
1.586113975E1,-8.061486053E0,-6.658603363E0,3.732338562E0,1.110202267E1
1.587114775E1,-1.013138168E1,-8.471483459E0,3.907474365E0,1.377241020E1
1.588115575E1,-1.272952881E1,-1.039423508E1,3.592678986E0,1.682225814E1
1.589116375E1,-1.585652618E1,-1.258942017E1,1.841021576E0,2.033008321E1
1.590117175E1,-1.843955475E1,-1.460812225E1,-3.555705872E0,2.379196207E1
1.591117975E1,-1.954096436E1,-1.540626251E1,-8.040529633E0,2.615057034E1
1.592118675E1,-1.985366409E1,-1.532812500E1,-3.154091034E0,2.527978806E1
1.593119475E1,-1.892394745E1,-1.556478287E1,5.957611084E-2,2.450268969E1
1.594120275E1,-1.600516708E1,-1.588586517E1,1.209484863E-1,2.255084731E1
1.595121075E1,-1.331541046E1,-1.614662292E1,-1.146166534E0,2.096013562E1
1.596121875E1,-1.125734024E1,-1.570683746E1,-1.758842468E0,1.940427734E1
1.597122675E1,-9.339228973E0,-1.435200485E1,-1.897304535E0,1.722791356E1
1.598123475E1,-7.950716400E0,-1.231743576E1,-1.710043945E0,1.475999205E1
1.599124275E1,-7.119644623E0,-1.015413437E1,-1.495540009E0,1.249129394E1
1.600125075E1,-6.662046204E0,-7.950866089E0,-1.199306030E0,1.044210066E1
1.601125875E1,-6.280190277E0,-5.936205597E0,-8.951385498E-1,8.687957172E0
1.602126675E1,-5.892795868E0,-4.220623169E0,-8.988807678E-1,7.303881825E0
1.603127475E1,-5.442681885E0,-2.834056549E0,-1.176703033E0,6.248143136E0
1.604128275E1,-4.809199219E0,-1.761087799E0,-1.734742584E0,5.407324588E0
1.605129075E1,-3.975582733E0,-8.849597168E-1,-2.345472565E0,4.699963119E0
1.606129875E1,-3.133583679E0,-2.237846375E-1,-2.758763123E0,4.180932935E0
1.607130675E1,-2.274520111E0,3.073109436E-1,-2.960693207E0,3.746142818E0
1.608131475E1,-1.470991058E0,5.655239868E-1,-2.884950714E0,3.287335197E0
1.609132275E1,-8.042774963E-1,5.310955811E-1,-2.571801910E0,2.746468619E0
1.610133075E1,-4.727169800E-1,2.987786865E-1,-1.901196442E0,1.981736097E0
1.611133775E1,-3.177891541E-1,-1.721420288E-2,-9.225315857E-1,9.758846253E-1
1.612134575E1,-2.549198914E-1,-2.191442871E-1,5.882766724E-2,3.412756423E-1
1.613135375E1,-2.624043274E-1,-3.740721130E-1,9.214837646E-1,1.028551557E0
1.614136175E1,-2.002835083E-1,-4.529580688E-1,1.431173859E0,1.514444819E0
1.615136975E1,-2.529739380E-2,-5.354365540E-1,1.607207794E0,1.694239993E0
1.616137775E1,1.377136230E-1,-7.461982727E-1,1.655706940E0,1.821302384E0
1.617138575E1,3.562591553E-2,-1.073118439E0,1.768572235E0,2.068985292E0
1.618139375E1,-4.941224670E-1,-1.607058105E0,1.778302002E0,2.447274152E0
1.619140175E1,-1.432371368E0,-2.537373505E0,1.719624023E0,3.383350236E0
1.620140975E1,-2.532733154E0,-3.667673035E0,1.653910675E0,4.754154314E0
1.621141775E1,-4.028422852E0,-5.015470276E0,1.338067474E0,6.570658820E0
1.622142575E1,-6.013894043E0,-7.354655914E0,8.765771484E-1,9.540768977E0
1.623143375E1,-8.656349030E0,-1.026161087E1,-1.326242065E-1,1.342574487E1
1.624144175E1,-1.119177658E1,-1.343216766E1,-2.394720154E0,1.764691689E1
1.625144975E1,-1.420516022E1,-1.690075470E1,-6.518195343E0,2.301975145E1
1.626145775E1,-1.832609070E1,-1.985396347E1,-8.015232239E0,2.818278577E1
1.627146575E1,-2.225766495E1,-2.216695358E1,-4.827012177E0,3.178171686E1
1.628147375E1,-2.487108032E1,-2.320848770E1,-1.012943573E0,3.403278702E1
1.629148075E1,-2.563149902E1,-2.305415863E1,6.411167908E-1,3.448012475E1
1.630148875E1,-2.214090775E1,-1.994362701E1,-2.965333557E-1,2.980026823E1
1.631149675E1,-1.638133484E1,-1.528546371E1,-1.250200195E0,2.244006534E1
1.632150475E1,-1.297561707E1,-1.261681320E1,-6.532415771E-1,1.811014462E1
1.633151275E1,-1.062924637E1,-1.078477295E1,2.429447937E-1,1.514434641E1
1.634152075E1,-8.911268921E0,-9.272018738E0,6.053411865E-1,1.287429545E1
1.635152875E1,-7.631280670E0,-8.103997650E0,7.027885437E-1,1.115370496E1
1.636153675E1,-6.319708099E0,-6.918612671E0,5.530998230E-1,9.386790248E0
1.637154475E1,-4.912783813E0,-5.388344879E0,1.374142456E-1,7.293050665E0
1.638155275E1,-3.486250305E0,-3.759132843E0,-4.944218445E-1,5.150677031E0
