"Time (s)","Acceleration x (m/s^2)","Acceleration y (m/s^2)","Acceleration z (m/s^2)","Absolute acceleration (m/s^2)"
2.591250231E-4,-7.625891876E0,-6.008505249E-1,6.159690857E0,9.821254488E0
1.033712504E-2,-7.654781799E0,-6.536906433E-1,6.097270660E0,9.808144848E0
2.041612507E-2,-7.680827637E0,-6.080355835E-1,6.039191437E0,9.789619690E0
3.049412509E-2,-7.754324799E0,-5.647755432E-1,6.016139374E0,9.830689572E0
4.057312501E-2,-7.815397797E0,-5.210664368E-1,5.936804352E0,9.828407748E0
5.065212504E-2,-7.829019470E0,-4.742138672E-1,5.877527618E0,9.801211944E0
6.073012506E-2,-7.838150482E0,-4.355941772E-1,5.857319641E0,9.794617841E0
7.080925000E-2,-7.861651611E0,-3.827540588E-1,5.896687775E0,9.834784870E0
8.088825003E-2,-7.793243866E0,-3.689826965E-1,5.798042908E0,9.720498945E0
9.096625005E-2,-7.806566162E0,-4.183799744E-1,5.714516602E0,9.683657214E0
1.010452501E-1,-7.834408264E0,-4.052073669E-1,5.759722595E0,9.732242816E0
1.111242501E-1,-7.733518066E0,-4.315525818E-1,5.834417267E0,9.697111124E0
1.212022500E-1,-7.745044098E0,-4.962181091E-1,6.066734161E0,9.850746361E0
1.312812500E-1,-7.704179077E0,-4.971162415E-1,6.250402222E0,9.933228465E0
1.413592501E-1,-7.590864716E0,-4.781057739E-1,6.215674438E0,9.822648369E0
1.514382501E-1,-7.540718994E0,-4.707710266E-1,6.121071167E0,9.723763702E0
1.615172500E-1,-7.603139191E0,-4.526586914E-1,6.056106262E0,9.730829795E0
1.715952500E-1,-7.625592499E0,-3.942800903E-1,5.983357544E0,9.700808484E0
1.816742501E-1,-7.784861298E0,-3.689826965E-1,5.860912170E0,9.751436054E0
1.917532501E-1,-7.936046906E0,-3.225791931E-1,5.699697418E0,9.776065082E0
2.018312501E-1,-7.949967957E0,-3.043171692E-1,5.564079437E0,9.708428268E0
2.119102500E-1,-7.943082275E0,-3.121009827E-1,5.637426910E0,9.745283230E0
2.219882500E-1,-7.842042389E0,-3.372486877E-1,5.783672791E0,9.749986485E0
2.320672501E-1,-7.792345734E0,-4.019142151E-1,5.897436218E0,9.780692257E0
2.421462501E-1,-7.777077484E0,-4.245172119E-1,5.923182678E0,9.785051972E0
2.522242500E-1,-7.652686157E0,-4.583468628E-1,5.869743805E0,9.655443004E0
2.623032500E-1,-7.574848022E0,-5.346881104E-1,5.875282288E0,9.601205961E0
2.723822501E-1,-7.526498566E0,-5.384303284E-1,5.960904236E0,9.616156570E0
2.824602501E-1,-7.458390198E0,-5.715115356E-1,5.975274353E0,9.573824386E0
2.925392501E-1,-7.410789185E0,-5.634283447E-1,6.020330658E0,9.564602923E0
3.026172500E-1,-7.505991211E0,-5.507048035E-1,5.993835754E0,9.621291332E0
3.126962500E-1,-7.604785767E0,-4.899311829E-1,5.882766724E0,9.627031913E0
3.227752501E-1,-7.650740204E0,-4.453239441E-1,5.778283997E0,9.597953169E0
3.328532501E-1,-7.638166351E0,-4.161346436E-1,5.732778625E0,9.559262734E0
3.429322500E-1,-7.662116547E0,-3.707789612E-1,5.775888977E0,9.602416388E0
3.530102500E-1,-7.791597290E0,-3.083587646E-1,5.881269836E0,9.766954917E0
3.630892501E-1,-7.999963989E0,-1.763333130E-1,5.999523926E0,1.000124015E1
3.731682501E-1,-8.075856171E0,7.439529419E-2,6.026916962E0,1.007713826E1
3.832462501E-1,-7.940387878E0,3.252735901E-1,5.856870575E0,9.872106943E0
3.933252500E-1,-7.823031921E0,5.504054260E-1,5.686524811E0,9.687070713E0
4.034042500E-1,-7.850724335E0,8.675958252E-1,5.799240417E0,9.798866491E0
4.134822501E-1,-7.859256592E0,1.285227356E0,6.047574005E0,9.999643738E0
4.235612501E-1,-8.061635742E0,1.679058380E0,6.383625183E0,1.041920718E1
4.336402500E-1,-8.177345123E0,2.082619171E0,6.696175232E0,1.077242028E1
4.437182500E-1,-8.168363800E0,2.510429535E0,7.075187073E0,1.109426409E1
4.537972501E-1,-8.362510071E0,2.932102661E0,7.421716461E0,1.155900843E1
4.638752501E-1,-8.735534363E0,3.391946411E0,7.575746155E0,1.205017804E1
4.739542501E-1,-9.108708344E0,3.904181213E0,7.551496582E0,1.245938599E1
4.840332500E-1,-9.271419983E0,4.336931305E0,7.454049225E0,1.266218984E1
4.941112500E-1,-9.243727570E0,4.669240265E0,7.241191864E0,1.263658038E1
5.041902501E-1,-9.275910645E0,4.907095642E0,7.294630737E0,1.278020906E1
5.142692501E-1,-9.465266876E0,5.253625031E0,7.804320831E0,1.334538409E1
5.243472500E-1,-9.454339600E0,5.125042419E0,8.252937927E0,1.355586889E1
5.344262500E-1,-9.537267151E0,4.895419922E0,8.484207001E0,1.367137043E1
5.445042501E-1,-9.459578705E0,4.577331390E0,8.418942719E0,1.346529571E1
5.545832501E-1,-9.272318115E0,4.102518768E0,8.100704498E0,1.297797969E1
5.646622501E-1,-9.157955933E0,3.807332611E0,7.912695465E0,1.268758007E1
5.747402500E-1,-8.876690826E0,3.574117584E0,8.047714691E0,1.250342626E1
5.848192500E-1,-8.720715179E0,3.475921783E0,8.294701080E0,1.252736890E1
5.948982501E-1,-8.831484833E0,3.412453766E0,8.493936768E0,1.271954900E1
6.049762501E-1,-9.192983093E0,3.245850220E0,8.392148438E0,1.286369454E1
6.150552500E-1,-9.485774231E0,3.263064423E0,8.240214386E0,1.298185793E1
6.251332500E-1,-9.413624268E0,3.442690887E0,7.962092743E0,1.280091259E1
6.352122501E-1,-9.473200378E0,3.335513763E0,7.552394714E0,1.256605918E1
6.452912501E-1,-9.368717651E0,3.369942169E0,7.673642578E0,1.257036877E1
6.553692501E-1,-8.793314209E0,3.613336029E0,7.742200012E0,1.226051520E1
6.654482500E-1,-8.266858978E0,3.637136536E0,7.589816895E0,1.179724714E1
6.755272500E-1,-7.758665771E0,3.522175598E0,7.369325409E0,1.126541488E1
6.856052501E-1,-7.333400116E0,3.354973297E0,7.146139526E0,1.077505978E1
6.956842501E-1,-7.001240845E0,3.116519165E0,6.985822906E0,1.036975346E1
7.057622500E-1,-6.528074799E0,2.793490906E0,6.674620056E0,9.745250377E0
7.158412500E-1,-5.946983185E0,2.410138092E0,6.343508606E0,9.023052480E0
7.259202501E-1,-5.386249237E0,2.064506836E0,5.880671082E0,8.237485156E0
7.359982501E-1,-4.928052063E0,1.716330872E0,5.426365814E0,7.528408513E0
7.460772501E-1,-4.512216797E0,1.423839111E0,4.908592529E0,6.817748811E0
7.561562500E-1,-4.306095428E0,1.063238983E0,4.365222473E0,6.223190678E0
7.662342500E-1,-4.324956207E0,6.993457031E-1,3.828289032E0,5.818086242E0
7.763132501E-1,-4.356540527E0,4.360432434E-1,3.307222595E0,5.487011971E0
7.863912501E-1,-4.281396790E0,2.372566223E-1,2.704126740E0,5.069413240E0
7.964702500E-1,-4.408632202E0,6.735992432E-3,2.297721863E0,4.971479561E0
8.065492500E-1,-4.476291504E0,-1.276844788E-1,1.976938934E0,4.895076762E0
8.166272501E-1,-4.415068817E0,-4.529580688E-1,1.703307953E0,4.753868073E0
8.267062501E-1,-4.215833130E0,-8.804690552E-1,1.465751953E0,4.549384961E0
8.367852501E-1,-4.383933563E0,-9.398954773E-1,1.363364868E0,4.686260850E0
8.468632500E-1,-4.830005951E0,-1.015787659E0,1.370549927E0,5.122420244E0
8.569422500E-1,-5.224585419E0,-1.331780548E0,1.418749695E0,5.575193532E0
8.670202501E-1,-5.541177063E0,-1.619332581E0,1.413660278E0,5.943510464E0
8.770992501E-1,-5.852230225E0,-1.846859436E0,1.536854095E0,6.326247615E0
8.871782500E-1,-5.849685516E0,-1.979633331E0,1.737137604E0,6.415248695E0
8.972562500E-1,-5.646408234E0,-2.043700104E0,1.876946869E0,6.291388210E0
9.073352501E-1,-5.846392365E0,-2.150278473E0,2.220482483E0,6.613209784E0
9.174142501E-1,-6.119274902E0,-1.972897339E0,2.651585999E0,6.954765097E0
9.274922501E-1,-6.794820099E0,-2.004930725E0,3.085383911E0,7.727154798E0
9.375712500E-1,-7.172784119E0,-2.015858002E0,3.431613922E0,8.202956150E0
9.476492500E-1,-7.522606659E0,-2.275268555E0,3.692671051E0,8.683448476E0
9.577282501E-1,-8.084687805E0,-2.698588257E0,3.852688293E0,9.353489326E0
9.678072501E-1,-8.738528137E0,-3.125051422E0,3.884272614E0,1.006058617E1
9.778852500E-1,-9.193132782E0,-3.371289368E0,3.784579926E0,1.049772964E1
9.879642500E-1,-9.387279053E0,-3.273392944E0,3.578907623E0,1.056620505E1
9.980432501E-1,-9.773475952E0,-3.310066681E0,3.307222595E0,1.083582461E1
1.008121250E0,-1.003483246E1,-3.286415863E0,2.933599548E0,1.095921521E1
1.018200250E0,-1.012389725E1,-3.228186951E0,2.695295105E0,1.096262296E1
1.028278250E0,-1.026176056E1,-3.198548584E0,2.722987518E0,1.108824169E1
1.038357250E0,-1.035845947E1,-3.204536133E0,3.056643677E0,1.126542520E1
1.048436250E0,-1.030023056E1,-3.173849945E0,3.473377075E0,1.132397551E1
1.058514250E0,-1.049766998E1,-3.220702515E0,3.885170746E0,1.164768438E1
1.068593250E0,-1.100361786E1,-3.323688354E0,4.283492432E0,1.226681775E1
1.078672333E0,-1.140448425E1,-3.191213837E0,4.498146057E0,1.266804739E1
1.088750333E0,-1.198707275E1,-3.253035278E0,4.553231506E0,1.322891034E1
1.098829333E0,-1.220292389E1,-3.439846802E0,4.461622009E0,1.344060893E1
1.108907333E0,-1.264690063E1,-3.609294434E0,4.390370178E0,1.386529669E1
1.118986333E0,-1.285481827E1,-3.580105133E0,4.543202362E0,1.409624749E1
1.129065333E0,-1.312126419E1,-3.988455963E0,4.734205170E0,1.450820642E1
1.139143333E0,-1.338142319E1,-3.912563782E0,4.845124512E0,1.475960275E1
1.149222333E0,-1.335432953E1,-3.579955444E0,5.066813507E0,1.472503981E1
1.159301333E0,-1.328696960E1,-3.362158356E0,5.310656433E0,1.469866463E1
1.169379333E0,-1.316841614E1,-3.081042938E0,5.362598419E0,1.454845253E1
1.179458333E0,-1.280197815E1,-2.643203430E0,5.348527679E0,1.412387756E1
1.189536333E0,-1.251128265E1,-2.129172363E0,5.430108032E0,1.380404440E1
1.199615333E0,-1.235351074E1,-1.603914642E0,5.564528503E0,1.364352401E1
1.209694333E0,-1.228824646E1,-1.108894043E0,5.353766785E0,1.344966415E1
1.219772333E0,-1.224902802E1,-7.173083496E-1,4.946314087E0,1.322948380E1
1.229851333E0,-1.192674820E1,-2.974314880E-1,4.356241150E0,1.270089072E1
1.239930333E0,-1.160895905E1,-5.298980713E-2,3.713926849E0,1.218868289E1
1.250008333E0,-1.133442993E1,8.996292114E-2,3.052602081E0,1.173864450E1
1.260087333E0,-1.094479019E1,2.806663513E-1,2.504891052E0,1.123128154E1
1.270165333E0,-1.045171555E1,4.101470947E-1,2.122436371E0,1.067292437E1
1.280244333E0,-9.961335297E0,3.631448364E-1,2.102378082E0,1.018725030E1
1.290323333E0,-9.419761505E0,4.135899353E-1,2.239343262E0,9.691110447E0
1.300401333E0,-9.218879242E0,3.986210632E-1,2.069895630E0,9.456801846E0
1.310480333E0,-9.236542511E0,2.894979858E-1,1.961221619E0,9.446899855E0
1.320559333E0,-9.064400482E0,2.869532776E-1,1.906585236E0,9.267187575E0
1.330637333E0,-8.879983978E0,3.613485718E-1,1.804946594E0,9.068766203E0
1.340716333E0,-8.548573151E0,4.543052673E-1,1.883233795E0,8.765333178E0
1.350794333E0,-8.086783447E0,5.242098999E-1,1.882635040E0,8.319565928E0
1.360873333E0,-7.985593872E0,3.432362366E-1,2.003433838E0,8.240222554E0
1.370952333E0,-8.102351074E0,1.718426514E-1,2.499651947E0,8.480912845E0
1.381030333E0,-8.373137970E0,4.550537109E-2,3.184028778E0,8.958211287E0
1.391109333E0,-8.660690002E0,-7.978408813E-2,3.684887238E0,9.412348845E0
1.401188333E0,-9.128467255E0,-2.835104370E-1,3.849694519E0,9.911076656E0
1.411266333E0,-9.702373810E0,-4.767585754E-1,3.856879578E0,1.045174035E1
1.421345333E0,-1.032028885E1,-8.270301819E-1,3.825444946E0,1.103749835E1
1.431423333E0,-1.099059494E1,-1.227597198E0,3.953578491E0,1.174440100E1
1.441502333E0,-1.145283371E1,-1.482816467E0,4.443359985E0,1.237374610E1
1.451581333E0,-1.172362061E1,-1.632355499E0,5.122497711E0,1.289759076E1
1.461659333E0,-1.200279007E1,-1.558259583E0,5.768853607E0,1.340801306E1
1.471738333E0,-1.207269470E1,-1.260379028E0,6.245462494E0,1.365079904E1
1.481817333E0,-1.208032883E1,-8.788224792E-1,6.468348999E0,1.373121307E1
1.491895333E0,-1.221115677E1,-5.284011841E-1,6.439159698E0,1.381500398E1
1.501974333E0,-1.254211853E1,-2.839595032E-1,6.258635101E0,1.401983893E1
1.512052333E0,-1.272279282E1,-1.324745178E-1,5.905519409E0,1.402719380E1
1.522131333E0,-1.242596008E1,-1.290316772E-1,5.414540405E0,1.355501313E1
1.532210333E0,-1.207434128E1,-9.205856323E-2,5.251978455E0,1.316743976E1
1.542288333E0,-1.173873917E1,1.350192261E-1,5.236859894E0,1.285460730E1
1.552367333E0,-1.160925842E1,3.212319946E-1,5.209766235E0,1.272869732E1
1.562446333E0,-1.177631104E1,3.278182983E-1,5.249733124E0,1.289762243E1
1.572524333E0,-1.222268280E1,2.267784119E-1,5.246290283E0,1.330296828E1
1.582603333E0,-1.288730072E1,5.957611084E-2,5.398224335E0,1.397236183E1
1.592681333E0,-1.359802277E1,-6.601272583E-2,5.544021149E0,1.468491578E1
1.602760333E0,-1.409364212E1,-1.480421448E-1,5.583089905E0,1.515993264E1
1.612839333E0,-1.442595108E1,-4.574487305E-1,5.493426361E0,1.544328518E1
1.622917333E0,-1.437460785E1,-9.280700684E-1,5.269492035E0,1.533812932E1
1.632996333E0,-1.438972641E1,-1.521436157E0,5.186863861E0,1.537148499E1
1.643074333E0,-1.471949066E1,-2.225721588E0,5.324876862E0,1.581048878E1
1.653153333E0,-1.516301834E1,-2.909499664E0,5.710475006E0,1.646182974E1
1.663232333E0,-1.528276932E1,-3.359913025E0,6.039939880E0,1.677298206E1
1.673310333E0,-1.519041138E1,-3.583547974E0,5.966592407E0,1.670899874E1
1.683389333E0,-1.507709702E1,-3.682192841E0,5.823939056E0,1.657696186E1
1.693468333E0,-1.498698441E1,-3.725602570E0,5.582191772E0,1.642104385E1
1.703546333E0,-1.489597366E1,-3.623065796E0,5.265600128E0,1.620935476E1
1.713625333E0,-1.439077423E1,-3.511996765E0,5.041516113E0,1.564753619E1
1.723703333E0,-1.378213989E1,-3.486399994E0,4.862937469E0,1.502499670E1
1.733782333E0,-1.304447388E1,-3.489693146E0,4.756059723E0,1.431629704E1
1.743861333E0,-1.226684097E1,-3.463647308E0,4.699477386E0,1.358518781E1
1.753939333E0,-1.145852188E1,-3.443139954E0,4.593797150E0,1.281623614E1
1.764018333E0,-1.074151291E1,-3.522624664E0,4.451293488E0,1.214919741E1
1.774097333E0,-1.010698242E1,-3.653153229E0,4.377197571E0,1.160415791E1
1.784175333E0,-9.353449402E0,-3.806883545E0,4.248165894E0,1.095565112E1
1.794254333E0,-8.495583344E0,-3.975582733E0,4.029770050E0,1.020878255E1
1.804332333E0,-7.738906860E0,-4.162394257E0,3.829935608E0,9.585646149E0
1.814411333E0,-7.007976837E0,-4.272415466E0,3.651656342E0,8.983310487E0
1.824490333E0,-6.427334290E0,-4.295467529E0,3.490890656E0,8.482215803E0
1.834568333E0,-6.099216614E0,-4.277355194E0,3.434308319E0,8.203089929E0
1.844647333E0,-5.883215790E0,-4.144281921E0,3.343746643E0,7.935234230E0
1.854726333E0,-5.672753448E0,-3.970493317E0,2.970572662E0,7.534537199E0
1.864804333E0,-5.319637756E0,-3.886517944E0,2.472857666E0,7.036944836E0
1.874883333E0,-5.225483551E0,-3.783681793E0,2.036964111E0,6.765437831E0
1.884961333E0,-5.200485535E0,-3.684138794E0,1.782493286E0,6.617795008E0
1.895040333E0,-4.953948212E0,-3.560645599E0,1.435514832E0,6.267415959E0
1.905119333E0,-4.834346924E0,-3.522325287E0,1.030307465E0,6.069532031E0
1.915197333E0,-4.698579254E0,-3.576362915E0,6.821315002E-1,5.944099771E0
1.925276333E0,-4.490511932E0,-3.655099182E0,3.779640198E-1,5.802353337E0
1.935355333E0,-4.406386871E0,-3.770209808E0,1.417552185E-1,5.800932839E0
1.945433333E0,-4.517156525E0,-3.889811096E0,-3.936813354E-2,5.961282017E0
1.955512333E0,-4.599784698E0,-4.039649506E0,-8.577163696E-2,6.122429597E0
1.965590333E0,-4.638853455E0,-4.203858032E0,-1.007405090E-1,6.261112711E0
1.975669333E0,-4.739294586E0,-4.265829163E0,-7.244934082E-2,6.376790770E0
1.985748333E0,-4.807402954E0,-4.229604492E0,-1.496887207E-3,6.403177302E0
1.995826333E0,-4.967719574E0,-4.250560913E0,8.936416626E-2,6.538615434E0
2.005905333E0,-5.331163788E0,-4.234843597E0,1.966909790E-1,6.811306407E0
2.015983333E0,-5.849386139E0,-4.189487915E0,3.727249146E-1,7.204585419E0
2.026062333E0,-6.277046814E0,-4.065395966E0,4.158352661E-1,7.490105475E0
2.036141333E0,-6.729406128E0,-4.039200439E0,2.984793091E-1,7.854243243E0
2.046219333E0,-7.152576141E0,-4.268224182E0,1.731898499E-1,8.331091036E0
2.056298333E0,-7.514373779E0,-4.643344116E0,2.918930054E-1,8.838080074E0
2.066377333E0,-7.879464569E0,-5.021607513E0,7.610174561E-1,9.374521400E0
2.076454833E0,-8.529412994E0,-5.260810089E0,1.512754211E0,1.013486231E1
2.086533833E0,-9.044491882E0,-5.203778687E0,2.257305908E0,1.067602810E1
2.096611833E0,-9.371711426E0,-5.063370667E0,2.862946472E0,1.103010245E1
2.106690833E0,-9.576934662E0,-4.906796265E0,3.373983765E0,1.127732652E1
2.116769833E0,-9.658365326E0,-4.635709991E0,3.894002380E0,1.139899480E1
2.126847833E0,-9.847122803E0,-4.405488739E0,4.279600525E0,1.160556501E1
2.136926833E0,-1.032702484E1,-4.326902161E0,4.701573029E0,1.214390025E1
2.147005833E0,-1.080303497E1,-4.266128540E0,5.173691254E0,1.271505008E1
2.157083833E0,-1.103565125E1,-4.296814728E0,5.448220367E0,1.303577080E1
2.167162833E0,-1.119701569E1,-4.507726135E0,5.438191223E0,1.323883224E1
2.177240833E0,-1.149624344E1,-4.821623383E0,5.219496002E0,1.351498442E1
2.187319833E0,-1.196147598E1,-5.006339264E0,5.210514679E0,1.397461283E1
2.197398833E0,-1.261052628E1,-4.956492920E0,5.471122742E0,1.461250762E1
2.207476833E0,-1.322185501E1,-4.879103851E0,5.457800446E0,1.511326206E1
2.217555833E0,-1.362945740E1,-4.569697266E0,5.258714447E0,1.530680632E1
2.227634833E0,-1.382719620E1,-4.166884918E0,4.906945953E0,1.525229174E1
2.237712833E0,-1.398691406E1,-3.664978638E0,4.619543610E0,1.517913096E1
2.247791833E0,-1.401266052E1,-3.196752319E0,4.363725586E0,1.502051868E1
2.257869833E0,-1.362900833E1,-2.699187012E0,4.279899902E0,1.453798548E1
2.267948833E0,-1.290960434E1,-2.218087463E0,4.259242859E0,1.377385008E1
2.278027833E0,-1.217942276E1,-1.838027802E0,4.296365662E0,1.304513100E1
2.288105833E0,-1.163335831E1,-1.369053040E0,4.363575897E0,1.250000505E1
2.298184833E0,-1.149789001E1,-8.981323242E-1,4.194876709E0,1.227212724E1
2.308262833E0,-1.146645538E1,-4.483177185E-1,4.092489624E0,1.218314652E1
2.318341833E0,-1.137125336E1,-7.125183105E-2,4.029171295E0,1.206419086E1
2.328420833E0,-1.115435440E1,1.288819885E-1,3.798800354E0,1.178418927E1
2.338498833E0,-1.077579163E1,2.396516418E-1,3.473826141E0,1.132442432E1
2.348577833E0,-1.060559555E1,2.929408264E-1,3.213816833E0,1.108571558E1
2.358656833E0,-1.063927551E1,4.450245667E-1,3.292104034E0,1.114585929E1
2.368734833E0,-1.055994049E1,7.481442261E-1,3.380570068E0,1.111306965E1
2.378813833E0,-1.050036438E1,8.527766418E-1,3.129242706E0,1.098986078E1
2.388891833E0,-1.030427216E1,8.204438782E-1,2.881358185E0,1.073095419E1
2.398970833E0,-9.945468292E0,8.458909607E-1,2.763553162E0,1.035688646E1
2.409049833E0,-9.656119995E0,8.428971863E-1,2.747087402E0,1.007460263E1
2.419127833E0,-9.393416290E0,8.381071472E-1,2.796334991E0,9.836573721E0
2.429206833E0,-9.227411499E0,8.135581970E-1,2.928061066E0,9.714964823E0
2.439285833E0,-9.429191895E0,6.535409546E-1,3.216211853E0,9.984026955E0
2.449363833E0,-9.659562836E0,5.046006775E-1,3.509152679E0,1.028960293E1
2.459442833E0,-9.962233429E0,2.439926147E-1,3.634292450E0,1.060724794E1
2.469520833E0,-1.036699173E1,-1.957928467E-1,3.671864319E0,1.099979272E1
2.479599833E0,-1.070139633E1,-6.800358582E-1,3.889511719E0,1.140660482E1
2.489678833E0,-1.095317276E1,-1.165626068E0,4.282444611E0,1.181820669E1
2.499756833E0,-1.147498764E1,-1.630858612E0,4.921765137E0,1.259201387E1
2.509835833E0,-1.191507248E1,-1.831740875E0,5.481600952E0,1.324281601E1
2.519913833E0,-1.221415054E1,-1.803300018E0,5.603297882E0,1.355855124E1
2.529992833E0,-1.266770737E1,-1.517394562E0,5.413492584E0,1.385926398E1
2.540071833E0,-1.331301544E1,-1.249451752E0,5.129084015E0,1.432148780E1
2.550149833E0,-1.373034760E1,-8.665480042E-1,4.963677979E0,1.462571193E1
2.560228833E0,-1.401745056E1,-6.438111877E-1,4.720733185E0,1.480502397E1
2.570307833E0,-1.403990387E1,-7.746391296E-1,4.512665863E0,1.476763758E1
2.580385833E0,-1.395697632E1,-1.078207855E0,4.722529449E0,1.477369299E1
2.590464833E0,-1.376342880E1,-1.312770081E0,5.244793396E0,1.478726464E1
2.600542833E0,-1.343785583E1,-1.401685181E0,5.772595825E0,1.469229571E1
2.610621833E0,-1.317155960E1,-1.318607941E0,6.091432800E0,1.457169389E1
2.620700833E0,-1.293370422E1,-1.149459686E0,5.961353302E0,1.428774635E1
2.630778833E0,-1.280167877E1,-1.021625519E0,5.480553131E0,1.396292092E1
2.640857833E0,-1.299956726E1,-1.162781982E0,5.008135529E0,1.397935021E1
2.650935833E0,-1.340926529E1,-1.572480011E0,4.864733734E0,1.435084399E1
2.661014833E0,-1.375908783E1,-2.132315826E0,4.917873230E0,1.476633827E1
2.671093833E0,-1.405083115E1,-2.772983551E0,4.991071014E0,1.516661081E1
2.681171833E0,-1.438343948E1,-3.393443298E0,5.072651367E0,1.562467858E1
2.691250833E0,-1.453791824E1,-3.855233002E0,5.142406311E0,1.589522667E1
2.701329833E0,-1.457324478E1,-4.182153168E0,5.361999664E0,1.608169484E1
2.711407833E0,-1.439706116E1,-4.321812744E0,5.570815430E0,1.603082717E1
2.721486833E0,-1.403676041E1,-4.353995819E0,5.683980103E0,1.575739674E1
2.731564833E0,-1.372705444E1,-4.351750488E0,5.804329834E0,1.552610707E1
2.741643833E0,-1.337528595E1,-4.358935547E0,5.699697418E0,1.517844340E1
2.751722833E0,-1.293999115E1,-4.280947723E0,5.411696320E0,1.466479940E1
2.761800833E0,-1.221744370E1,-4.209695892E0,5.201084290E0,1.392977917E1
2.771879833E0,-1.134176468E1,-4.192930756E0,5.176685028E0,1.315349240E1
2.781958833E0,-1.088970474E1,-4.235442352E0,5.420677643E0,1.288054298E1
2.792036833E0,-1.051293823E1,-4.224066010E0,5.547763367E0,1.261516081E1
2.802115833E0,-9.989476776E0,-4.219725037E0,5.310806122E0,1.207478312E1
2.812193833E0,-9.369915161E0,-4.279001770E0,4.775968323E0,1.135407591E1
2.822272833E0,-8.832981720E0,-4.357887726E0,4.311035156E0,1.075164060E1
2.832351833E0,-8.504414978E0,-4.416865082E0,4.035607910E0,1.039807206E1
2.842429833E0,-8.172255707E0,-4.406985626E0,3.897445221E0,1.006962586E1
2.852508833E0,-7.854017487E0,-4.437821503E0,3.799848175E0,9.788702494E0
2.862586833E0,-7.533533936E0,-4.512366486E0,3.601211243E0,9.491275324E0
2.872665833E0,-7.248526611E0,-4.504582672E0,3.440595245E0,9.201635655E0
2.882744833E0,-6.950496368E0,-4.442910919E0,3.165766754E0,8.835775933E0
2.892822833E0,-6.660100250E0,-4.380490723E0,2.880010986E0,8.475853797E0
2.902901833E0,-6.291117554E0,-4.302951965E0,2.565365295E0,8.042055383E0
2.912980833E0,-5.921985168E0,-4.232598267E0,2.262245636E0,7.622502984E0
2.923058833E0,-5.570066986E0,-4.109703827E0,1.982178040E0,7.200301491E0
2.933137833E0,-5.388644257E0,-4.052373047E0,1.731748810E0,6.961190141E0
2.943215833E0,-5.187612305E0,-3.986809387E0,1.474134521E0,6.706641716E0
2.953294833E0,-4.978796539E0,-3.894601135E0,1.331181793E0,6.459750610E0
2.963373833E0,-4.877157898E0,-3.869603119E0,1.262324982E0,6.352476826E0
2.973451833E0,-4.836292877E0,-3.861819305E0,1.224304047E0,6.308906208E0
2.983530833E0,-4.797373810E0,-3.901037750E0,1.111588440E0,6.282397620E0
2.993608833E0,-4.638554077E0,-3.996838531E0,9.677375793E-1,6.198985255E0
3.003687833E0,-4.562512207E0,-4.121828613E0,8.560697937E-1,6.207966193E0
3.013766833E0,-4.619992676E0,-4.306694183E0,7.741900635E-1,6.363278822E0
3.023844833E0,-4.721182251E0,-4.453987885E0,7.232958984E-1,6.530752398E0
3.033923833E0,-4.869972839E0,-4.456831970E0,7.141648865E-1,6.640031487E0
3.044002833E0,-5.255720673E0,-4.261188812E0,6.749464417E-1,6.799697242E0
3.054080833E0,-5.832321625E0,-4.026476898E0,9.116043091E-1,7.145594038E0
3.064159833E0,-6.234535217E0,-3.602259064E0,1.181642761E0,7.296710173E0
3.074237833E0,-6.506519623E0,-3.642675018E0,1.153950348E0,7.545560304E0
3.084316833E0,-6.842271423E0,-4.050127716E0,1.040486298E0,8.018904195E0
3.094395833E0,-7.164401550E0,-4.336182861E0,9.136999512E-1,8.424130755E0
3.104473833E0,-7.255561981E0,-4.452490997E0,9.101074219E-1,8.561317145E0
3.114552833E0,-7.219636688E0,-4.323459320E0,1.401086426E0,8.531031448E0
3.124630833E0,-7.680378571E0,-4.237088928E0,2.289938049E0,9.065591754E0
3.134709833E0,-8.360863495E0,-4.133953400E0,2.954555969E0,9.783813677E0
3.144788833E0,-8.885971527E0,-3.953129425E0,3.402873688E0,1.030375036E1
3.154866833E0,-9.254355469E0,-3.837719421E0,3.605402527E0,1.064754023E1
3.164945833E0,-9.508526917E0,-3.783232727E0,3.625161438E0,1.085664448E1
3.175024833E0,-9.974058838E0,-4.126019897E0,3.609893188E0,1.138144186E1
3.185102833E0,-1.041384430E1,-4.456083527E0,3.670666809E0,1.190708312E1
3.195181833E0,-1.065334625E1,-4.819527740E0,3.854035492E0,1.231158900E1
3.205259833E0,-1.090587112E1,-5.201832733E0,4.201463013E0,1.279255175E1
3.215338833E0,-1.141436371E1,-5.456602936E0,4.644541626E0,1.347716518E1
3.225417833E0,-1.209933929E1,-5.405559082E0,4.947810974E0,1.414549093E1
3.235495833E0,-1.261052628E1,-5.004542999E0,4.911436615E0,1.442889577E1
3.245574833E0,-1.284074753E1,-4.429289246E0,4.493805084E0,1.430725985E1
3.255652833E0,-1.292936325E1,-3.890260162E0,4.068539429E0,1.410161591E1
3.265731833E0,-1.278700928E1,-3.448229370E0,3.901187439E0,1.380641718E1
3.275810833E0,-1.245170654E1,-3.096011810E0,3.859424286E0,1.339871041E1
3.285888833E0,-1.211011688E1,-2.800675964E0,4.009562073E0,1.306044811E1
3.295967833E0,-1.156270523E1,-2.572849731E0,4.129911804E0,1.254479492E1
3.306046833E0,-1.087982529E1,-2.323318634E0,4.165088654E0,1.187924119E1
3.316124833E0,-1.028271698E1,-1.945803680E0,4.043242035E0,1.121910097E1
3.326203833E0,-9.785750427E0,-1.661844177E0,3.801345062E0,1.062886926E1
3.336281833E0,-9.599837036E0,-1.325493622E0,3.859723663E0,1.043126412E1
3.346360833E0,-9.905501404E0,-9.870474243E-1,3.989952850E0,1.072440881E1
3.356439833E0,-9.985884247E0,-7.167095947E-1,3.964655457E0,1.076801048E1
3.366517833E0,-9.974208527E0,-5.623805237E-1,3.692072296E0,1.065046973E1
3.376596833E0,-9.861043854E0,-4.857398987E-1,3.310815125E0,1.041333885E1
3.386674833E0,-9.796977081E0,-5.072950745E-1,3.081941071E0,1.028282398E1
3.396753833E0,-9.829160156E0,-6.057902527E-1,3.287014618E0,1.038189946E1
3.406832833E0,-9.862241364E0,-6.072871399E-1,3.746858368E0,1.056747605E1
3.416910833E0,-9.900262299E0,-5.544470215E-1,4.095932465E0,1.072843268E1
3.426989833E0,-9.788744202E0,-4.062551880E-1,4.138893127E0,1.063555324E1
3.437068833E0,-9.511221313E0,-2.502795410E-1,4.045187988E0,1.033873864E1
3.447146833E0,-9.496252441E0,-2.020797729E-1,4.004921722E0,1.030820279E1
3.457225833E0,-9.448352051E0,-1.381626892E-1,4.110302582E0,1.030461221E1
3.467303833E0,-9.577683105E0,-8.128097534E-2,4.120930481E0,1.042692132E1
3.477382833E0,-9.722881165E0,-1.154100037E-1,3.983815613E0,1.050802191E1
3.487461833E0,-9.826914825E0,-2.736309814E-1,3.931723938E0,1.058780346E1
3.497539833E0,-1.011252090E1,-5.625302124E-1,4.203109589E0,1.096565773E1
3.507618833E0,-1.045994843E1,-8.306227112E-1,4.664749603E0,1.148304594E1
3.517696833E0,-1.087907684E1,-1.161584473E0,5.119204559E0,1.207931483E1
3.527775833E0,-1.127769791E1,-1.453627167E0,5.471122742E0,1.261874344E1
3.537854833E0,-1.161479691E1,-1.602717133E0,5.591322784E0,1.298980754E1
3.547932833E0,-1.185010757E1,-1.596579895E0,5.556595001E0,1.318521387E1
3.558011833E0,-1.199785034E1,-1.500629425E0,5.598956909E0,1.332473714E1
3.568089833E0,-1.231923203E1,-1.246907043E0,5.824088745E0,1.368350337E1
3.578168833E0,-1.253149063E1,-8.536747742E-1,6.103557587E0,1.396497165E1
3.588247833E0,-1.264705032E1,-5.629792786E-1,6.239474945E0,1.411367688E1
3.598325833E0,-1.266800674E1,-4.504133606E-1,6.261479187E0,1.413815365E1
3.608404833E0,-1.265842667E1,-5.086422729E-1,6.375991058E0,1.418265647E1
3.618483833E0,-1.269839355E1,-6.466552734E-1,6.550977173E0,1.430323963E1
3.628561833E0,-1.271740402E1,-7.911048889E-1,6.878047028E0,1.447983919E1
3.638640833E0,-1.266366577E1,-9.322613525E-1,7.052733765E0,1.452510226E1
3.648718833E0,-1.274524612E1,-1.255738678E0,7.087611237E0,1.463736354E1
3.658797833E0,-1.270303391E1,-1.558558960E0,7.076983337E0,1.462463229E1
3.668876833E0,-1.253747818E1,-1.642983398E0,6.947053528E0,1.442738044E1
3.678954833E0,-1.248044678E1,-1.520088959E0,6.669680328E0,1.423224711E1
3.689033833E0,-1.245529907E1,-1.382375336E0,6.269263000E0,1.401246214E1
3.699111833E0,-1.238329880E1,-1.303788757E0,5.874833221E0,1.376806521E1
3.709190833E0,-1.234857101E1,-1.430275726E0,5.623655548E0,1.364398756E1
3.719269833E0,-1.244467117E1,-1.924398193E0,5.539979553E0,1.375734431E1
3.729347833E0,-1.243239670E1,-2.661166077E0,5.655239868E0,1.391502894E1
3.739426833E0,-1.223241257E1,-3.328777771E0,5.857020264E0,1.396486180E1
3.749505833E0,-1.229617996E1,-4.303550720E0,6.067632294E0,1.437124741E1
3.759583833E0,-1.195653625E1,-4.767885132E0,6.134992218E0,1.425936946E1
3.769662833E0,-1.147259262E1,-4.992867279E0,6.262826385E0,1.399185833E1
3.779740833E0,-1.114163086E1,-5.163213043E0,6.124064941E0,1.372220385E1
3.789819833E0,-1.070528824E1,-5.172942810E0,5.620063019E0,1.315095593E1
3.799898833E0,-1.025412643E1,-4.988077240E0,5.168751526E0,1.251974504E1
3.809976833E0,-9.810898132E0,-4.716990967E0,4.881199493E0,1.193020681E1
3.820055833E0,-9.336983643E0,-4.536017303E0,4.829257507E0,1.144886215E1
3.830133833E0,-8.742120667E0,-4.245471497E0,4.962330780E0,1.091207720E1
3.840212833E0,-8.190517731E0,-3.926784210E0,4.880301361E0,1.031123447E1
3.850291833E0,-7.633376312E0,-3.792962494E0,4.685556335E0,9.726738229E0
3.860369833E0,-7.090605011E0,-3.730841675E0,4.520299988E0,9.199400579E0
3.870448833E0,-6.851402435E0,-3.825744324E0,4.318519592E0,8.956988692E0
3.880526833E0,-6.546336823E0,-4.024830322E0,4.119134216E0,8.719005196E0
3.890605833E0,-6.283333740E0,-4.091292114E0,3.884272614E0,8.444319262E0
3.900684833E0,-6.238277435E0,-4.207899628E0,3.696413269E0,8.383674355E0
3.910762833E0,-6.069578247E0,-4.205803986E0,3.405119019E0,8.131629775E0
3.920841833E0,-5.859864349E0,-4.194427643E0,2.973865814E0,7.795839360E0
3.930920833E0,-5.686973877E0,-4.152365112E0,2.565514984E0,7.494376227E0
3.940998833E0,-5.588179321E0,-4.040697327E0,2.267185364E0,7.259139927E0
3.951077833E0,-5.482798462E0,-3.925736389E0,2.009571075E0,7.036395461E0
3.961155833E0,-5.550757141E0,-3.824546814E0,1.777553558E0,6.971209352E0
3.971234833E0,-5.489534454E0,-3.666176147E0,1.620081024E0,6.797094864E0
3.981313833E0,-5.373226318E0,-3.516936493E0,1.516496429E0,6.598497161E0
3.991391833E0,-5.260361023E0,-3.473526764E0,1.534608765E0,6.487820153E0
4.001470833E0,-5.296585693E0,-3.462000732E0,1.492396545E0,6.501270378E0
4.011548833E0,-5.406906281E0,-3.599115601E0,1.293011169E0,6.622699338E0
4.021627833E0,-5.510041809E0,-3.823199615E0,1.059796143E0,6.789741078E0
4.031706833E0,-5.578898621E0,-4.125720520E0,1.003662872E0,7.010921394E0
4.041784833E0,-5.718558197E0,-4.431534576E0,1.095272369E0,7.317105173E0
4.051863833E0,-6.096671906E0,-4.738695831E0,1.354233856E0,7.839553294E0
4.061942833E0,-6.448739777E0,-5.028792572E0,1.623374176E0,8.337286318E0
4.072020833E0,-6.701264648E0,-5.227878571E0,2.096540222E0,8.754035820E0
4.082100125E0,-6.937024384E0,-5.242847443E0,2.641856232E0,9.087857886E0
4.092178125E0,-7.138954468E0,-5.115761719E0,2.973416748E0,9.272372728E0
4.102257125E0,-7.370822296E0,-5.046605530E0,3.125500488E0,9.463931635E0
4.112336125E0,-7.700736237E0,-5.025050354E0,3.124302979E0,9.711526077E0
4.122414125E0,-8.183632050E0,-5.150788879E0,2.917283478E0,1.010014864E1
4.132493125E0,-8.584797821E0,-5.340594177E0,2.796634369E0,1.049008406E1
4.142571125E0,-8.602760468E0,-5.296585693E0,2.935994568E0,1.052052146E1
4.152650125E0,-8.685089264E0,-5.051395569E0,3.514691162E0,1.064426732E1
4.162729125E0,-8.816815338E0,-4.759502563E0,4.138743439E0,1.084058553E1
4.172807125E0,-8.972491608E0,-4.504133606E0,4.603826294E0,1.104481968E1
4.182886125E0,-9.031768341E0,-4.083508301E0,4.769831085E0,1.099996218E1
4.192964125E0,-9.185348969E0,-3.660787354E0,4.797822876E0,1.099050063E1
4.203043125E0,-9.327403564E0,-3.600911865E0,4.448898468E0,1.094347847E1
4.213122125E0,-9.424701233E0,-3.849245453E0,3.969445496E0,1.092694749E1
4.223200125E0,-9.434131622E0,-4.169279938E0,3.537593536E0,1.090414154E1
4.233279125E0,-9.569599915E0,-4.595892792E0,3.324586487E0,1.112440328E1
4.243358125E0,-9.996063080E0,-5.006488953E0,3.474125519E0,1.170708148E1
4.253436125E0,-1.056143738E1,-5.179828491E0,3.891008606E0,1.239009809E1
4.263515125E0,-1.105885300E1,-5.021457825E0,4.264781342E0,1.287251445E1
4.273593125E0,-1.128308670E1,-4.623435516E0,4.345613251E0,1.294482738E1
4.283672125E0,-1.117740646E1,-4.155358887E0,4.129313049E0,1.261953442E1
4.293751125E0,-1.088207062E1,-3.582799530E0,3.832180939E0,1.208062598E1
4.303829125E0,-1.073597443E1,-3.272494812E0,3.557202759E0,1.177387195E1
4.313908125E0,-1.050874695E1,-3.082240448E0,3.568728790E0,1.151823744E1
4.323986125E0,-1.028705795E1,-2.943628693E0,3.816763000E0,1.136029009E1
4.334065125E0,-1.005339386E1,-2.786156158E0,4.198918304E0,1.124563512E1
4.344144125E0,-9.752818909E0,-2.472857666E0,4.344116364E0,1.095919015E1
4.354222125E0,-9.442065125E0,-2.138602753E0,4.014501801E0,1.048057442E1
4.364301125E0,-9.205706635E0,-1.806742859E0,3.305875397E0,9.946766637E0
4.374379125E0,-8.958570557E0,-1.521136780E0,2.513273621E0,9.427957775E0
4.384458125E0,-8.912316742E0,-1.397344208E0,1.987866211E0,9.237617259E0
4.394537125E0,-8.850644989E0,-1.376986542E0,1.657952271E0,9.109270793E0
4.404615125E0,-8.892258453E0,-1.400487671E0,1.473535767E0,9.121673847E0
4.414694125E0,-8.909173279E0,-1.432970123E0,1.629661102E0,9.169654693E0
4.424772125E0,-8.913963318E0,-1.425335999E0,1.976340179E0,9.241008887E0
4.434851125E0,-8.856931915E0,-1.459614716E0,2.224075012E0,9.247822864E0
4.444930125E0,-8.803193665E0,-1.519639893E0,2.457439728E0,9.265232545E0
4.455008125E0,-8.617429962E0,-1.485211487E0,2.711461487E0,9.155215765E0
4.465087125E0,-8.523874512E0,-1.528471527E0,2.982248383E0,9.158955580E0
4.475166125E0,-8.282276917E0,-1.476529541E0,3.150648193E0,8.983475633E0
4.485244125E0,-8.152646484E0,-1.386566620E0,3.322041779E0,8.912024084E0
4.495323125E0,-8.207731934E0,-1.284329224E0,3.400029602E0,8.976445084E0
4.505401125E0,-8.358767853E0,-1.236129456E0,3.397784271E0,9.107247334E0
4.515480125E0,-8.527916107E0,-1.335822144E0,3.463796997E0,9.300949606E0
4.525559125E0,-8.811426544E0,-1.533261566E0,3.675606537E0,9.669654192E0
4.535637125E0,-9.293124847E0,-1.754950562E0,4.019441528E0,1.027608540E1
4.545716125E0,-9.766440582E0,-1.992356873E0,4.205055542E0,1.081828728E1
4.555794125E0,-1.026565247E1,-2.290087738E0,4.255949707E0,1.134641927E1
4.565873125E0,-1.077848602E1,-2.654280396E0,4.301455078E0,1.190476716E1
4.575952125E0,-1.111708191E1,-2.913541260E0,4.353846130E0,1.228959759E1
4.586030125E0,-1.131047974E1,-3.057541809E0,4.542304230E0,1.256614664E1
4.596109125E0,-1.138487503E1,-3.043770447E0,4.808750153E0,1.272807904E1
4.606187125E0,-1.133951935E1,-2.900368652E0,5.173092499E0,1.279678567E1
4.616266125E0,-1.134101624E1,-2.664159851E0,5.426515503E0,1.285159397E1
4.626345125E0,-1.125434647E1,-2.389331360E0,5.575455780E0,1.278494919E1
4.636423125E0,-1.123279129E1,-2.086960144E0,5.706433411E0,1.277084121E1
4.646502125E0,-1.128383514E1,-1.898651733E0,5.778733063E0,1.281887553E1
4.656580125E0,-1.136766083E1,-1.899699554E0,5.943540344E0,1.296758431E1
4.666659125E0,-1.128548172E1,-1.895657959E0,6.181096344E0,1.300621270E1
4.676738125E0,-1.114926498E1,-1.772613831E0,6.459367676E0,1.300660218E1
4.686816125E0,-1.118728592E1,-1.692380676E0,6.567442932E0,1.308246251E1
4.696895125E0,-1.138921600E1,-1.770518188E0,6.523584137E0,1.324409777E1
4.706974125E0,-1.175670181E1,-1.878443756E0,6.360722809E0,1.349842150E1
4.717052125E0,-1.213825836E1,-1.892065430E0,6.062692566E0,1.369939666E1
4.727131125E0,-1.250828888E1,-1.849254456E0,5.577850800E0,1.381989335E1
4.737209125E0,-1.298429901E1,-1.762135620E0,5.149291992E0,1.407879081E1
4.747288125E0,-1.329654968E1,-1.629960480E0,4.706363068E0,1.419876255E1
4.757367125E0,-1.355012238E1,-1.651964722E0,4.279450836E0,1.430554100E1
4.767445125E0,-1.382375336E1,-1.957629089E0,3.946094055E0,1.450862250E1
4.777524125E0,-1.408945084E1,-2.421664124E0,4.015549622E0,1.484930035E1
4.787602125E0,-1.411235321E1,-2.968027954E0,4.408332825E0,1.507982431E1
4.797681125E0,-1.427985489E1,-3.784130859E0,4.794679413E0,1.553135064E1
4.807760125E0,-1.410082718E1,-4.274361420E0,5.285957794E0,1.565390822E1
4.817838125E0,-1.355371490E1,-4.486919403E0,5.536836090E0,1.531313774E1
4.827917125E0,-1.284568726E1,-4.595593414E0,5.616171112E0,1.475372963E1
4.837995125E0,-1.210562622E1,-4.722529449E0,5.494324493E0,1.410801447E1
4.848074125E0,-1.124386826E1,-4.661755829E0,5.179978180E0,1.322833000E1
4.858153125E0,-1.045575714E1,-4.589605865E0,4.816084900E0,1.239282103E1
4.868231125E0,-9.834698639E0,-4.494852905E0,4.718038788E0,1.179766460E1
4.878310125E0,-9.225166168E0,-4.287084961E0,4.747377777E0,1.122588010E1
4.888388125E0,-8.747060394E0,-4.085005188E0,4.670587463E0,1.072439836E1
4.898467125E0,-8.355923767E0,-3.981869659E0,4.424199829E0,1.025915650E1
4.908546125E0,-8.008047180E0,-3.905079346E0,3.971541138E0,9.754568332E0
4.918624125E0,-7.774981842E0,-3.942950592E0,3.488795013E0,9.389829214E0
4.928703125E0,-7.435487823E0,-4.016747131E0,3.077001343E0,8.993813093E0
4.938782125E0,-7.174730072E0,-4.102668457E0,2.715353394E0,8.699527811E0
4.948860125E0,-6.991660767E0,-4.122876434E0,2.379152527E0,8.458238417E0
4.958939125E0,-6.974147186E0,-4.166435852E0,1.973496094E0,8.360179634E0
4.969017125E0,-6.838379517E0,-4.210743713E0,1.700613556E0,8.208890516E0
4.979096125E0,-6.644682312E0,-4.204007721E0,1.484313354E0,8.001791679E0
4.989175125E0,-6.574478302E0,-4.137994995E0,1.303339691E0,7.876894177E0
4.999253125E0,-6.438860321E0,-4.010310516E0,1.113235016E0,7.666864083E0
5.009332125E0,-6.243666229E0,-3.936364288E0,1.108744354E0,7.463755478E0
5.019410125E0,-5.974825287E0,-3.827839966E0,1.154100037E0,7.189078029E0
5.029489125E0,-5.764512634E0,-3.724854126E0,1.157093811E0,6.960101311E0
5.039568125E0,-5.519023132E0,-3.709136810E0,1.044827271E0,6.731194265E0
5.049646125E0,-5.271887054E0,-3.830684052E0,9.204359436E-1,6.581347563E0
5.059725125E0,-5.138963470E0,-3.995641022E0,1.002315674E0,6.586253065E0
5.069803125E0,-5.128185883E0,-4.244723053E0,1.156944122E0,6.756810190E0
5.079882708E0,-5.235961761E0,-4.641098785E0,1.225651245E0,7.103331224E0
5.089961708E0,-5.268893280E0,-4.960833893E0,1.222058716E0,7.339246338E0
5.100039708E0,-5.235662384E0,-5.274132385E0,1.258582764E0,7.537417568E0
5.110118708E0,-5.245092773E0,-5.400769043E0,1.258582764E0,7.633042318E0
5.120196708E0,-5.423372040E0,-5.438640289E0,1.405577087E0,7.808163640E0
5.130275708E0,-5.793851624E0,-5.353617096E0,1.680555267E0,8.065618306E0
5.140354708E0,-6.224057007E0,-5.121000824E0,1.987267456E0,8.301371393E0
5.150432708E0,-6.615642700E0,-4.855752411E0,2.137554932E0,8.480224107E0
5.160511708E0,-6.976093140E0,-4.730462952E0,2.068249054E0,8.678756212E0
5.170590708E0,-7.438481598E0,-4.938979340E0,1.885329437E0,9.125732436E0
5.180668708E0,-7.850125580E0,-5.196743317E0,1.813778229E0,9.587512930E0
5.190747708E0,-8.198900299E0,-5.375471649E0,1.973645782E0,1.000064694E1
5.200825708E0,-8.686436462E0,-5.583538971E0,2.364033966E0,1.059333481E1
5.210904708E0,-9.197922821E0,-5.772296448E0,2.870131531E0,1.123204547E1
5.220983708E0,-9.439670105E0,-5.776787109E0,3.374283142E0,1.156997959E1
5.231061708E0,-9.214987335E0,-5.456153870E0,3.866908722E0,1.138589433E1
5.241140708E0,-9.036558380E0,-5.060975647E0,4.441863098E0,1.126956120E1
5.251218708E0,-9.169032898E0,-4.672982483E0,5.166356506E0,1.151517126E1
5.261297708E0,-9.434880066E0,-4.449347534E0,5.730383606E0,1.190172053E1
5.271376708E0,-9.852062531E0,-4.398453369E0,5.838159485E0,1.226758470E1
5.281454708E0,-1.030352371E1,-4.505031738E0,5.584437103E0,1.255563020E1
5.291533708E0,-1.067789520E1,-4.715194702E0,5.139262848E0,1.275392213E1
5.301611708E0,-1.097951797E1,-4.910089417E0,4.809797974E0,1.295349179E1
5.311690708E0,-1.111513596E1,-5.061724091E0,4.517455902E0,1.302208531E1
5.321769708E0,-1.116124008E1,-5.022206268E0,4.406686249E0,1.300825583E1
5.331847708E0,-1.093850327E1,-4.712949371E0,4.446204071E0,1.271343683E1
5.341926708E0,-1.076725937E1,-4.311035156E0,4.452640686E0,1.242356259E1
5.352004708E0,-1.069121750E1,-3.941902771E0,4.359983368E0,1.220041737E1
5.362083708E0,-1.040755737E1,-3.519181824E0,4.227957916E0,1.177189532E1
5.372162708E0,-1.002974304E1,-3.131338348E0,4.098926239E0,1.127839624E1
5.382240708E0,-9.586963806E0,-2.816692657E0,4.002975769E0,1.076417426E1
5.392319708E0,-9.122629395E0,-2.553090820E0,3.917952576E0,1.025138977E1
5.402397708E0,-8.825048218E0,-2.343227234E0,3.885769501E0,9.923275393E0
5.412476708E0,-8.482710114E0,-2.064955902E0,3.834575958E0,9.535427968E0
5.422555708E0,-8.273145905E0,-1.909579010E0,3.511398010E0,9.188109225E0
5.432633708E0,-8.334667969E0,-1.871258698E0,3.320694580E0,9.164895622E0
5.442712708E0,-8.221353607E0,-1.691632233E0,3.354823608E0,9.039198869E0
5.452790708E0,-8.127349091E0,-1.579066315E0,3.363206177E0,8.936353253E0
5.462869708E0,-8.238268433E0,-1.567989349E0,3.477119293E0,9.078436867E0
5.472948708E0,-8.235723724E0,-1.492246857E0,3.612587585E0,9.116179847E0
5.483026708E0,-8.252788239E0,-1.448986816E0,3.668421478E0,9.146878847E0
5.493105708E0,-8.289312286E0,-1.448537750E0,3.684887238E0,9.186367821E0
5.503183708E0,-8.260122986E0,-1.371148682E0,3.793411560E0,9.192369211E0
5.513262708E0,-8.240214386E0,-1.260079651E0,3.840713196E0,9.178235762E0
5.523341708E0,-8.285869446E0,-1.189127197E0,3.919599152E0,9.242992669E0
5.533419708E0,-8.425379333E0,-1.122815094E0,4.064946899E0,9.421864144E0
5.543498708E0,-8.613837433E0,-1.134640503E0,4.199816437E0,9.650080958E0
5.553577708E0,-8.849597168E0,-1.328038330E0,4.296215973E0,9.926556680E0
5.563655708E0,-9.035660248E0,-1.656006317E0,4.389771423E0,1.018113973E1
5.573734708E0,-9.198222198E0,-2.064806213E0,4.470154266E0,1.043326389E1
5.583812708E0,-9.418563995E0,-2.403102722E0,4.645140381E0,1.077318800E1
5.593891708E0,-9.821076965E0,-2.665656738E0,4.792434082E0,1.124840891E1
5.603970708E0,-1.021430923E1,-2.897225189E0,4.715045013E0,1.161712858E1
5.614048708E0,-1.058643539E1,-3.016676788E0,4.718787231E0,1.197664002E1
5.624127708E0,-1.090063202E1,-3.068618774E0,4.759951630E0,1.228402780E1
5.634205708E0,-1.132230515E1,-3.017125854E0,4.925058289E0,1.271038321E1
5.644284708E0,-1.170940018E1,-2.820285187E0,5.208868103E0,1.312236137E1
5.654363708E0,-1.212748077E1,-2.583926697E0,5.343887329E0,1.350220719E1
5.664441708E0,-1.246188538E1,-2.275268555E0,5.428311768E0,1.378194481E1
5.674520708E0,-1.280063095E1,-2.145937500E0,5.564378815E0,1.412173899E1
5.684598708E0,-1.296483948E1,-2.236499176E0,5.702242126E0,1.433891755E1
5.694677708E0,-1.301812866E1,-2.302511902E0,6.057902527E0,1.454205687E1
5.704756708E0,-1.304567139E1,-2.256258087E0,6.502627716E0,1.475006474E1
5.714834708E0,-1.295705566E1,-2.095043335E0,6.729705505E0,1.475003167E1
5.724913708E0,-1.291334656E1,-1.875300293E0,6.800059204E0,1.471434931E1
5.734991708E0,-1.296274384E1,-1.745071106E0,6.776707764E0,1.473097991E1
5.745070708E0,-1.295855255E1,-1.478924561E0,6.600673828E0,1.461780411E1
5.755149708E0,-1.299492691E1,-1.166075134E0,6.190526733E0,1.444127688E1
5.765227708E0,-1.295810349E1,-8.384065247E-1,5.610333252E0,1.414536004E1
5.775306708E0,-1.282802399E1,-5.815406799E-1,4.925357666E0,1.375338275E1
5.785384708E0,-1.285092636E1,-5.849835205E-1,4.161047058E0,1.352045956E1
5.795463708E0,-1.310539719E1,-9.211843872E-1,3.709286499E0,1.365133043E1
5.805542708E0,-1.361149475E1,-1.444196777E0,3.515289917E0,1.413208254E1
5.815620708E0,-1.415097290E1,-2.142943726E0,3.524121552E0,1.473979900E1
5.825699708E0,-1.470497086E1,-2.842439117E0,3.734883270E0,1.543583432E1
5.835777708E0,-1.510583725E1,-3.484154663E0,3.904779968E0,1.598664941E1
5.845856708E0,-1.524070679E1,-3.919599152E0,4.020189972E0,1.624205431E1
5.855935708E0,-1.517020340E1,-4.195774841E0,4.017345886E0,1.624434257E1
5.866013708E0,-1.487486755E1,-4.381538544E0,3.863914948E0,1.598090747E1
5.876092708E0,-1.432700684E1,-4.557273102E0,3.630699921E0,1.546653953E1
5.886170708E0,-1.361867981E1,-4.693190460E0,3.615731049E0,1.485153149E1
5.896249708E0,-1.287278091E1,-4.782404938E0,3.807482300E0,1.425050199E1
5.906328708E0,-1.209424988E1,-4.795577545E0,3.896547089E0,1.358129314E1
5.916406708E0,-1.132709518E1,-4.714595947E0,3.899241486E0,1.287379448E1
5.926485708E0,-1.068972061E1,-4.660857697E0,3.781586151E0,1.225945003E1
5.936563708E0,-9.959688721E0,-4.612807617E0,3.659290466E0,1.156995247E1
5.946642708E0,-9.314380646E0,-4.625680847E0,3.442541199E0,1.095471132E1
5.956721708E0,-8.728798370E0,-4.699926453E0,3.181783447E0,1.041177101E1
5.966799708E0,-8.227041779E0,-4.701573029E0,2.921325073E0,9.915802819E0
5.976878708E0,-7.717800751E0,-4.609664154E0,2.612816620E0,9.361637823E0
5.986956708E0,-7.269932098E0,-4.450395355E0,2.307751007E0,8.830834969E0
5.997035708E0,-6.836283875E0,-4.251908112E0,1.902843018E0,8.272503330E0
6.007114708E0,-6.436165924E0,-4.043391724E0,1.467548218E0,7.741249654E0
6.017192708E0,-6.159092102E0,-3.872147827E0,1.105600891E0,7.358688582E0
6.027271708E0,-5.956862640E0,-3.761527863E0,9.077124023E-1,7.103326417E0
6.037350708E0,-5.722001038E0,-3.624862061E0,8.523275757E-1,6.826960021E0
6.047428708E0,-5.473218384E0,-3.438798981E0,7.461982727E-1,6.506786439E0
6.057507708E0,-5.248834991E0,-3.301384735E0,6.273454285E-1,6.232413034E0
6.067585708E0,-5.006488953E0,-3.185076599E0,4.764591980E-1,5.952869723E0
6.077664333E0,-4.806355133E0,-3.143612823E0,4.131408691E-1,5.757954205E0
6.087743333E0,-4.604574738E0,-3.267704773E0,3.586541748E-1,5.657617503E0
6.097821333E0,-4.430187378E0,-3.417543182E0,3.718267822E-1,5.607532146E0
6.107900333E0,-4.288881226E0,-3.583547974E0,4.085005188E-1,5.603855005E0
6.117978333E0,-4.242777100E0,-3.851191406E0,4.126918030E-1,5.744836576E0
6.128057333E0,-4.264931030E0,-4.174968109E0,3.775149536E-1,5.980176665E0
6.138136333E0,-4.359534302E0,-4.472848663E0,2.348616028E-1,6.250365947E0
6.148214333E0,-4.486320648E0,-4.755311279E0,1.719923401E-1,6.539850127E0
6.158293333E0,-4.745282135E0,-4.938380585E0,3.016227722E-1,6.855383406E0
6.168371333E0,-5.009033661E0,-5.065466309E0,5.522016907E-1,7.145228747E0
6.178450333E0,-5.334906006E0,-5.098248138E0,8.232879639E-1,7.425035976E0
6.188529333E0,-5.764961700E0,-5.090164948E0,1.239871674E0,7.789855221E0
6.198607333E0,-6.350094910E0,-5.020859070E0,1.701362000E0,8.272083402E0
6.208686333E0,-6.853348389E0,-5.022954712E0,2.050585785E0,8.740901569E0
6.218764333E0,-7.209008789E0,-5.251529388E0,2.128723297E0,9.169505522E0
6.228843333E0,-7.463629303E0,-5.534890137E0,1.997745667E0,9.504302128E0
6.238922333E0,-7.764803009E0,-5.748196564E0,2.039957886E0,9.873973753E0
6.249000333E0,-8.292755127E0,-5.929319916E0,2.470312958E0,1.048947417E1
6.259079333E0,-9.067693634E0,-6.055357819E0,3.216062164E0,1.136809052E1
6.269157333E0,-9.790540466E0,-5.974675598E0,3.989503784E0,1.214362267E1
6.279236333E0,-1.014036301E1,-5.718558197E0,4.642146606E0,1.253309199E1
6.289315333E0,-1.030262558E1,-5.413492584E0,5.236859894E0,1.276223716E1
6.299393333E0,-1.075558365E1,-5.193599854E0,5.874982910E0,1.331057787E1
6.309472333E0,-1.117516113E1,-5.190606079E0,6.223607941E0,1.380434401E1
6.319550333E0,-1.142035126E1,-5.380411377E0,6.156547394E0,1.404550908E1
6.329629333E0,-1.193827423E1,-5.803132324E0,6.168672180E0,1.463732396E1
6.339708333E0,-1.224498642E1,-6.097719727E0,6.304589539E0,1.506219531E1
6.349786333E0,-1.238165222E1,-6.346801758E0,6.287824402E0,1.526839677E1
6.359865333E0,-1.247595612E1,-6.211932220E0,6.247558136E0,1.527316488E1
6.369943333E0,-1.245095810E1,-5.711522827E0,6.268215179E0,1.506447384E1
6.380022333E0,-1.241652969E1,-5.002746735E0,6.286477203E0,1.478910005E1
6.390101333E0,-1.234707413E1,-4.212539978E0,6.342460785E0,1.450594848E1
6.400179333E0,-1.207508972E1,-3.644620972E0,6.118376770E0,1.401875844E1
6.410258333E0,-1.160177399E1,-3.237767029E0,5.694458313E0,1.332333106E1
6.420336333E0,-1.107681564E1,-2.928959198E0,5.464835815E0,1.269405677E1
6.430415333E0,-1.061906754E1,-2.678080902E0,5.378914490E0,1.220120624E1
6.440494333E0,-9.910890198E0,-2.290237427E0,5.284610596E0,1.146289846E1
6.450572333E0,-9.362430725E0,-1.858684845E0,4.779411163E0,1.067485782E1
6.460651333E0,-9.222172394E0,-1.483714600E0,4.173620911E0,1.023078610E1
6.470729333E0,-9.092541962E0,-1.090033264E0,3.546275482E0,9.820313724E0
6.480808333E0,-8.889863434E0,-8.955876160E-1,2.950664062E0,9.409472220E0
6.490887333E0,-8.682843933E0,-8.376580811E-1,2.673739929E0,9.123723748E0
6.500965333E0,-8.544381866E0,-8.506809998E-1,2.553839264E0,8.958360041E0
6.511044333E0,-8.452622681E0,-9.777667236E-1,2.668800201E0,8.917698832E0
6.521122333E0,-8.322992249E0,-1.109792175E0,2.964585114E0,8.904639439E0
6.531201333E0,-8.284222870E0,-1.210981750E0,3.315754852E0,9.004946174E0
6.541280333E0,-8.117319946E0,-1.228195953E0,3.445984039E0,8.903603451E0
6.551358333E0,-7.845036163E0,-1.209335175E0,3.362906799E0,8.620685942E0
6.561437333E0,-7.633226624E0,-1.189576263E0,3.327879639E0,8.411659959E0
6.571515333E0,-7.446415100E0,-1.177601166E0,3.535348206E0,8.326735812E0
6.581594333E0,-7.315437469E0,-1.148711243E0,3.896098022E0,8.367481263E0
6.591673333E0,-7.370522919E0,-1.194965057E0,4.167483673E0,8.551050798E0
6.601751333E0,-7.776478729E0,-1.325643311E0,4.525688782E0,9.094658353E0
6.611830333E0,-8.278983765E0,-1.460812225E0,4.628524933E0,9.596811324E0
6.621908333E0,-8.869505768E0,-1.760938110E0,4.390220490E0,1.005201828E1
6.631987333E0,-9.471703491E0,-2.054028625E0,4.230802002E0,1.057505963E1
6.642066333E0,-1.010683273E1,-2.290387115E0,4.165238342E0,1.116884737E1
6.652144333E0,-1.073058563E1,-2.514620819E0,4.265080719E0,1.181777049E1
6.662223333E0,-1.136736145E1,-2.733166351E0,4.416116638E0,1.249756740E1
6.672301333E0,-1.187001617E1,-2.871029663E0,4.587809601E0,1.304561582E1
6.682380333E0,-1.226055405E1,-2.888543243E0,4.758454742E0,1.346505697E1
6.692459333E0,-1.261441818E1,-2.849923553E0,5.024451599E0,1.387410265E1
6.702537333E0,-1.281350418E1,-2.728226624E0,5.348377991E0,1.415041544E1
6.712616333E0,-1.264720001E1,-2.348616028E0,5.464686127E0,1.397606740E1
6.722694333E0,-1.235366043E1,-2.093097382E0,5.352120209E0,1.362494673E1
6.732773333E0,-1.199919754E1,-2.127675476E0,5.152435455E0,1.323084788E1
6.742852333E0,-1.165790726E1,-2.196532288E0,5.042713623E0,1.289032647E1
6.752930333E0,-1.134700378E1,-2.259850616E0,5.082530823E0,1.263699091E1
6.763009333E0,-1.129476242E1,-2.258054352E0,5.236560516E0,1.265274807E1
6.773087333E0,-1.140178986E1,-2.311044159E0,5.269042969E0,1.277123920E1
6.783166333E0,-1.165356628E1,-2.309247894E0,5.366789703E0,1.303612921E1
6.793245333E0,-1.195279404E1,-2.119891663E0,5.390590210E0,1.328238265E1
6.803323333E0,-1.208811264E1,-1.608704681E0,5.132526855E0,1.323076830E1
6.813402333E0,-1.208317291E1,-1.000519409E0,4.600084076E0,1.296784023E1
6.823480333E0,-1.216490295E1,-5.969586182E-1,4.113895111E0,1.285555742E1
6.833559333E0,-1.213197144E1,-3.124003601E-1,3.655997314E0,1.267472450E1
6.843638333E0,-1.236907837E1,-3.790118408E-1,3.343596954E0,1.281863449E1
6.853716333E0,-1.281305511E1,-8.505313110E-1,3.389701080E0,1.328110908E1
6.863795333E0,-1.334295319E1,-1.549128571E0,3.498075714E0,1.388058834E1
6.873873333E0,-1.395098877E1,-2.423610077E0,3.673810272E0,1.462876807E1
6.883952333E0,-1.456950256E1,-3.298690338E0,3.789968719E0,1.541154197E1
6.894031333E0,-1.497695526E1,-3.976780243E0,3.791465607E0,1.595303048E1
6.904109333E0,-1.515388733E1,-4.333039398E0,3.780089264E0,1.620816481E1
6.914188333E0,-1.504955429E1,-4.542453918E0,3.658242645E0,1.614018932E1
6.924266333E0,-1.481559082E1,-4.613106995E0,3.581901398E0,1.592521601E1
6.934345333E0,-1.441607162E1,-4.697681122E0,3.362008667E0,1.553043564E1
6.944424333E0,-1.374890900E1,-4.854554901E0,3.168012085E0,1.492097525E1
6.954502333E0,-1.288400757E1,-4.922064514E0,3.033890991E0,1.412192850E1
6.964581333E0,-1.204140976E1,-5.009033661E0,3.001408539E0,1.338261635E1
6.974659333E0,-1.131332382E1,-5.099295959E0,3.002007294E0,1.276738669E1
6.984738333E0,-1.071082672E1,-5.095553741E0,3.091970215E0,1.225751838E1
6.994817333E0,-1.012449600E1,-5.114564209E0,3.171305237E0,1.177800336E1
7.004895333E0,-9.541308746E0,-5.061724091E0,3.132086792E0,1.124578103E1
7.014974333E0,-9.048234100E0,-5.060676270E0,3.027454376E0,1.080029928E1
7.025052333E0,-8.554111633E0,-5.104385376E0,2.754571838E0,1.033514596E1
7.035131333E0,-8.077353058E0,-5.045258331E0,2.464774475E0,9.837346048E0
7.045210333E0,-7.721992035E0,-5.033732300E0,2.092199249E0,9.452244154E0
7.055288333E0,-7.461383972E0,-4.984335022E0,1.767674103E0,9.145519019E0
7.065367333E0,-7.245981903E0,-4.877756653E0,1.515448608E0,8.865288951E0
7.075445333E0,-6.997348938E0,-4.676275635E0,1.250200195E0,8.508433845E0
7.085523583E0,-6.825206909E0,-4.459676056E0,1.145268402E0,8.233091739E0
7.095602583E0,-6.536906433E0,-4.302802277E0,1.019829254E0,7.892103956E0
7.105680583E0,-6.310427399E0,-4.158801727E0,9.163943481E-1,7.612943213E0
7.115759583E0,-6.102210388E0,-4.044589233E0,8.363108826E-1,7.368520176E0
7.125837583E0,-5.913303223E0,-3.943399658E0,7.610174561E-1,7.148195817E0
7.135916583E0,-5.787115631E0,-3.863016815E0,7.908055115E-1,7.002783704E0
7.145995583E0,-5.596112823E0,-3.866459656E0,7.363188171E-1,6.841648515E0
7.156073583E0,-5.367538147E0,-3.968846741E0,6.279441833E-1,6.704962648E0
7.166152583E0,-5.229225769E0,-4.186643829E0,5.535488892E-1,6.721547818E0
7.176230583E0,-5.157824249E0,-4.585564270E0,4.263134766E-1,6.914643436E0
7.186309583E0,-5.071453857E0,-4.907993774E0,3.468287659E-1,7.065998678E0
7.196388583E0,-5.161865845E0,-5.237907715E0,5.544470215E-1,7.374818488E0
7.206466583E0,-5.345833282E0,-5.418132935E0,9.524693298E-1,7.670808028E0
7.216545583E0,-5.413492584E0,-5.418582001E0,1.141975250E0,7.744097128E0
7.226623583E0,-5.597460022E0,-5.326972504E0,1.363065491E0,7.846409515E0
7.236702583E0,-6.054908752E0,-5.139412537E0,1.654210052E0,8.112452904E0
7.246781583E0,-6.603966980E0,-4.939278717E0,1.802701263E0,8.441480081E0
7.256859583E0,-7.118596802E0,-4.944517822E0,1.664538574E0,8.825721817E0
7.266938583E0,-7.442822571E0,-5.132975922E0,1.303489380E0,9.134666617E0
7.277016583E0,-7.473658447E0,-5.436394958E0,9.553134155E-1,9.290994804E0
7.287095583E0,-7.552245026E0,-5.620961151E0,1.170116730E0,9.486874214E0
7.297174583E0,-7.944878540E0,-5.650898895E0,1.985321503E0,9.949635913E0
7.307252583E0,-8.355624390E0,-5.650449829E0,2.806962891E0,1.047010424E1
7.317331583E0,-8.548273773E0,-5.469027100E0,3.405268707E0,1.070416260E1
7.327409583E0,-8.743318176E0,-5.154531097E0,3.874243469E0,1.086391118E1
7.337488583E0,-9.065747681E0,-4.869972839E0,4.341272278E0,1.116920147E1
7.347567583E0,-9.638756104E0,-4.756059723E0,4.783303070E0,1.176459568E1
7.357645583E0,-1.020951920E1,-4.920867004E0,4.849465485E0,1.232747053E1
7.367724583E0,-1.050500473E1,-5.255570984E0,4.674179993E0,1.264215604E1
7.377802583E0,-1.067550018E1,-5.766009521E0,4.482428741E0,1.293465645E1
7.387881583E0,-1.077085190E1,-6.275250549E0,4.496200104E0,1.325163520E1
7.397960583E0,-1.084479813E1,-6.634503479E0,4.888085175E0,1.362056018E1
7.408038583E0,-1.088371719E1,-6.619684296E0,5.438939667E0,1.385126654E1
7.418117583E0,-1.084464844E1,-6.322103119E0,6.076014862E0,1.394608706E1
7.428195583E0,-1.070079758E1,-5.756728821E0,6.467899933E0,1.376519978E1
7.438274583E0,-1.067011139E1,-5.212310944E0,6.354585571E0,1.346848990E1
7.448353583E0,-1.055949142E1,-4.616400146E0,6.006559296E0,1.299587489E1
7.458431583E0,-1.030741562E1,-4.029021606E0,5.498066711E0,1.235736903E1
7.468510583E0,-9.878557434E0,-3.700604553E0,4.898713074E0,1.163089682E1
7.478588583E0,-9.387279053E0,-3.365451508E0,4.564607849E0,1.096735687E1
7.488667583E0,-8.947493591E0,-3.145259399E0,4.548591156E0,1.051855407E1
7.498746583E0,-8.595126343E0,-2.968477020E0,4.756508789E0,1.026218439E1
7.508824583E0,-8.574918365E0,-2.730172577E0,4.878205719E0,1.023620820E1
7.518903583E0,-8.830886078E0,-2.490371246E0,4.708608398E0,1.031297682E1
7.528981583E0,-8.732989655E0,-2.368824005E0,4.365072784E0,1.004640711E1
7.539060583E0,-8.686137085E0,-2.182461548E0,4.021237793E0,9.817457372E0
7.549139583E0,-8.472830658E0,-2.154918823E0,3.770509186E0,9.520991231E0
7.559217583E0,-8.335865479E0,-2.103276215E0,3.794459381E0,9.397252051E0
7.569296583E0,-8.227191467E0,-2.092348938E0,3.837719421E0,9.316259650E0
7.579374583E0,-8.229137421E0,-2.138752441E0,3.968098297E0,9.382897676E0
7.589453583E0,-8.193960571E0,-2.059716797E0,4.191284180E0,9.431345938E0
7.599532583E0,-8.135432281E0,-1.902244263E0,4.377496948E0,9.432193338E0
7.609610583E0,-8.010442200E0,-1.746418304E0,4.438120880E0,9.322772017E0
7.619689583E0,-7.811954956E0,-1.616638184E0,4.499044189E0,9.158687563E0
7.629767583E0,-7.744595032E0,-1.532962189E0,4.637206879E0,9.156004200E0
7.639846583E0,-7.882009277E0,-1.458716583E0,4.945715332E0,9.418812264E0
7.649925583E0,-8.232729950E0,-1.555565186E0,5.260660400E0,9.893036608E0
7.660003583E0,-8.688232727E0,-1.827699280E0,5.592969360E0,1.049319679E1
7.670082583E0,-9.220076752E0,-2.155068512E0,5.752387848E0,1.107899371E1
7.680160583E0,-9.799970856E0,-2.445314941E0,5.660029907E0,1.157820938E1
7.690239583E0,-1.049108368E1,-2.796484680E0,5.477858734E0,1.216100734E1
7.700318583E0,-1.104777603E1,-3.017874298E0,5.425617371E0,1.267273626E1
7.710396583E0,-1.161315033E1,-3.111878815E0,5.674998779E0,1.329491111E1
7.720475583E0,-1.216654953E1,-3.099005585E0,6.065237274E0,1.394330901E1
7.730553583E0,-1.262369888E1,-2.958447876E0,6.540199585E0,1.452185931E1
7.740632583E0,-1.284194504E1,-2.581531677E0,6.744674377E0,1.473331228E1
7.750710583E0,-1.300405792E1,-2.002236328E0,6.913972321E0,1.486329324E1
7.760789583E0,-1.300540512E1,-1.548230438E0,6.820716248E0,1.476684631E1
7.770868583E0,-1.291693909E1,-1.400188293E0,6.426735535E0,1.449519825E1
7.780946583E0,-1.273357040E1,-1.500479736E0,6.242618408E0,1.426062899E1
7.791025583E0,-1.266157013E1,-1.600022736E0,6.413862305E0,1.428331406E1
7.801103583E0,-1.252685028E1,-1.446891174E0,6.565946045E0,1.421714175E1
7.811182583E0,-1.233270401E1,-1.131796417E0,6.193819885E0,1.384701976E1
7.821261583E0,-1.228121109E1,-9.202862549E-1,5.363646240E0,1.343293615E1
7.831339583E0,-1.258313324E1,-9.966275024E-1,4.601580963E0,1.343514257E1
7.841418583E0,-1.272653503E1,-1.141226807E0,4.122427368E0,1.342614986E1
7.851496583E0,-1.277308823E1,-1.262474670E0,3.890559540E0,1.341201248E1
7.861575583E0,-1.286858963E1,-1.215173035E0,3.873345337E0,1.349370404E1
7.871654583E0,-1.307725571E1,-1.167871399E0,3.773802338E0,1.366089765E1
7.881732583E0,-1.320224579E1,-1.074765015E0,3.481011200E0,1.369568737E1
7.891811583E0,-1.333861221E1,-9.345066833E-1,3.125500488E0,1.373173812E1
7.901889583E0,-1.360805191E1,-9.626481628E-1,2.794838104E0,1.392540442E1
7.911968583E0,-1.423300232E1,-1.302890625E0,2.549198914E0,1.451806785E1
7.922047583E0,-1.509266464E1,-1.806593170E0,2.698438568E0,1.543806580E1
7.932125583E0,-1.598136658E1,-2.483934631E0,3.004552002E0,1.644996479E1
7.942204583E0,-1.672307419E1,-3.211122437E0,3.194656677E0,1.732565580E1
7.952282583E0,-1.718890549E1,-3.771557007E0,3.192561035E0,1.788506528E1
7.962361583E0,-1.725027786E1,-4.143084412E0,2.769690399E0,1.795573501E1
7.972440583E0,-1.708172836E1,-4.274810486E0,2.351011047E0,1.776476010E1
7.982518583E0,-1.670121964E1,-4.345912628E0,2.145787811E0,1.739028750E1
7.992597583E0,-1.596579895E1,-4.595593414E0,2.109114075E0,1.674737523E1
8.002675583E0,-1.515388733E1,-4.888683929E0,2.246079254E0,1.608055981E1
8.012754583E0,-1.432446213E1,-5.155279541E0,2.518512726E0,1.543081426E1
8.022833583E0,-1.337513626E1,-5.468578033E0,2.559228058E0,1.467478327E1
8.032911583E0,-1.235321136E1,-5.678890686E0,2.571352844E0,1.383703313E1
8.042990583E0,-1.140628052E1,-5.899980927E0,2.551893311E0,1.309294351E1
8.053068583E0,-1.055664734E1,-5.986950073E0,2.627486115E0,1.241732892E1
8.063147583E0,-9.743089142E0,-5.955665131E0,2.770738220E0,1.175052014E1
8.073226583E0,-8.916657715E0,-5.926775208E0,2.726879425E0,1.104849857E1
8.083305500E0,-8.177943878E0,-5.729036407E0,2.606080627E0,1.031950970E1
8.093384500E0,-7.435038757E0,-5.463189240E0,2.418221283E0,9.538030833E0
8.103462500E0,-6.794520721E0,-5.103038177E0,2.054627380E0,8.742311144E0
8.113541500E0,-6.405779114E0,-4.882846069E0,1.632654877E0,8.218379021E0
8.123620500E0,-6.111790466E0,-4.618645477E0,1.298699341E0,7.769973535E0
8.133698500E0,-5.724096680E0,-4.355792084E0,9.801617432E-1,7.259402490E0
8.143777500E0,-5.424120483E0,-4.195625153E0,7.337741089E-1,6.896577258E0
8.153855500E0,-5.236710205E0,-4.012855225E0,5.644761658E-1,6.621538656E0
8.163934500E0,-5.089715881E0,-3.890858917E0,5.231620789E-1,6.427883744E0
8.174013500E0,-4.802762604E0,-3.863615570E0,4.061054993E-1,6.177295167E0
8.184091500E0,-4.440216522E0,-3.835324402E0,3.409909058E-1,5.877202636E0
8.194170500E0,-4.251009979E0,-3.783232727E0,4.086502075E-1,5.705342295E0
8.204248500E0,-4.071682892E0,-3.768712921E0,3.379971313E-1,5.558420703E0
8.214327500E0,-3.825744324E0,-3.879632263E0,1.657054138E-1,5.451176425E0
8.224406500E0,-3.704795837E0,-3.935166779E0,5.239105225E-2,5.404978686E0
8.234484500E0,-3.648662567E0,-4.022584991E0,-1.178050232E-1,5.432108851E0
8.244563500E0,-3.603905640E0,-4.114793243E0,-2.037263489E-1,5.473679176E0
8.254641500E0,-3.692371674E0,-4.205354919E0,-1.166075134E-1,5.597518726E0
8.264720500E0,-3.824097748E0,-4.332290955E0,1.649569702E-1,5.780975636E0
8.274798500E0,-4.114044800E0,-4.442910919E0,4.902305603E-1,6.074960745E0
8.284877500E0,-4.387825470E0,-4.619693298E0,9.563612366E-1,6.442763797E0
8.294956500E0,-4.762945404E0,-4.580774231E0,1.535057831E0,6.784212852E0
8.305034500E0,-5.333259430E0,-4.538412323E0,1.918560333E0,7.260972133E0
8.315113500E0,-6.049370270E0,-4.587809601E0,2.127076721E0,7.884626369E0
8.325191500E0,-6.697672119E0,-4.774920502E0,2.162552948E0,8.505016923E0
8.335270500E0,-7.471862183E0,-5.004542999E0,2.132315826E0,9.242345259E0
8.345349500E0,-8.164322205E0,-5.238955536E0,2.041454773E0,9.913140257E0
8.355427500E0,-8.695866852E0,-5.547164612E0,2.241289215E0,1.055521259E1
8.365506500E0,-9.195527802E0,-5.832471313E0,2.955154724E0,1.128310208E1
8.375584500E0,-9.692344666E0,-6.031407623E0,3.884422302E0,1.205853058E1
8.385663500E0,-1.001073257E1,-5.999374237E0,4.877157898E0,1.264887058E1
8.395742500E0,-1.008512787E1,-5.714366913E0,5.826034698E0,1.297329849E1
8.405820500E0,-1.004635849E1,-5.398224335E0,6.679110718E0,1.321668131E1
8.415899500E0,-1.006012985E1,-5.219645691E0,7.256460114E0,1.345760481E1
8.425977500E0,-1.035292099E1,-5.276976471E0,7.654482422E0,1.391476032E1
8.436056500E0,-1.058209442E1,-5.565576324E0,7.808512115E0,1.428037897E1
8.446135500E0,-1.061981598E1,-5.930667114E0,7.603588257E0,1.434461077E1
8.456213500E0,-1.077878540E1,-6.377038879E0,7.296876068E0,1.449459347E1
8.466292500E0,-1.104283630E1,-6.707252197E0,7.093748474E0,1.473949569E1
8.476370500E0,-1.121782242E1,-6.847061462E0,6.986271973E0,1.488387673E1
8.486449500E0,-1.134835098E1,-6.671326904E0,6.957831116E0,1.488969733E1
8.496528500E0,-1.152812714E1,-6.279591522E0,6.975943451E0,1.486589291E1
8.506606500E0,-1.155911270E1,-5.590574341E0,6.748416595E0,1.450547257E1
8.516685500E0,-1.145313309E1,-4.877307587E0,6.087391205E0,1.385708189E1
8.526763500E0,-1.133233429E1,-4.419110413E0,5.396877136E0,1.330701394E1
8.536842500E0,-1.121063736E1,-4.059857483E0,4.910538483E0,1.289473617E1
8.546921500E0,-1.102996307E1,-3.679498444E0,4.600982208E0,1.250471237E1
8.556999500E0,-1.052970337E1,-3.331023102E0,4.375850372E0,1.187932803E1
8.567078500E0,-1.002016296E1,-3.089874573E0,4.417314148E0,1.137820966E1
8.577156500E0,-9.562115479E0,-2.852767639E0,4.619094543E0,1.099583421E1
8.587235500E0,-9.259893951E0,-2.534379730E0,4.658013611E0,1.067079226E1
8.597314500E0,-9.274264069E0,-2.278112640E0,4.437522125E0,1.053059228E1
8.607392500E0,-9.528884583E0,-2.064357147E0,4.492906952E0,1.073533533E1
8.617471500E0,-9.661359100E0,-1.729353790E0,4.695585480E0,1.088030547E1
8.627549500E0,-9.620344391E0,-1.450633392E0,4.748126221E0,1.082589793E1
8.637628500E0,-9.690997467E0,-1.334474945E0,4.767286377E0,1.088224585E1
8.647706500E0,-9.656119995E0,-1.220561829E0,4.775968323E0,1.084160034E1
8.657785500E0,-9.543105011E0,-1.122515717E0,4.788991241E0,1.073616933E1
8.667864500E0,-9.494605865E0,-1.007554779E0,4.686155090E0,1.063591824E1
8.677942500E0,-9.454339600E0,-8.189469910E-1,4.565655670E0,1.053092698E1
8.688021500E0,-9.353000336E0,-6.176156616E-1,4.385879517E0,1.034871990E1
8.698099500E0,-9.377249908E0,-5.743556213E-1,4.328848114E0,1.034415904E1
8.708178500E0,-9.347162476E0,-5.974076843E-1,4.297413483E0,1.030505240E1
8.718257500E0,-9.330996094E0,-7.264393616E-1,4.316873016E0,1.030682273E1
8.728335500E0,-9.363179169E0,-1.060544586E0,4.454436951E0,1.042285410E1
8.738414500E0,-9.393715668E0,-1.431473236E0,4.615052948E0,1.056360371E1
8.748492500E0,-9.578730927E0,-1.783092041E0,4.759352875E0,1.084356690E1
8.758571500E0,-9.855205994E0,-2.146087189E0,4.864434357E0,1.119792378E1
8.768650500E0,-1.026625122E1,-2.433938599E0,4.958887939E0,1.165806763E1
8.778728500E0,-1.091140961E1,-2.671644287E0,4.997208252E0,1.229506540E1
8.788807500E0,-1.147708328E1,-2.851570129E0,5.037923584E0,1.285439874E1
8.798885500E0,-1.208437042E1,-2.963237915E0,5.259313202E0,1.350826276E1
8.808964500E0,-1.246862137E1,-2.866089935E0,5.489534454E0,1.392178074E1
8.819043500E0,-1.243898300E1,-2.657573547E0,5.458848267E0,1.384160466E1
8.829121500E0,-1.250888763E1,-2.451901245E0,5.489833832E0,1.387884596E1
8.839200500E0,-1.241039246E1,-2.403252411E0,5.640121307E0,1.384212525E1
8.849278500E0,-1.230561035E1,-2.452500000E0,5.795797577E0,1.382150759E1
8.859357500E0,-1.242536133E1,-2.636617126E0,6.060297546E0,1.407368325E1
8.869436500E0,-1.257355316E1,-2.665507050E0,6.194119263E0,1.426766555E1
8.879514500E0,-1.232671646E1,-2.431244202E0,5.953419800E0,1.390331235E1
8.889593500E0,-1.196222443E1,-1.955982513E0,5.462889862E0,1.329525654E1
8.899671500E0,-1.160671371E1,-1.496887207E0,4.828059998E0,1.265964604E1
8.909750500E0,-1.141750717E1,-1.158590698E0,4.287534027E0,1.225090815E1
8.919828500E0,-1.127200974E1,-1.079704742E0,3.966601410E0,1.199824539E1
8.929907500E0,-1.125135269E1,-1.154399414E0,3.525768127E0,1.184721977E1
8.939986500E0,-1.148995651E1,-1.596130829E0,3.610491943E0,1.214917225E1
8.950064500E0,-1.201536392E1,-2.090402985E0,3.970643005E0,1.282594093E1
8.960143500E0,-1.239512421E1,-2.511477356E0,4.103865967E0,1.329617759E1
8.970221500E0,-1.278326706E1,-3.192860413E0,4.364024963E0,1.387987710E1
8.980300500E0,-1.339205109E1,-3.996688843E0,4.217629395E0,1.459825167E1
8.990379500E0,-1.361478790E1,-4.338278503E0,4.097279663E0,1.486508697E1
9.000457500E0,-1.352213058E1,-4.568499756E0,4.033362579E0,1.483196613E1
9.010536500E0,-1.332858307E1,-4.644691315E0,3.926784210E0,1.465073098E1
9.020614500E0,-1.302501434E1,-4.661456451E0,3.702849884E0,1.432100807E1
9.030693500E0,-1.259825180E1,-4.710105286E0,3.478167114E0,1.389239672E1
9.040772500E0,-1.228001358E1,-4.814288635E0,3.327430573E0,1.360323134E1
9.050850500E0,-1.195399155E1,-4.901257782E0,3.171305237E0,1.330328601E1
9.060929500E0,-1.139310791E1,-4.822072449E0,2.984643402E0,1.272648368E1
9.071007500E0,-1.088895630E1,-4.868475952E0,2.859204254E0,1.226566249E1
9.081086083E0,-1.043629761E1,-4.834197235E0,2.878065033E0,1.185618105E1
9.091165083E0,-9.945617981E0,-4.792733459E0,2.879412231E0,1.140949718E1
9.101243083E0,-9.524094543E0,-4.832400970E0,2.846331024E0,1.105269543E1
9.111322083E0,-8.988358612E0,-4.796026611E0,2.834206238E0,1.057474287E1
9.121400083E0,-8.644673309E0,-4.762346649E0,2.726130981E0,1.023924374E1
9.131479083E0,-8.449030151E0,-4.738246765E0,2.553988953E0,1.001798146E1
9.141558083E0,-8.234975281E0,-4.669839020E0,2.352507935E0,9.754819728E0
9.151636083E0,-7.878267059E0,-4.611759796E0,1.971400452E0,9.339263355E0
9.161715083E0,-7.470065918E0,-4.550237732E0,1.620530090E0,8.895654333E0
9.171793083E0,-7.106921082E0,-4.500990143E0,1.381327515E0,8.524981245E0
9.181872083E0,-6.831643524E0,-4.482129364E0,1.260229340E0,8.267346301E0
9.191950083E0,-6.638245697E0,-4.502037964E0,1.253044281E0,8.118175394E0
9.202029083E0,-6.512956238E0,-4.492757263E0,1.314865723E0,8.020744270E0
9.212108083E0,-6.477779388E0,-4.480482788E0,1.403631134E0,8.000408251E0
9.222186083E0,-6.327940979E0,-4.444707184E0,1.499581604E0,7.876992064E0
9.232265083E0,-6.089187469E0,-4.366270294E0,1.426533508E0,7.627418841E0
9.242343083E0,-5.854774933E0,-4.334835663E0,1.311871948E0,7.402040107E0
9.252422083E0,-5.578150177E0,-4.275858307E0,1.216370544E0,7.132901300E0
9.262501083E0,-5.205724640E0,-4.287983093E0,1.221459961E0,6.854074151E0
9.272579083E0,-4.977000275E0,-4.214336243E0,1.367256775E0,6.663373979E0
9.282658083E0,-5.053191833E0,-4.222718811E0,1.472038879E0,6.747814485E0
9.292736083E0,-5.116061096E0,-4.112847290E0,1.435365143E0,6.719365079E0
9.302815083E0,-5.172942810E0,-4.235741730E0,1.403032379E0,6.831496554E0
9.312894083E0,-5.041965179E0,-4.402195587E0,1.382824402E0,6.834686693E0
9.322972083E0,-5.085973663E0,-4.703518982E0,1.268911285E0,7.042751931E0
9.333051083E0,-4.975054321E0,-5.009033661E0,1.313668213E0,7.181038079E0
9.343129083E0,-5.015170898E0,-5.262756042E0,1.465302887E0,7.415905397E0
9.353208083E0,-5.116659851E0,-5.245691528E0,1.754800873E0,7.535039067E0
9.363287083E0,-5.269941101E0,-5.286406860E0,2.041903839E0,7.738717464E0
9.373365083E0,-5.403313751E0,-5.150788879E0,2.290686493E0,7.808563900E0
9.383444083E0,-6.090085602E0,-4.945266266E0,2.457739105E0,8.221026857E0
9.393522083E0,-7.492668915E0,-5.175936584E0,2.761008453E0,9.515964201E0
9.403601083E0,-8.473728790E0,-5.303171997E0,2.965782623E0,1.042705996E1
9.413679083E0,-9.043743439E0,-5.288652191E0,2.661914520E0,1.080948317E1
9.423758083E0,-9.412426758E0,-5.273234253E0,2.432890778E0,1.105982525E1
9.433837083E0,-9.879754944E0,-5.408702545E0,2.658771057E0,1.157292895E1
9.443915083E0,-1.047147446E1,-5.595065002E0,3.213966522E0,1.229984189E1
9.453994083E0,-1.095841187E1,-5.727838898E0,3.998634796E0,1.299553805E1
9.464072083E0,-1.096859070E1,-5.653144226E0,5.019212494E0,1.332143069E1
9.474151083E0,-1.042282562E1,-5.195695496E0,5.951473846E0,1.307863091E1
9.484230083E0,-9.752369843E0,-4.580175476E0,6.569837952E0,1.261940948E1
9.494308083E0,-9.744286652E0,-4.414919128E0,6.841223602E0,1.269822718E1
9.504387083E0,-9.849218445E0,-4.289330292E0,7.144043884E0,1.290127208E1
9.514465083E0,-9.946216736E0,-4.145180054E0,7.180567932E0,1.294875673E1
9.524544083E0,-1.032627640E1,-4.347708893E0,6.749913483E0,1.308036272E1
9.534623083E0,-1.055679703E1,-4.619244232E0,6.191424866E0,1.308117436E1
9.544701083E0,-1.029409332E1,-4.621190186E0,5.712720337E0,1.264748709E1
9.554780083E0,-1.043345352E1,-4.765490112E0,5.472320251E0,1.270878190E1
9.564858083E0,-1.051548294E1,-4.794080658E0,5.445226593E0,1.277533105E1
9.574937083E0,-1.022448807E1,-4.450994110E0,5.630391541E0,1.249211006E1
9.585016083E0,-9.870773621E0,-4.005969543E0,5.846092987E0,1.215141009E1
9.595094083E0,-9.429491272E0,-3.833378448E0,6.030210114E0,1.183104095E1
9.605173083E0,-8.968749390E0,-3.633394318E0,6.150110779E0,1.146577003E1
9.615251083E0,-8.661139069E0,-3.527714081E0,6.284231873E0,1.126728303E1
9.625330083E0,-8.152646484E0,-3.699107666E0,6.277495880E0,1.093416649E1
9.635408083E0,-7.394024048E0,-3.493285675E0,6.526428223E0,1.046273873E1
9.645487083E0,-7.026837616E0,-3.424877930E0,6.587201843E0,1.022240010E1
9.655566083E0,-6.733148346E0,-3.205134888E0,6.384673004E0,9.816935656E0
9.665644083E0,-6.552174683E0,-2.897225189E0,6.217021637E0,9.485581949E0
9.675723083E0,-6.652615814E0,-2.659519501E0,5.947731628E0,9.311597751E0
9.685801083E0,-6.754104767E0,-2.352208557E0,5.568121033E0,9.063927853E0
9.695880083E0,-6.846762085E0,-2.031425629E0,5.292544098E0,8.889086801E0
9.705959083E0,-6.907835083E0,-1.769919434E0,5.099295959E0,8.766619623E0
9.716037083E0,-7.060816956E0,-1.552122345E0,4.978197784E0,8.777623427E0
9.726116083E0,-7.283104706E0,-1.426832886E0,4.894521790E0,8.890208647E0
9.736194083E0,-7.372019806E0,-1.380279694E0,5.053940277E0,9.044012405E0
9.746273083E0,-7.493866425E0,-1.170565796E0,5.392236786E0,9.306152579E0
9.756352083E0,-7.711364136E0,-7.776329041E-1,5.573958893E0,9.546667875E0
9.766430083E0,-7.925568695E0,-4.459226990E-1,5.326673126E0,9.559651290E0
9.776509083E0,-7.986342316E0,-2.468367004E-1,4.886737976E0,9.366045056E0
9.786587083E0,-8.176147614E0,-2.833607483E-1,4.655319214E0,9.412846546E0
9.796666083E0,-8.359965363E0,-4.029620361E-1,4.842130737E0,9.669417218E0
9.806745083E0,-8.713829498E0,-6.794371033E-1,5.323978729E0,1.023411984E1
9.816823083E0,-9.100475464E0,-1.015488281E0,5.737718353E0,1.080607616E1
9.826902083E0,-9.606722717E0,-1.364712067E0,6.061644745E0,1.144093953E1
9.836980083E0,-1.022344025E1,-1.527872772E0,6.359525299E0,1.213658468E1
9.847059083E0,-1.069406158E1,-1.537153473E0,6.560557251E0,1.263988550E1
9.857137083E0,-1.099703156E1,-1.556014252E0,6.721472626E0,1.298206754E1
9.867216083E0,-1.130703690E1,-1.386267242E0,7.052284698E0,1.339796775E1
9.877295083E0,-1.151061356E1,-1.315614166E0,7.125632172E0,1.360145944E1
9.887373083E0,-1.156599838E1,-1.288221130E0,6.995702362E0,1.357835350E1
9.897452083E0,-1.163515457E1,-1.374292145E0,6.814429321E0,1.355366916E1
9.907530083E0,-1.165775757E1,-1.613494720E0,6.856342163E0,1.362042968E1
9.917609083E0,-1.148591492E1,-1.974843292E0,7.138954468E0,1.366714741E1
9.927688083E0,-1.095496902E1,-2.321073303E0,7.413184204E0,1.342959522E1
9.937766083E0,-1.030112869E1,-2.498005371E0,7.613168335E0,1.305042587E1
9.947845083E0,-9.529034271E0,-2.399809570E0,7.502698059E0,1.236333524E1
9.957923083E0,-9.025032349E0,-2.340383148E0,7.187303925E0,1.177225297E1
9.968002083E0,-8.894204407E0,-2.451452179E0,6.799759827E0,1.146094340E1
9.978081083E0,-8.718469849E0,-2.675835571E0,6.523434448E0,1.121280560E1
9.988159083E0,-8.654253387E0,-2.938389587E0,6.588399353E0,1.126664285E1
9.998238083E0,-8.614885254E0,-3.000061340E0,7.023245087E0,1.151271417E1