"Time (s)","Acceleration x (m/s^2)","Acceleration y (m/s^2)","Acceleration z (m/s^2)","Absolute acceleration (m/s^2)"
-4.242915893E-4,3.166664886E0,-9.201365662E0,-8.207432556E-1,9.765578121E0
9.653708432E-3,3.179837494E0,-9.063502350E0,-5.882766724E-2,9.605305931E0
1.973270834E-2,3.343147888E0,-8.998836823E0,4.990621948E-1,9.612739726E0
2.981070837E-2,3.630849609E0,-8.943152618E0,8.083190918E-1,9.685888054E0
3.988870839E-2,3.876488800E0,-8.798104248E0,8.128097534E-1,9.648547221E0
4.996770842E-2,3.998485107E0,-8.568182373E0,4.547543335E-1,9.466173136E0
6.004570844E-2,3.941004639E0,-8.307274933E0,-4.583468628E-1,9.206107550E0
7.012370834E-2,3.907923431E0,-8.143665161E0,-2.189796295E0,9.294426051E0
8.020170836E-2,3.877835999E0,-8.097111969E0,-4.552033997E0,1.006587541E1
9.028070839E-2,3.936214600E0,-7.932604065E0,-5.539530487E0,1.044540045E1
1.003587084E-1,4.014651489E0,-7.707921295E0,-6.911876678E0,1.110421166E1
1.104367084E-1,4.068090363E0,-7.459438019E0,-6.922055511E0,1.095935341E1
1.205157083E-1,4.103117523E0,-6.978338470E0,-3.306474152E0,8.744458390E0
1.305937084E-1,4.203708344E0,-6.438411255E0,4.011657715E-2,7.689337596E0
1.406717084E-1,3.990850983E0,-5.781128082E0,1.373394012E0,7.157830997E0
1.507507084E-1,2.675536194E0,-4.751119995E0,2.720143433E0,6.093506004E0
1.608287084E-1,8.217910767E-1,-4.146527252E0,3.059637451E0,5.218276551E0
1.709067083E-1,-5.798941040E-1,-4.653972015E0,1.538949738E0,4.936000303E0
1.809849584E-1,-7.309300232E-1,-5.866300964E0,-1.206491089E0,6.033520237E0
1.910629583E-1,1.092727661E-2,-7.713160400E0,-7.733667755E0,1.092257203E1
2.011409584E-1,2.717299347E0,-8.971743164E0,-1.162722107E1,1.493546655E1
2.112189584E-1,6.047873383E0,-8.499026184E0,-7.716752930E0,1.297530325E1
2.212979584E-1,6.890920258E0,-8.110134888E0,-2.050735474E0,1.083810804E1
2.313759584E-1,7.102879486E0,-8.390352173E0,1.292711792E0,1.106887575E1
2.414539583E-1,6.738537140E0,-9.793085175E0,3.194357300E-1,1.189178032E1
2.515329584E-1,4.137695618E0,-1.134281250E1,-3.140918427E0,1.247578811E1
2.616109584E-1,1.626817017E0,-1.211849945E1,-5.160219269E0,1.327148919E1
2.716889584E-1,1.181942139E0,-1.246263382E1,-4.814288635E0,1.341236758E1
2.817679584E-1,1.321751404E0,-1.284478912E1,-3.369792480E0,1.334507908E1
2.918459583E-1,1.873204651E0,-1.350955673E1,-2.746338959E0,1.391256254E1
3.019239584E-1,3.200494537E0,-1.437550598E1,-3.539240112E0,1.514676725E1
3.120029584E-1,5.106630707E0,-1.559876221E1,-4.156556396E0,1.693150970E1
3.220809584E-1,7.016359406E0,-1.695643890E1,-3.400478668E0,1.866315554E1
3.321589584E-1,8.390202484E0,-1.796414337E1,-1.411414948E0,1.987707315E1
3.422369583E-1,8.828790436E0,-1.865226242E1,1.075214081E0,2.066423285E1
3.523159584E-1,8.940607910E0,-1.935280563E1,2.915038147E0,2.151657508E1
3.623939584E-1,9.155111847E0,-2.094893646E1,3.810625763E0,2.317746493E1
3.724719584E-1,9.612560577E0,-2.322630066E1,4.097878418E0,2.546870571E1
3.825509584E-1,1.011461655E1,-2.538436295E1,3.906426544E0,2.760310704E1
3.926289583E-1,1.069765411E1,-2.714634888E1,3.032693481E0,2.933532496E1
4.027069584E-1,1.081216599E1,-2.796858902E1,6.140231323E-1,2.999203110E1
4.127859584E-1,9.100325775E0,-2.568793167E1,-4.168830872E0,2.756927481E1
4.228639584E-1,7.778574371E0,-1.927062653E1,-9.870174866E0,2.300616478E1
4.329419584E-1,8.351283417E0,-1.246981888E1,-1.285047729E1,1.975791194E1
4.430209583E-1,8.842262421E0,-7.703580322E0,-1.119013000E1,1.620955780E1
4.530989584E-1,8.938512268E0,-4.276906128E0,-8.735234985E0,1.320958962E1
4.631769584E-1,1.031939072E1,-1.423240356E0,-8.865613861E0,1.367898194E1
4.732559584E-1,1.226893661E1,7.406597900E-1,-1.078357544E1,1.635117371E1
4.833339584E-1,1.222133560E1,2.367925873E0,-1.117486176E1,1.672858787E1
4.934119583E-1,9.255253601E0,3.101550293E0,-6.845265198E0,1.192212184E1
5.034899584E-1,5.130580902E0,2.887495422E0,-6.448590088E-1,5.922527615E0
5.135689584E-1,1.634002075E0,2.290237427E0,2.444267120E0,3.726874295E0
5.236469584E-1,1.930984497E-2,1.231638794E0,3.774999847E0,3.970885397E0
5.337249584E-1,8.607101440E-2,-4.673281860E-1,4.770729218E0,4.794336359E0
5.438039583E-1,5.798941040E-1,-1.627565460E0,4.553530884E0,4.870306973E0
5.538819584E-1,7.403604126E-1,-1.568588104E0,2.975662079E0,3.444294846E0
5.639599584E-1,7.613168335E-1,-9.092092896E-1,1.739682312E0,2.105411931E0
5.740389584E-1,5.520520020E-1,-3.845503235E-1,1.131646729E0,1.316535105E0
5.841169584E-1,3.291654968E-1,7.664062500E-2,7.164102173E-1,7.921283413E-1
5.941949583E-1,1.682501221E-1,5.525010681E-1,3.089575195E-1,6.549963990E-1
6.042739584E-1,-4.191284180E-2,7.997868347E-1,1.541793823E-1,8.155899394E-1
6.143519584E-1,-2.049238586E-1,1.066681824E0,3.106040955E-1,1.129725102E0
6.244299584E-1,-1.492396545E-1,1.616189117E0,7.114704895E-1,1.772154055E0
6.345089584E-1,-1.898052979E-1,1.867366791E0,1.261426849E0,2.261477941E0
6.445869583E-1,-2.948867798E-1,1.841919708E0,1.646875305E0,2.488337737E0
6.546649584E-1,-4.529580688E-1,1.742676086E0,1.778302002E0,2.530701279E0
6.647429584E-1,-6.089337158E-1,1.615290985E0,1.896406403E0,2.564434144E0
6.748219584E-1,-6.953041077E-1,1.558708649E0,1.957030334E0,2.596726436E0
6.848999584E-1,-8.442443848E-1,1.480720825E0,1.833537140E0,2.503425890E0
6.949779583E-1,-9.370513916E-1,1.439406738E0,1.637744293E0,2.373217950E0
7.050569584E-1,-1.103954315E0,1.463506622E0,1.193468170E0,2.187448979E0
7.151349584E-1,-1.301094360E0,1.518292694E0,7.545808411E-1,2.137159677E0
7.252129584E-1,-1.333127747E0,1.473386078E0,4.189787292E-1,2.030674592E0
7.352919584E-1,-9.644444275E-1,1.119821320E0,3.098556519E-2,1.478212754E0
7.453699583E-1,-3.183879089E-1,4.481680298E-1,-1.094224548E-1,5.605343139E-1
7.554479584E-1,-0.000000000E0,-9.026229858E-2,-3.382965088E-2,9.639360884E-2
7.655269584E-1,-3.891906738E-3,-6.239025879E-1,1.264869690E-1,6.366070526E-1
7.756049584E-1,1.200503540E-1,-1.533860321E0,5.713618469E-1,1.641217211E0
7.856829584E-1,4.746030579E0,-8.410859528E0,1.349593506E0,9.751346926E0
7.957609583E-1,1.604393646E1,-2.156640244E1,2.729124756E0,2.701787803E1
8.058399584E-1,2.615600830E1,-3.427362762E1,-6.139183502E0,4.354891382E1
8.159179584E-1,3.602318939E1,-4.660169128E1,-3.235746231E1,6.720411573E1
8.259959584E-1,3.334915009E1,-4.457101410E1,-3.343073044E1,6.493346477E1
8.360749584E-1,2.472139160E1,-3.654560303E1,-1.663790131E1,4.715451265E1
8.461529583E-1,1.999182678E1,-3.018817337E1,2.995121613E0,3.633138730E1
8.562309584E-1,1.867112320E1,-2.569796082E1,2.531086578E0,3.186537982E1
8.663099584E-1,1.358185638E1,-1.792462555E1,1.894310760E0,2.256872697E1
8.763879584E-1,1.069211563E1,-1.169248535E1,6.073619843E0,1.696833546E1
8.864659584E-1,9.654623108E0,-7.080875244E0,6.490951996E0,1.361921435E1
8.965449583E-1,9.710906067E0,-3.816613312E0,3.745062103E0,1.108574418E1
9.066229584E-1,1.083222427E1,-2.947370911E-1,-2.601889343E0,1.114422634E1
9.167009584E-1,1.240859619E1,8.598120117E-1,-3.062182159E0,1.280974222E1
9.267799584E-1,1.213511490E1,-8.382568359E-3,-1.497186584E0,1.222712769E1
9.368579584E-1,9.519903259E0,-1.680555267E0,-1.728156281E0,9.820353772E0
9.469359583E-1,6.221362610E0,-4.062252502E0,-2.156415710E0,7.736754929E0
9.570139584E-1,3.320844269E0,-5.756130066E0,-2.411036224E0,7.069238691E0
9.670929584E-1,1.303639069E0,-6.863377533E0,-2.343825989E0,7.368781870E0
9.771709584E-1,3.676354980E-1,-7.577692108E0,-1.919159088E0,7.825582736E0
9.872489584E-1,-4.086502075E-1,-7.935747528E0,-1.650318146E0,8.115826132E0
9.973279584E-1,-9.389973450E-1,-8.123606873E0,-1.567091217E0,8.326492630E0
1.007405958E0,-1.127605133E0,-8.088579712E0,-1.923200684E0,8.390191652E0
1.017483958E0,-1.175655212E0,-7.586074677E0,-2.859803009E0,8.192018520E0
1.027562958E0,-1.480271759E0,-6.815626831E0,-4.103117523E0,8.091943338E0
1.037640958E0,-1.577569427E0,-5.755231934E0,-5.450765076E0,8.082218744E0
1.047718958E0,-8.951385498E-1,-4.536316681E0,-5.974525909E0,7.554760214E0
1.057797958E0,-4.730163574E-2,-3.337609406E0,-5.741610260E0,6.641382564E0
1.067875958E0,7.849676514E-1,-2.144739990E0,-5.358407135E0,5.824827110E0
1.077953958E0,1.709145813E0,-1.154848480E0,-4.826263733E0,5.248588005E0
1.088031958E0,2.330803070E0,-5.279521179E-1,-4.461622009E0,5.061368130E0
1.098110958E0,2.807112579E0,1.092727661E-2,-4.609364777E0,5.396873547E0
1.108188958E0,3.142415314E0,6.030958557E-1,-5.597310333E0,6.447354619E0
1.118266958E0,3.667223969E0,9.443861389E-1,-6.880741425E0,7.853979842E0
1.128345958E0,3.917204132E0,6.580316162E-1,-5.609285431E0,6.873250822E0
1.138423958E0,3.520379333E0,-6.008505249E-1,-1.416654053E0,3.842004777E0
1.148501958E0,3.762425995E0,-2.540816345E0,2.742297363E-1,4.548274290E0
1.158580958E0,5.237458649E0,-4.462819519E0,-5.957611084E-1,6.906711407E0
1.168658958E0,6.501879272E0,-6.314169617E0,-1.579515381E0,9.199893524E0
1.178736625E0,7.582332458E0,-9.073381805E0,-7.497159576E0,1.400090799E1
1.188815625E0,6.236780548E0,-1.504730896E1,-1.070918015E1,1.949372919E1
1.198893625E0,4.308041382E0,-2.070569229E1,-4.252656555E0,2.157243615E1
1.208971625E0,5.458548889E0,-2.386187897E1,3.500021667E0,2.472721528E1
1.219050625E0,6.649172974E0,-2.659055466E1,4.185745697E0,2.772705475E1
1.229128625E0,5.613327026E0,-2.781485870E1,1.382674713E0,2.840928711E1
1.239206625E0,3.015479279E0,-2.552686661E1,-3.683839417E-1,2.570699790E1
1.249284625E0,3.464695129E0,-2.279055679E1,2.409988403E-2,2.305242226E1
1.259363625E0,5.724994812E0,-2.220961487E1,1.468296661E0,2.298256847E1
1.269441625E0,8.100105743E0,-2.315924011E1,3.647165680E0,2.480451437E1
1.279519625E0,9.880653076E0,-2.390903091E1,5.098846893E0,2.636792188E1
1.289598625E0,1.056158707E1,-2.367686371E1,5.054688721E0,2.641383869E1
1.299676625E0,1.084479813E1,-2.222638000E1,4.030368805E0,2.505724421E1
1.309754625E0,1.077130096E1,-1.960083984E1,2.002236328E0,2.245490586E1
1.319833625E0,1.082009949E1,-1.681662964E1,-1.522933044E0,2.005474783E1
1.329911625E0,1.329804657E1,-1.387419846E1,-8.443042603E0,2.099086453E1
1.339989625E0,1.790771072E1,-1.057371185E1,-1.584664673E1,2.614585432E1
1.350068625E0,2.001353165E1,-8.420738983E0,-1.654958496E1,2.730089845E1
1.360146625E0,2.071063202E1,-7.020700378E0,-1.457129883E1,2.627818985E1
1.370224625E0,2.023791504E1,-5.706134033E0,-1.189456512E1,2.415810113E1
1.380302625E0,1.791220139E1,-4.050427094E0,-9.750573578E0,2.079246506E1
1.390381625E0,1.300794983E1,-2.637365570E0,-6.980733490E0,1.499643611E1
1.400459625E0,8.062384186E0,-3.092119904E0,-1.422491913E0,8.751384319E0
1.410537625E0,4.738246765E0,-3.321293335E0,4.403692474E0,7.271483977E0
1.420616625E0,1.601669312E0,-3.410208435E0,7.404202881E0,8.307652283E0
1.430694625E0,6.571334839E-1,-3.695664825E0,7.519612885E0,8.404423886E0
1.440772625E0,-1.083746338E-1,-3.603755951E0,5.863307190E0,6.883107817E0
1.450851625E0,-2.145039368E-1,-2.737806702E0,3.638034668E0,4.558167803E0
1.460929625E0,-1.543290710E-1,-1.772464142E0,1.941163330E0,2.633165713E0
1.471007625E0,-2.586621094E-1,-8.481362915E-1,9.674382019E-1,1.312317770E0
1.481086625E0,-2.745291138E-1,2.124082947E-1,3.146456909E-1,4.684927201E-1
1.491164625E0,-1.752854919E-1,1.119521942E0,-6.616241455E-2,1.135091119E0
1.501242625E0,-2.002835083E-1,1.672322388E0,-1.511856079E-1,1.691044866E0
1.511320625E0,-3.209326172E-1,1.929188232E0,-1.676513672E-1,1.962873394E0
1.521399625E0,-3.561094666E-1,2.029928741E0,-1.505868530E-1,2.066422282E0
1.531477625E0,-2.823129272E-1,2.151925049E0,3.188369751E-2,2.170598667E0
1.541555625E0,-2.131567383E-1,2.274969177E0,2.676434326E-1,2.300555055E0
1.551634625E0,-2.139051819E-1,2.380649414E0,6.553372192E-1,2.478449905E0
1.561712625E0,-3.164419556E-1,2.444416809E0,1.238524475E0,2.758487253E0
1.571790625E0,-4.532574463E-1,2.358046417E0,1.802850952E0,3.002681597E0
1.581869625E0,-2.134561157E-1,2.907254333E0,2.103425903E0,3.594731117E0
1.591947625E0,2.778222656E-1,3.845054169E0,2.307301941E0,4.492801912E0
1.602025625E0,4.373904419E-1,4.373754730E0,2.267634430E0,4.946029392E0
1.612104625E0,1.724414062E-1,4.193828888E0,1.771416321E0,4.555859146E0
1.622182625E0,-9.355545044E-2,3.783681793E0,9.779164124E-1,3.909133030E0
1.632260625E0,-3.103047180E-1,3.227139130E0,1.679507446E-1,3.246370809E0
1.642338625E0,-6.369255066E-1,2.479893036E0,-5.066963196E-1,2.610035389E0
1.652417625E0,-9.379495239E-1,1.667981415E0,-9.280700684E-1,2.126787568E0
1.662495625E0,-1.097966766E0,9.056167603E-1,-1.220861206E0,1.875146613E0
1.672573625E0,-1.188678131E0,-1.287322998E-2,-2.424957275E0,2.700655329E0
1.682652625E0,-8.890013123E-1,-1.081051941E0,-4.326153717E0,4.546933320E0
1.692730625E0,-9.026229858E-2,-2.299817505E0,-6.481970673E0,6.878462883E0
1.702808625E0,1.772763519E0,-4.523892517E0,-1.039812698E1,1.147734023E1
1.712887625E0,3.684438171E0,-7.200626221E0,-1.236743179E1,1.477760034E1
1.722965625E0,5.509143677E0,-1.237072495E1,-7.426207123E0,1.544454764E1
1.733043625E0,1.024349854E1,-1.876886993E1,3.973187714E0,2.174824042E1
1.743122625E0,1.878129410E1,-2.375559998E1,1.000639160E1,3.189346972E1
1.753200625E0,3.374432831E1,-3.139496384E1,1.105421265E1,4.739745842E1
1.763278625E0,4.896542587E1,-3.794564163E1,-9.675579529E0,6.269849670E1
1.773357625E0,5.542853577E1,-4.228392014E1,-4.372212936E1,8.229141556E1
1.783435625E0,3.123644348E1,-3.321457993E1,-6.549330597E0,4.606318978E1
1.793513625E0,2.181802917E1,-2.204525665E1,1.299762131E1,3.362971748E1
1.803591625E0,1.817879700E1,-1.401191208E1,1.141136993E1,2.563243461E1
1.813670625E0,1.489597366E1,-8.080047455E0,6.228996735E0,1.805484972E1
1.823748625E0,1.215711914E1,-3.938010864E0,3.110232239E0,1.315207284E1
1.833826625E0,1.058912979E1,-1.310674438E0,1.312919769E0,1.075040909E1
1.843905625E0,9.468260651E0,8.092172241E-1,-6.327342224E-1,9.523819867E0
1.853983625E0,8.607550507E0,2.760858765E0,-4.258045349E0,9.992157777E0
1.864061625E0,6.277795258E0,3.914659424E0,-7.950716400E0,1.086044028E1
1.874140625E0,3.004851379E0,3.132236481E0,-5.963898010E0,7.376185780E0
1.884218625E0,9.071136475E-1,1.358275452E0,-3.307372284E0,3.688696084E0
1.894296625E0,7.146139526E-1,-6.843768311E-1,-2.477947083E0,2.668195362E0
1.904374625E0,1.263073425E0,-2.551593933E0,-2.698737946E0,3.922903590E0
1.914453625E0,1.065783691E0,-4.061953125E0,-4.037703552E0,5.825668034E0
1.924531625E0,4.965174866E-1,-5.250182190E0,-4.710254974E0,7.070887113E0
1.934609625E0,7.379653931E-2,-5.890999603E0,-3.248843994E0,6.727875560E0
1.944688625E0,1.692979431E-1,-5.943690033E0,-1.141675873E0,6.054711950E0
1.954766625E0,8.443940735E-1,-5.437143402E0,3.664379883E-1,5.514508729E0
1.964844625E0,1.692230988E0,-4.516707458E0,1.178349609E0,4.965158586E0
1.974923625E0,2.351609802E0,-3.690425720E0,1.346450043E0,4.578453710E0
1.985001625E0,2.909948730E0,-3.009491730E0,6.703060913E-1,4.239593417E0
1.995079625E0,4.073778534E0,-2.335293732E0,-2.176773376E0,5.175674902E0
2.005158625E0,6.002068634E0,-1.884431305E0,-8.763077087E0,1.078737360E1
2.015236625E0,6.757397919E0,-2.379601593E0,-1.124746078E1,1.333530294E1
2.025314625E0,5.330265656E0,-4.024830322E0,-8.471932526E0,1.078817092E1
2.035392625E0,4.132606201E0,-6.136189728E0,-7.885152740E0,1.081234906E1
2.045471625E0,3.980672150E0,-8.155939636E0,-7.858208771E0,1.200485515E1
2.055549625E0,4.338727570E0,-9.799372101E0,-9.130263519E0,1.407884805E1
2.065627625E0,5.552852783E0,-1.112651230E1,-1.059496765E1,1.633667009E1
2.075706625E0,6.429579620E0,-9.719588013E0,-3.183130646E0,1.208065420E1
2.085784625E0,4.249962158E0,-6.878496094E0,5.392386475E0,9.718730305E0
2.095862625E0,1.728455658E0,-4.915927277E0,6.950945435E0,8.687320783E0
2.105941625E0,8.646020508E-1,-4.131109314E0,4.906796265E0,6.472267798E0
2.116019625E0,4.809498596E-1,-2.423610077E0,2.481389923E0,3.501784477E0
2.126097625E0,7.828720093E-2,-9.407936096E-1,4.430786133E-1,1.042851935E0
2.136176625E0,1.012344818E0,-3.232078857E0,-2.715503082E0,4.341098105E0
2.146254625E0,5.103487244E0,-1.065035248E1,-2.386277710E1,2.662532105E1
2.156332625E0,1.207973007E1,-1.917093384E1,-3.155034073E1,3.884415764E1
2.166410625E0,1.627894775E1,-1.961625778E1,5.105732574E0,2.599750400E1
2.176489708E0,1.758348495E1,-1.662847092E1,1.717797821E1,2.967773448E1
2.186567708E0,1.625709320E1,-1.609288467E1,1.196267349E1,2.581432884E1
2.196645708E0,1.405936340E1,-1.692889618E1,7.331753540E0,2.319499591E1
2.206724708E0,1.441741882E1,-1.758094025E1,4.356241150E0,2.315012446E1
2.216802708E0,1.622206604E1,-1.817370758E1,1.280137939E0,2.439421708E1
2.226880708E0,1.847054031E1,-1.990515701E1,-2.147883453E0,2.723948492E1
2.236959708E0,1.980830841E1,-2.189631638E1,-4.275259552E0,2.983446995E1
2.247037708E0,1.979708176E1,-2.233071304E1,-4.786296844E0,3.022406043E1
2.257115708E0,1.946956284E1,-1.994931519E1,-7.311545563E0,2.881835790E1
2.267194708E0,1.801129532E1,-1.589664276E1,-1.141735748E1,2.659823419E1
2.277272708E0,1.781280807E1,-1.128278732E1,-1.267519180E1,2.460198993E1
2.287350708E0,1.789094559E1,-7.590116272E0,-1.167871399E1,2.267351229E1
2.297428708E0,1.781610123E1,-4.627776489E0,-1.104777603E1,2.146818887E1
2.307507708E0,1.781834656E1,-1.730700989E0,-1.053584061E1,2.077240326E1
2.317585708E0,1.685929092E1,7.795788574E-1,-9.117090912E0,1.918240810E1
2.327663708E0,1.439840836E1,2.106719055E0,-8.118966522E0,1.666343439E1
2.337742708E0,1.053000275E1,9.262738037E-1,-6.145021362E0,1.222702861E1
2.347820708E0,7.026987305E0,-1.347946930E0,-1.932032318E0,7.411360225E0
2.357898708E0,3.712130585E0,-2.529140625E0,2.315085754E0,5.053324433E0
2.367977708E0,1.030606842E0,-3.139421539E0,4.932243347E0,5.936761954E0
2.378055708E0,8.262817383E-1,-3.384611664E0,6.516099701E0,7.389038702E0
2.388133708E0,9.822573853E-1,-3.790268097E0,6.297404480E0,7.415407271E0
2.398211708E0,6.984475708E-1,-3.297043762E0,3.960763550E0,5.200574437E0
2.408290708E0,4.764591980E-1,-2.437680817E0,2.421963501E0,3.469179778E0
2.418368708E0,5.388793945E-2,-1.714235229E0,1.652713165E0,2.381799139E0
2.428446708E0,-2.300715637E-1,-9.632469177E-1,1.200204163E0,1.556042281E0
2.438525708E0,-3.466790771E-1,-2.505789185E-1,9.533674622E-1,1.044933345E0
2.448603708E0,-5.349874878E-1,3.001258850E-1,7.288343811E-1,9.526209708E-1
2.458681708E0,-5.287005615E-1,7.882608032E-1,5.990542603E-1,1.122383795E0
2.468760708E0,-3.107537842E-1,1.311273193E0,5.498066711E-1,1.455435563E0
2.478838708E0,-1.131646729E-1,1.725611572E0,5.692662048E-1,1.820605820E0
2.488916708E0,-2.469863892E-2,2.021995239E0,6.773414612E-1,2.132572678E0
2.498995708E0,-1.893562317E-1,2.258802795E0,9.123527527E-1,2.443447032E0
2.509073708E0,-4.231700134E-1,2.612816620E0,1.407972107E0,2.998044196E0
2.519151708E0,-5.189707947E-1,3.062331848E0,1.910776520E0,3.646679852E0
2.529229708E0,-1.700463867E-1,4.265529785E0,2.186503143E0,4.796296083E0
2.539308708E0,1.787283325E-1,5.228327637E0,2.590662689E0,5.837712468E0
2.549386708E0,1.157093811E-1,4.689448242E0,2.998414764E0,5.567297780E0
2.559464708E0,-1.734892273E-1,3.768263855E0,2.885998535E0,4.749620884E0
2.569543708E0,-5.581892395E-1,2.775677948E0,2.526595917E0,3.794687105E0
2.579621708E0,-9.972262573E-1,1.817969513E0,2.022444305E0,2.896507263E0
2.589699708E0,-1.307381287E0,1.113235016E0,1.323098602E0,2.167747204E0
2.599778708E0,-1.634451141E0,5.204676819E-1,4.390370178E-1,1.770613070E0
2.609856708E0,-2.565065918E0,-2.808160400E-1,-2.950514374E0,3.919688238E0
2.619934708E0,-3.818559265E0,-1.575623474E0,-8.197702789E0,9.179668579E0
2.630012708E0,-2.754721527E0,-2.111658783E0,-6.897955627E0,7.722006562E0
2.640091708E0,-6.517446899E-1,-2.178419952E0,-4.796625366E0,5.308285932E0
2.650169708E0,1.436712341E0,-2.882855072E0,-3.644620972E0,4.863975508E0
2.660247708E0,3.738176422E0,-3.898642731E0,-7.509883118E-1,5.453197369E0
2.670326708E0,6.121520233E0,-5.654790802E0,-2.471360779E-1,8.337310431E0
2.680404708E0,1.075229050E1,-9.117539978E0,-1.785037994E0,1.421012480E1
2.690482708E0,1.944037354E1,-1.626128448E1,-7.237299957E0,2.635784526E1
2.700561708E0,3.059981735E1,-2.740546005E1,-1.391206970E1,4.336996364E1
2.710639708E0,3.794309692E1,-3.645055069E1,-1.107965973E1,5.376876518E1
2.720717708E0,3.419234665E1,-3.669529175E1,-6.905440063E0,5.062949840E1
2.730795708E0,2.850791748E1,-3.450235199E1,-9.874366150E0,4.583248585E1
2.740874708E0,2.358600266E1,-2.945320175E1,-9.564510498E0,3.892647525E1
2.750952708E0,1.755444534E1,-2.269176224E1,-6.059998169E0,2.932231578E1
2.761030708E0,1.178199921E1,-1.607716736E1,-4.611161041E0,2.045858308E1
2.771109708E0,1.062715073E1,-9.317973175E0,-3.686084747E0,1.460644301E1
2.781187708E0,1.336600525E1,-4.680766296E0,-2.414179688E0,1.436620802E1
2.791265708E0,1.492172012E1,-1.871558075E0,-2.170935516E0,1.519451948E1
2.801344708E0,1.425829971E1,-3.132984924E-1,-2.253114624E0,1.443862155E1
2.811422708E0,1.301917648E1,2.769241333E-1,-1.549427948E0,1.311397614E1
2.821500708E0,1.144969025E1,1.261875916E-1,-4.381388855E-1,1.145876502E1
2.831579708E0,9.438622284E0,-3.689826965E-1,2.335144043E-1,9.448717787E0
2.841657708E0,7.698939972E0,-1.428778839E0,4.031117249E-1,7.840764295E0
2.851735708E0,6.279890900E0,-2.908900909E0,4.361929321E-1,6.934623168E0
2.861813708E0,4.848267975E0,-4.273014221E0,3.137475586E-1,6.470146090E0
2.871892708E0,3.112178192E0,-4.998854828E0,2.496807861E-1,5.893771559E0
2.881970708E0,1.299896851E0,-5.368735657E0,9.205856323E-2,5.524629323E0
2.892048708E0,-4.507127380E-1,-5.914949799E0,-7.150630188E-1,5.975038762E0
2.902127708E0,-1.444196777E0,-6.396049347E0,-2.148332520E0,6.900035086E0
2.912205708E0,-1.299298096E0,-6.501579895E0,-2.393522644E0,7.048947958E0
2.922283708E0,6.271957397E-2,-6.499184875E0,-1.895957336E0,6.770376061E0
2.932362708E0,2.127675476E0,-6.333180084E0,-1.684896240E0,6.890213948E0
2.942440708E0,3.388952637E0,-5.732628937E0,-2.053429871E0,6.968831232E0
2.952518708E0,4.511019287E0,-4.712799683E0,-2.708018646E0,7.063507687E0
2.962596708E0,5.303621063E0,-4.031566315E0,-3.008144531E0,7.309641363E0
2.972675708E0,5.776787109E0,-3.768114166E0,-2.981949005E0,7.514118281E0
2.982753708E0,6.286477203E0,-3.749103699E0,-2.840044098E0,7.851205299E0
2.992831708E0,6.773564301E0,-3.851191406E0,-2.587668915E0,8.210291042E0
3.002910708E0,7.508086853E0,-4.065246277E0,-2.257605286E0,8.831442527E0
3.012988708E0,8.707243195E0,-4.464017029E0,-1.632505188E0,9.920111152E0
3.023066708E0,9.812694397E0,-5.724096680E0,-8.559201050E-1,1.139240332E1
3.033145708E0,9.721983032E0,-7.168592834E0,-7.740403748E-1,1.210391737E1
3.043223708E0,8.878786469E0,-8.663534088E0,-1.441951447E0,1.248875078E1
3.053301708E0,8.279283142E0,-9.504784698E0,-2.120041351E0,1.278209830E1
3.063379708E0,8.686885529E0,-9.029972076E0,-2.194137268E0,1.272071595E1
3.073458708E0,9.558972015E0,-7.405849457E0,-1.641636200E0,1.220309475E1
3.083536708E0,1.008363098E1,-5.886958008E0,-7.173083496E-1,1.169830841E1
3.093614708E0,1.026565247E1,-4.797673187E0,4.105961609E-1,1.133886581E1
3.103693708E0,1.028077103E1,-3.954626312E0,1.344953156E0,1.109694648E1
3.113771708E0,1.029723679E1,-3.370840302E0,1.885329437E0,1.099773235E1
3.123849708E0,1.055215668E1,-3.054098969E0,2.100581818E0,1.118427356E1
3.133928708E0,1.094074860E1,-2.961441650E0,1.998793488E0,1.150935671E1
3.144006708E0,1.130703690E1,-3.046614532E0,1.912123718E0,1.186537655E1
3.154084708E0,1.167557053E1,-3.174897766E0,2.056723022E0,1.227310199E1
3.164163708E0,1.174592422E1,-3.428769836E0,2.516716461E0,1.249228003E1
3.174242083E0,1.115839600E1,-3.915557556E0,3.151845703E0,1.223828107E1
3.184320083E0,9.855355682E0,-4.769082642E0,3.893104248E0,1.162017408E1
3.194398083E0,8.446186066E0,-5.537883911E0,4.837340698E0,1.119848571E1
3.204477083E0,6.921157379E0,-6.105653229E0,5.681884460E0,1.083813784E1
3.214555083E0,5.514233093E0,-6.529871063E0,6.149661713E0,1.052921279E1
3.224633083E0,4.486470337E0,-6.864125977E0,6.109844513E0,1.022618411E1
3.234712083E0,3.882626038E0,-7.277865601E0,5.746849365E0,1.005327759E1
3.244790083E0,3.332370300E0,-7.932454376E0,5.643863525E0,1.028988434E1
3.254868083E0,3.159479828E0,-8.959917755E0,5.899980927E0,1.118356892E1
3.264947083E0,3.557801514E0,-1.018212616E1,6.278543701E0,1.248013444E1
3.275025083E0,4.477788391E0,-1.145073807E1,6.652615814E0,1.397953105E1
3.285103083E0,5.719456329E0,-1.268567001E1,6.907086639E0,1.553532266E1
3.295181083E0,6.389912109E0,-1.360490845E1,6.780599670E0,1.648942214E1
3.305260083E0,6.122867432E0,-1.400323013E1,6.093378754E0,1.645324358E1
3.315338083E0,5.544021149E0,-1.407388321E1,4.974006500E0,1.592328797E1
3.325416083E0,5.022056580E0,-1.392554169E1,3.527414703E0,1.521789795E1
3.335495083E0,4.094285889E0,-1.298923874E1,1.936073914E0,1.375615797E1
3.345573083E0,3.429667969E0,-1.130793503E1,-2.547702026E-1,1.181934536E1
3.355651083E0,3.947291565E0,-1.004860382E1,-2.944826202E0,1.119051164E1
3.365730083E0,4.905149689E0,-8.381370850E0,-6.301745453E0,1.157669497E1
3.375808083E0,5.016218719E0,-7.263046417E0,-2.946772156E0,9.305791726E0
3.385886083E0,4.896318054E0,-7.301516418E0,1.371298370E0,8.897557627E0
3.395964083E0,5.642067261E0,-7.453600159E0,2.610271912E0,9.705802273E0
3.406043083E0,6.060896301E0,-7.440876617E0,3.430117035E0,1.019150684E1
3.416121083E0,6.061195679E0,-7.405400391E0,4.150868225E0,1.043109558E1
3.426199083E0,5.982908478E0,-7.514373779E0,4.750670929E0,1.071587054E1
3.436278083E0,5.948480072E0,-7.819738770E0,5.114264832E0,1.107648114E1
3.446356083E0,5.970184937E0,-8.328231354E0,5.415887604E0,1.159027110E1
3.456434083E0,5.981710968E0,-8.950038300E0,5.740412750E0,1.219985206E1
3.466513083E0,5.892496490E0,-9.509425049E0,6.203849030E0,1.279212345E1
3.476591083E0,5.805377655E0,-1.012644196E1,7.205865326E0,1.371757017E1
3.486669083E0,5.651946716E0,-1.067550018E1,8.108638000E0,1.454856749E1
3.496747083E0,5.272036743E0,-1.087293961E1,8.101452942E0,1.454815201E1
3.506826083E0,5.121150513E0,-1.153411469E1,7.472161560E0,1.466612364E1
3.516904083E0,5.860313416E0,-1.284613632E1,6.349795532E0,1.548180852E1
3.526982083E0,7.009024658E0,-1.423524765E1,5.384902039E0,1.675606971E1
3.537061083E0,7.625293121E0,-1.554038361E1,4.743934937E0,1.794863606E1
3.547139083E0,7.855813751E0,-1.767883667E1,9.303153992E-1,1.936802939E1
3.557217083E0,5.635480957E0,-2.167732178E1,-1.680076263E1,2.799875980E1
3.567296083E0,2.615211639E0,-1.739113495E1,-1.581341583E1,2.365068766E1
3.577374083E0,1.447489929E-1,-1.322918976E1,-8.265661469E0,1.559979402E1
3.587452083E0,4.505630493E-1,-1.075258987E1,-5.012027435E0,1.187188338E1
3.597530083E0,1.528321838E0,-7.683372345E0,-4.956193542E0,9.270050305E0
3.607609083E0,2.668351135E0,-4.868625641E0,-8.784482574E0,1.039185968E1
3.617687083E0,3.758234711E0,-3.937561798E0,-1.049961594E1,1.182669252E1
3.627765083E0,5.007237396E0,-5.458698578E0,-6.167025604E0,9.638569464E0
3.637844083E0,5.683531036E0,-7.187902679E0,-1.949396210E0,9.368490570E0
3.647922083E0,6.315965881E0,-8.382418671E0,7.879614258E-1,1.052507724E1
3.658000083E0,6.891369324E0,-9.062903595E0,2.227368164E0,1.160122242E1
3.668079083E0,7.046596527E0,-9.620045013E0,3.173400879E0,1.233978370E1
3.678157083E0,6.441255341E0,-1.015967285E1,3.935466156E0,1.265688021E1
3.688235083E0,5.633535004E0,-1.003932312E1,4.023782501E0,1.219489856E1
3.698313083E0,5.255121918E0,-9.410031738E0,3.269201660E0,1.126288965E1
3.708392083E0,5.273533630E0,-8.200696564E0,2.307301941E0,1.001924265E1
3.718470083E0,5.953569489E0,-6.715185699E0,9.249266052E-1,9.021873301E0
3.728548083E0,7.262896729E0,-5.670059052E0,-2.036515045E0,9.436452303E0
3.738627083E0,8.082292786E0,-4.828359375E0,-4.557123413E0,1.045963119E1
3.748705083E0,8.042774963E0,-4.190535736E0,-4.996310120E0,1.035422299E1
3.758783083E0,8.046068115E0,-3.726650391E0,-4.871170349E0,1.011708633E1
3.768862083E0,8.324489136E0,-3.651207275E0,-4.107458496E0,9.974951089E0
3.778940083E0,8.370742950E0,-4.074077911E0,-2.874173126E0,9.743116520E0
3.789018083E0,8.013585663E0,-4.661606140E0,-1.319356384E0,9.364231322E0
3.799096083E0,7.493716736E0,-5.007237396E0,1.957928467E-1,9.014796265E0
3.809175083E0,7.115752716E0,-5.087171173E0,9.865983582E-1,8.802648668E0
3.819253083E0,6.961723022E0,-5.015919342E0,8.173004150E-1,8.619339549E0
3.829331083E0,6.987170105E0,-5.087171173E0,1.907034302E-1,8.645011534E0
3.839410083E0,6.830745392E0,-5.819598083E0,-8.210426331E-1,9.011155057E0
3.849488083E0,6.121969299E0,-7.066954193E0,-2.302661591E0,9.629257504E0
3.859566083E0,5.020859070E0,-7.789950714E0,-3.466042328E0,9.894736345E0
3.869645083E0,3.782484283E0,-8.077652435E0,-3.875440979E0,9.724952391E0
3.879723083E0,2.583777008E0,-8.227041779E0,-4.328399048E0,9.648583231E0
3.889801083E0,1.545236664E0,-8.262068939E0,-5.280419312E0,9.926347143E0
3.899879083E0,9.482780457E-1,-8.119565277E0,-7.533533936E0,1.111668589E1
3.909958083E0,1.116079102E0,-7.802674255E0,-1.147094604E1,1.391797260E1
3.920036083E0,2.459535370E0,-6.896159363E0,-1.011252090E1,1.248476701E1
3.930114083E0,4.906796265E0,-4.382885742E0,8.792715454E-1,6.637729692E0
3.940193083E0,6.120173035E0,-3.007545776E0,6.023923187E0,9.098873564E0
3.950271083E0,6.635102234E0,-2.561922455E0,3.358565826E0,7.865620937E0
3.960349083E0,8.105344849E0,-1.504671021E0,-3.938010864E0,9.136114030E0
3.970428083E0,7.005132751E0,-3.320694580E0,-1.058598633E0,7.824290922E0
3.980506083E0,6.896309052E0,-5.175487518E0,4.450245667E0,9.703063232E0
3.990584083E0,8.679401093E0,-6.514902191E0,-4.926255798E-1,1.086363815E1
4.000662083E0,7.672445068E0,-9.652527466E0,-1.369457199E1,1.842766946E1
4.010741083E0,6.135291595E0,-1.119731506E1,-1.328008392E1,1.842233146E1
4.020819083E0,6.378685455E0,-1.132664612E1,-2.549198914E-1,1.300175083E1
4.030897083E0,6.723268890E0,-1.305150925E1,3.214714966E0,1.502925915E1
4.040976083E0,5.925128632E0,-1.487262222E1,-1.614841919E0,1.609067294E1
4.051054083E0,5.768254852E0,-1.545176788E1,-5.370681610E0,1.734572327E1
4.061132083E0,6.568640442E0,-1.459360245E1,-5.646557922E0,1.697067724E1
4.071211083E0,6.975344696E0,-1.315165100E1,-5.597160645E0,1.590438823E1
4.081289083E0,7.559579773E0,-1.077698914E1,-5.078040161E0,1.410947317E1
4.091367083E0,8.910670166E0,-8.681796112E0,-3.954776001E0,1.305426673E1
4.101445083E0,1.007779312E1,-8.053253174E0,-1.892364807E0,1.303832219E1
4.111524083E0,1.080797470E1,-8.578361206E0,4.634362793E-1,1.380635257E1
4.121602083E0,1.157797348E1,-9.658664703E0,2.912044373E0,1.535640831E1
4.131680083E0,1.258208542E1,-1.096933914E1,4.338278503E0,1.724691088E1
4.141759083E0,1.350491638E1,-1.284808228E1,4.755610657E0,1.923725077E1
4.151837083E0,1.450917801E1,-1.498354156E1,5.076842651E0,2.146618493E1
4.161915083E0,1.579889603E1,-1.678444656E1,5.047054596E0,2.359651504E1
4.171994083E0,1.693757812E1,-1.775697418E1,4.237987061E0,2.490285564E1
4.182072000E0,1.724009903E1,-1.751358032E1,3.134182434E0,2.477437405E1
4.192150000E0,1.680914520E1,-1.590951599E1,7.517367554E-1,2.315653622E1
4.202228000E0,1.762659531E1,-1.236847961E1,-6.971153412E0,2.263345157E1
4.212307000E0,1.962778381E1,-7.986192627E0,-1.545221695E1,2.622594476E1
4.222385000E0,2.003194336E1,-4.877606964E0,-1.899684586E1,2.803479903E1
4.232463000E0,1.833462296E1,-1.542242889E0,-2.136986115E1,2.819943044E1
4.242542000E0,1.408406204E1,6.011499023E-1,-1.834465210E1,2.313543701E1
4.252620000E0,1.073148376E1,1.137185211E0,-1.244033020E1,1.646875070E1
4.262698000E0,9.175020447E0,1.351539459E0,-7.037764893E0,1.164207000E1
4.272777000E0,6.299949188E0,1.156495056E0,-1.077609100E0,6.495235328E0
4.282855000E0,3.701203308E0,1.688488770E-1,2.758164368E0,4.618970291E0
4.292933000E0,1.383423157E0,-1.061442719E0,3.349285126E0,3.776007300E0
4.303011000E0,3.728746033E-1,-1.701212311E0,1.946402435E0,2.611827183E0
4.313090000E0,4.810995483E-1,-1.845212860E0,1.639690247E0,2.514925720E0
4.323168000E0,4.161346436E-2,-1.946851501E0,1.912423096E0,2.729345076E0
4.333246000E0,-7.909552002E-1,-1.772164764E0,1.326242065E0,2.350552296E0
4.343325000E0,-6.743476868E-1,-6.119274902E-1,9.297166443E-1,1.301373542E0
4.353403000E0,-9.321116638E-1,-1.736389160E-2,7.220983887E-1,1.179219972E0
4.363481000E0,-1.420396271E0,3.107537842E-1,4.411326599E-1,1.519437891E0
4.373559000E0,-1.571432190E0,6.021977234E-1,3.604504395E-1,1.721036242E0
4.383638000E0,-1.587897949E0,8.692424011E-1,2.863545227E-1,1.832757802E0
4.393716000E0,-1.732197876E0,9.750723267E-1,2.522254944E-1,2.003719847E0
4.403794000E0,-2.085463257E0,9.460327148E-1,3.866459656E-1,2.322418997E0
4.413873000E0,-2.517315216E0,1.107397156E0,6.123765564E-1,2.817482814E0
4.423951000E0,-2.931354218E0,1.448537750E0,7.490423584E-1,3.354424484E0
4.434029000E0,-2.933599548E0,1.745969238E0,1.089883575E0,3.583610065E0
4.444108000E0,-2.501448212E0,2.001038818E0,1.493144989E0,3.534244115E0
4.454186000E0,-1.948947144E0,2.194736023E0,1.810185699E0,3.448482774E0
4.464264000E0,-1.720073090E0,2.285896454E0,1.967658234E0,3.472125135E0
4.474342000E0,-1.795067139E0,2.210902405E0,1.939217377E0,3.445420077E0
4.484421000E0,-1.654958496E0,1.854792938E0,1.699865112E0,3.011425886E0
4.494499000E0,-1.474433899E0,1.479523315E0,1.080303497E0,2.351595248E0
4.504577000E0,-1.142124939E0,1.293011169E0,8.307723999E-2,1.727202677E0
4.514656000E0,-3.442840576E-2,1.020128632E0,-2.381248169E0,2.590789567E0
4.524734000E0,1.407523041E0,2.667453003E-1,-6.464307404E0,6.621143736E0
4.534812000E0,2.743494873E0,-2.435435486E-1,-8.606652374E0,9.036622304E0
4.544891000E0,4.223018188E0,-6.665638733E-1,-8.364456024E0,9.393738052E0
4.554969000E0,3.431314545E0,-8.674461365E-1,-1.971400452E0,4.051271658E0
4.565047000E0,1.794917450E0,-1.891316986E0,1.766476593E0,3.149483791E0
4.575125000E0,3.199746094E0,-4.897964630E0,1.247356110E0,5.982000489E0
4.585204000E0,1.645333511E1,-2.035542068E1,-2.679487976E1,3.745692151E1
4.595282000E0,3.263693115E1,-4.840499130E1,-2.519380920E1,6.358412129E1
4.605360000E0,4.461247787E1,-5.365188034E1,4.869224396E0,6.994645661E1
4.615439000E0,4.568080627E1,-3.596585861E1,6.437962189E0,5.849552466E1
4.625517000E0,3.627616333E1,-2.367776184E1,-3.809577942E0,4.348688671E1
4.635595000E0,2.463636841E1,-1.153815628E1,-1.009545639E1,2.901720073E1
4.645674000E0,1.655242905E1,-4.619244232E0,-5.535937958E0,1.805455438E1
4.655752000E0,1.272024811E1,-2.166744232E0,3.739074554E0,1.343429086E1
4.665830000E0,1.250993546E1,-1.135388947E0,5.884862366E0,1.387152473E1
4.675908000E0,1.594738724E1,1.086889801E0,2.966980133E0,1.625741247E1
4.685987000E0,1.933708832E1,2.445464630E0,2.311193848E-1,1.949247799E1
4.696065000E0,1.665885773E1,5.013075256E-1,-9.166937256E-1,1.669159002E1
4.706143000E0,1.292831543E1,-1.734742584E0,-1.306782532E0,1.310947567E1
4.716222000E0,1.096619568E1,-2.792293396E0,-9.015751648E-1,1.135196846E1
4.726300000E0,9.153315582E0,-3.505260773E0,-3.396437073E-1,9.807415413E0
4.736378000E0,7.687264252E0,-3.876638489E0,-7.102729797E-1,8.638683080E0
4.746456000E0,6.595584412E0,-4.229754181E0,-1.985920258E0,8.083095535E0
4.756535000E0,5.734874268E0,-4.445904694E0,-3.537593536E0,8.072757858E0
4.766613000E0,4.660109253E0,-4.623585205E0,-4.420906677E0,7.914453503E0
4.776691000E0,3.131787415E0,-4.541106720E0,-4.501139832E0,7.119691176E0
4.786770000E0,2.073937225E0,-3.797602844E0,-3.865262146E0,5.802004346E0
4.796848000E0,1.706301727E0,-2.894081726E0,-2.625989227E0,4.264152207E0
4.806926000E0,1.735191650E0,-2.179018707E0,-1.352587280E0,3.096531114E0
4.817005000E0,1.716330872E0,-1.685345306E0,-6.189628601E-1,2.483806652E0
4.827083000E0,1.368903351E0,-1.552421722E0,-4.417314148E-1,2.116373368E0
4.837161000E0,9.635462952E-1,-1.810934143E0,-8.884025574E-1,2.235433523E0
4.847239000E0,6.924600220E-1,-2.593207397E0,-1.609153748E0,3.129473002E0
4.857318000E0,8.595126343E-1,-4.188739471E0,-2.246228943E0,4.830097804E0
4.867396000E0,1.617087250E0,-5.898334351E0,-2.505938873E0,6.609466614E0
4.877474000E0,2.511926422E0,-7.243586884E0,-2.798580322E0,8.161579327E0
4.887553000E0,3.012036438E0,-8.377478943E0,-3.223845978E0,9.468246925E0
4.897631000E0,2.854414215E0,-9.179211731E0,-4.396357727E0,1.057041010E1
4.907709000E0,2.408192139E0,-1.002345612E1,-8.290809174E0,1.322900520E1
4.917787000E0,2.112556915E0,-1.073792038E1,-1.245559845E1,1.658034268E1
4.927866000E0,3.030448151E0,-9.185049591E0,-7.783065033E0,1.241470311E1
4.937944000E0,4.977748718E0,-5.724845123E0,-1.317260742E-2,7.586303942E0
4.948022000E0,5.964047699E0,-3.270698547E0,3.960913239E0,7.871224023E0
4.958101000E0,6.006708984E0,-2.278412018E0,3.722459106E0,7.424851241E0
4.968179000E0,6.695576477E0,-1.341210938E0,6.010002136E-1,6.854983034E0
4.978257000E0,9.410480804E0,-1.224753113E0,-6.595883789E0,1.155693957E1
4.988336000E0,1.275138336E1,-4.056414642E0,-1.253448441E1,1.833481870E1
4.998414000E0,1.406370438E1,-6.837481384E0,-4.104764099E0,1.616749890E1
5.008492000E0,1.522588760E1,-8.186775513E0,1.248553619E0,1.733233489E1
5.018570000E0,1.490540405E1,-9.617799683E0,1.918710022E0,1.784249391E1
5.028649000E0,1.258762390E1,-1.088506439E1,-9.842033386E-1,1.667037968E1
5.038727000E0,1.010473709E1,-1.172152496E1,-1.505120087E0,1.554880206E1
5.048805000E0,1.041174866E1,-1.252295837E1,3.496728516E-1,1.628960612E1
5.058884000E0,1.203482346E1,-1.373408981E1,1.490899658E0,1.832170790E1
5.068962000E0,1.384456009E1,-1.512409927E1,1.865271149E0,2.058857594E1
5.079040000E0,1.485331238E1,-1.617910538E1,2.346819763E0,2.208827522E1
5.089119000E0,1.529983383E1,-1.684941147E1,3.117417297E0,2.297184957E1
5.099197000E0,1.554098236E1,-1.711510895E1,3.276536407E0,2.334919223E1
5.109275000E0,1.514236130E1,-1.686453003E1,2.749482422E0,2.283118771E1
5.119353000E0,1.444825470E1,-1.604872650E1,2.202370148E0,2.170631522E1
5.129432000E0,1.442909454E1,-1.484313354E1,1.246008911E0,2.073812723E1
5.139510000E0,1.552092407E1,-1.329505280E1,-5.764512634E-1,2.044479907E1
5.149588000E0,1.730700989E1,-1.099343903E1,-3.393143921E0,2.078224527E1
5.159667000E0,1.868818771E1,-8.301586761E0,-6.713539124E0,2.152292523E1
5.169745000E0,1.860930176E1,-5.542673950E0,-8.160579987E0,2.106234584E1
5.179825958E0,1.742077332E1,-2.705324249E0,-7.545958099E0,1.917664219E1
5.189904958E0,1.547452057E1,2.513273621E-1,-7.564669189E0,1.722638013E1
5.199982958E0,1.285751266E1,2.735411682E0,-9.820328522E0,1.640844177E1
5.210060958E0,9.595496063E0,3.752247162E0,-1.266366577E1,1.632548113E1
5.220138958E0,6.671626282E0,2.145937500E0,-1.289852737E1,1.467949772E1
5.230217958E0,5.052293701E0,-2.616558838E-1,-8.967551880E0,1.029617027E1
5.240295958E0,4.111949158E0,-1.399589539E0,-2.327060852E0,4.927696111E0
5.250373958E0,3.611240387E0,-2.131118317E0,3.561094666E0,5.501283271E0
5.260452958E0,2.329455872E0,-3.246598663E0,4.858895874E0,6.290916996E0
5.270530958E0,8.164022827E-1,-3.286415863E0,4.254303131E0,5.437475245E0
5.280608958E0,5.089416504E-3,-2.426454163E0,3.682791595E0,4.410290199E0
5.290686958E0,-4.800517273E-1,-1.711840210E0,3.027454376E0,3.510886863E0
5.300765958E0,-9.129515076E-1,-1.107995911E0,2.594704285E0,2.965404815E0
5.310843958E0,-1.182241516E0,-5.794450378E-1,2.117796021E0,2.493694356E0
5.320921958E0,-1.249152374E0,-7.424560547E-2,1.830992432E0,2.217752770E0
5.331000958E0,-1.181193695E0,3.441343689E-1,1.866917725E0,2.235850800E0
5.341078958E0,-1.172362061E0,6.884184265E-1,2.024240570E0,2.438422157E0
5.351156958E0,-1.135089569E0,9.563612366E-1,2.184407501E0,2.640964081E0
5.361235958E0,-1.090781708E0,1.146615601E0,2.441273346E0,2.909355190E0
5.371313958E0,-1.071022797E0,1.289268951E0,2.677033081E0,3.158450629E0
5.381391958E0,-9.282197571E-1,1.419498138E0,2.843187561E0,3.310631721E0
5.391469958E0,-6.695576477E-1,1.585053864E0,2.884950714E0,3.359113546E0
5.401548958E0,1.945953369E-3,1.682950287E0,2.558629303E0,3.062500509E0
5.411626958E0,6.251000977E-1,1.862576752E0,1.703457642E0,2.600328869E0
5.421704958E0,7.915539551E-1,1.898502045E0,4.558021545E-1,2.106804044E0
5.431783958E0,4.167333984E-1,1.625020752E0,-2.126328278E0,2.708437024E0
5.441861958E0,1.269360352E-1,9.804611206E-1,-4.419110413E0,4.528349987E0
5.451939958E0,-5.505551147E-1,-5.282514954E-1,-1.243793518E1,1.246131583E1
5.462017958E0,2.028282166E-1,-2.673889618E0,-2.005529480E1,2.023377559E1
5.472096958E0,2.350711670E0,-4.040697327E0,-1.746553024E1,1.808031601E1
5.482174958E0,3.844904480E0,-4.046086121E0,-5.714666290E0,7.988210949E0
5.492252958E0,4.640799408E0,-3.057691498E0,1.516646118E0,5.760790908E0
5.502331958E0,5.319039001E0,-3.255879364E0,2.916385345E0,6.884637232E0
5.512409958E0,7.488777008E0,-4.292922821E0,2.909349976E0,9.109077050E0
5.522487958E0,1.121812180E1,-6.380781097E0,3.377725983E0,1.334052686E1
5.532566958E0,1.746014145E1,-9.544302521E0,3.470832367E0,2.019893382E1
5.542644958E0,2.419119415E1,-1.201596268E1,4.454137573E0,2.737583926E1
5.552722958E0,2.637814636E1,-1.349997665E1,4.220922546E0,2.993112364E1
5.562800958E0,2.687226883E1,-1.512379990E1,-1.576222229E0,3.087608511E1
5.572879958E0,2.776935333E1,-1.660197601E1,-1.203527252E1,3.451970997E1
5.582957958E0,3.350153320E1,-2.273232788E1,-2.620989624E1,4.822934914E1
5.593035958E0,2.870730286E1,-2.344095428E1,-9.744436340E0,3.832155548E1
5.603114958E0,1.790322006E1,-1.239796829E1,1.146989822E1,2.461287207E1
5.613192958E0,1.371343277E1,-5.164709930E0,8.794212341E0,1.709007425E1
5.623270958E0,1.285526733E1,-4.552632751E0,-1.045426025E0,1.367761963E1
5.633349958E0,1.338232132E1,-1.494192810E0,-1.180160843E1,1.790522543E1
5.643427958E0,1.732003281E1,8.310717773E-1,-1.403571259E1,2.230864058E1
5.653505958E0,1.877186371E1,-5.493576050E-2,-2.972518616E0,1.900583468E1
5.663583958E0,1.752405853E1,-1.397643585E0,2.991379395E0,1.783239708E1
5.673662958E0,1.592074265E1,-1.812730408E0,2.775228882E0,1.626216263E1
5.683740958E0,1.433538940E1,-1.575174408E0,1.088536377E0,1.446269253E1
5.693818958E0,1.253687943E1,-1.812730408E0,-9.092092896E-1,1.269984247E1
5.703897958E0,1.014410522E1,-2.919079742E0,-1.775308228E0,1.070400003E1
5.713975958E0,8.321794739E0,-3.804488525E0,-1.338666229E0,9.247617417E0
5.724053958E0,7.168443146E0,-4.169729004E0,-5.852828979E-1,8.313589668E0
5.734131958E0,5.830375671E0,-4.382586365E0,-3.010240173E-1,7.300065696E0
5.744210958E0,4.362677765E0,-4.473896484E0,-5.342390442E-1,6.271691828E0
5.754288958E0,3.065625000E0,-4.495601349E0,-7.711962891E-1,5.495746705E0
5.764366958E0,1.979783020E0,-4.370162201E0,-6.809339905E-1,4.845774403E0
5.774445958E0,9.569599915E-1,-4.188290405E0,-7.301815796E-1,4.357833646E0
5.784523958E0,1.076261902E-1,-4.066144409E0,-1.568887482E0,4.359646968E0
5.794601958E0,-3.785627747E-1,-3.909719696E0,-2.787952423E0,4.816834706E0
5.804679958E0,-6.042933655E-1,-3.783831482E0,-3.671714630E0,5.306980260E0
5.814758958E0,-5.680686951E-1,-3.620820465E0,-3.906875610E0,5.356931950E0
5.824836958E0,-4.014651489E-1,-3.612886963E0,-3.748504944E0,5.221629610E0
5.834914958E0,3.321592712E-1,-3.850892029E0,-3.770359497E0,5.399565717E0
5.844993958E0,1.528621216E0,-4.273762665E0,-4.421206055E0,6.336307530E0
5.855071958E0,2.576891327E0,-4.972060547E0,-5.807323608E0,8.067636735E0
5.865149958E0,3.777544556E0,-6.132597198E0,-8.027057648E0,1.078481552E1
5.875228958E0,5.214107208E0,-7.923023987E0,-1.238734039E1,1.560151996E1
5.885306958E0,6.774612122E0,-1.033855087E1,-1.810529984E1,2.192220075E1
5.895384958E0,9.090745697E0,-1.178858551E1,-1.592074265E1,2.179638622E1
5.905462958E0,1.160611496E1,-1.003273682E1,-2.443219299E0,1.553470415E1
5.915541958E0,1.141211838E1,-6.602619781E0,7.686515808E0,1.526150579E1
5.925619958E0,8.667126617E0,-4.197122040E0,7.097939758E0,1.196309601E1
5.935697958E0,6.418352966E0,-3.025957489E0,4.636458435E0,8.476344751E0
5.945776958E0,5.038372650E0,-1.876797180E0,2.276166687E0,5.838535896E0
5.955854958E0,4.652325439E0,-1.600022736E0,1.440005493E0,5.126189674E0
5.965932958E0,5.038372650E0,-2.493065643E0,-4.352947998E-1,5.638267183E0
5.976010958E0,7.007078705E0,-3.753594360E0,-1.120240448E1,1.373617446E1
5.986089958E0,1.027957352E1,-5.797294464E0,-1.528860718E1,1.931371959E1
5.996167958E0,1.322200470E1,-6.840475159E0,-2.690654755E0,1.512789251E1
6.006245958E0,1.385608612E1,-8.594677277E0,4.178261261E0,1.683203693E1
6.016324958E0,1.361224319E1,-1.118638779E1,2.340832214E0,1.777379903E1
6.026402958E0,1.390772873E1,-1.380653915E1,-1.441652069E0,1.965003314E1
6.036480958E0,1.448911972E1,-1.471874222E1,-1.273551636E0,2.069294316E1
6.046559958E0,1.516301834E1,-1.440289902E1,5.526507568E-1,2.092046960E1
6.056637958E0,1.512754211E1,-1.420530991E1,1.561852112E0,2.081039985E1
6.066715958E0,1.470062988E1,-1.380055161E1,1.705852661E0,2.023545593E1
6.076793958E0,1.433748505E1,-1.283505936E1,1.809137878E0,1.932809370E1
6.086872958E0,1.395488068E1,-1.186821991E1,2.032922516E0,1.843166060E1
6.096950958E0,1.420560928E1,-1.101289856E1,1.753453674E0,1.805984135E1
6.107028958E0,1.515553391E1,-1.007988876E1,8.759783936E-1,1.822256029E1
6.117107958E0,1.666245026E1,-9.132508850E0,-1.069076843E0,1.903110327E1
6.127185958E0,1.888712402E1,-7.880512390E0,-4.623734894E0,2.098105941E1
6.137263958E0,2.097049164E1,-6.245312805E0,-7.583979034E0,2.315776737E1
6.147341958E0,2.197759735E1,-4.315376129E0,-8.493188324E0,2.395352802E1
6.157420958E0,2.130759064E1,-1.800605621E0,-7.806117096E0,2.276381039E1
6.167498958E0,1.876872025E1,8.399034119E-1,-5.541177063E0,1.958762213E1
6.177577083E0,1.572480011E1,2.869083710E0,-3.146307220E0,1.629110889E1
6.187656083E0,1.304881485E1,4.103865967E0,-2.537074127E0,1.391222592E1
6.197734083E0,1.024230103E1,4.398453369E0,-2.608775024E0,1.144800548E1
6.207812083E0,7.106771393E0,3.113525391E0,-2.898871765E0,8.282734905E0
6.217891083E0,4.760251007E0,1.038690033E0,-2.755619659E0,5.597526806E0
6.227969083E0,3.410358124E0,-6.774911499E-1,-2.573298798E0,4.325667982E0
6.238047083E0,1.764680328E0,-2.168989563E0,-2.146685944E0,3.525177006E0
6.248125083E0,-2.415975952E-1,-3.550017700E0,-6.039939880E-1,3.609127846E0
6.258204083E0,-1.787133636E0,-4.459226990E0,1.553469543E0,5.048942424E0
6.268282083E0,-2.996468811E0,-5.097050629E0,3.251239014E0,6.747540705E0
6.278360083E0,-3.375330963E0,-4.819976807E0,3.476520538E0,6.834561477E0
6.288439083E0,-3.046913910E0,-4.192481689E0,2.778072968E0,5.880329625E0
6.298517083E0,-2.489173737E0,-3.331172791E0,2.013612671E0,4.620317526E0
6.308595083E0,-2.277064819E0,-2.472707977E0,1.488354950E0,3.676208562E0
6.318673083E0,-2.355501709E0,-1.824705505E0,1.031804352E0,3.153182314E0
6.328752083E0,-2.239193573E0,-1.271755371E0,7.110214233E-1,2.671497903E0
6.338830083E0,-2.082619171E0,-8.068222046E-1,4.584965515E-1,2.280018370E0
6.348908083E0,-2.025587769E0,-4.390370178E-1,3.444337463E-1,2.101045910E0
6.358987083E0,-2.315534821E0,5.310955811E-1,4.676275635E-1,2.421247521E0
6.369065083E0,-2.850821686E0,1.845212860E0,-1.652563477E-1,3.399897711E0
6.379143083E0,-2.396815796E0,2.114802246E0,-1.134790192E0,3.391881967E0
6.389221083E0,-1.583856354E0,2.060465240E0,-2.242935791E0,3.432911144E0
6.399300083E0,-9.888436890E-1,2.087109833E0,-3.132535858E0,3.891865902E0
6.409378083E0,-6.092330933E-1,2.003284149E0,-3.459156647E0,4.043522852E0
6.419456083E0,-5.373825073E-2,1.673220520E0,-2.642155609E0,3.127865242E0
6.429535083E0,7.044351196E-1,1.173110504E0,-7.752378845E-1,1.572708133E0
6.439613083E0,1.153351593E0,5.530998230E-1,9.671388245E-1,1.603588731E0
6.449691083E0,1.452878723E0,1.477427673E-1,1.488205261E0,2.085051416E0
6.459770083E0,2.546354828E0,-1.008901978E-1,-5.086422729E-1,2.598618614E0
6.469848083E0,4.785249023E0,-9.439370728E-1,-5.003944244E0,6.987781008E0
6.479926083E0,6.188131714E0,-2.726130981E0,-6.204148407E0,9.176939669E0
6.490004083E0,7.904013519E0,-4.580474854E0,-7.089557190E0,1.156356350E1
6.500083083E0,1.016715729E1,-6.792425079E0,-5.876330109E0,1.356611150E1
6.510161083E0,1.263851807E1,-9.614955597E0,-1.328337708E0,1.593562020E1
6.520239083E0,1.886661667E1,-1.319012100E1,6.975494385E-2,2.302028198E1
6.530318083E0,2.637141037E1,-1.709505066E1,-7.177574158E-1,3.143576335E1
6.540396083E0,3.111594406E1,-2.074296478E1,-2.410437469E0,3.747376111E1
6.550474083E0,3.302417587E1,-2.460463440E1,-4.524191895E0,4.143009218E1
6.560552083E0,2.963851639E1,-2.837679016E1,-7.151678009E0,4.165129496E1
6.570631083E0,2.160337555E1,-2.245899628E1,-9.794132996E-1,3.117806279E1
6.580709083E0,1.804766968E1,-1.179008240E1,9.119036865E-1,2.157674656E1
6.590787083E0,1.740026596E1,-4.264931030E0,-6.891219635E0,1.919499415E1
6.600866083E0,1.844165039E1,1.537452850E0,-1.481873428E1,2.370765944E1
6.610944083E0,1.965607498E1,3.491639099E0,-9.980645142E0,2.231963496E1
6.621022083E0,1.851978790E1,3.421884155E0,-1.263672180E0,1.887561132E1
6.631100083E0,1.692530365E1,2.795736237E0,3.677552490E0,1.754441327E1
6.641179083E0,1.592373642E1,2.522554321E0,4.483476562E0,1.673410362E1
6.651257083E0,1.492531265E1,2.615660706E0,2.167043610E0,1.530694995E1
6.661335083E0,1.339908646E1,5.821394348E-1,-9.201365662E-1,1.344325316E1
6.671414083E0,1.262070511E1,-2.610870667E0,-1.703158264E0,1.299998427E1
6.681492083E0,1.136002670E1,-4.729714508E0,-6.858737183E-1,1.232439973E1
6.691570083E0,9.511820068E0,-6.265670471E0,4.140390015E-1,1.139757763E1
6.701649083E0,7.764054565E0,-7.318281555E0,6.891668701E-1,1.069171358E1
6.711727083E0,6.289021912E0,-7.917335815E0,1.651066589E-1,1.011253001E1
6.721805083E0,4.852459259E0,-8.058641968E0,-7.200027466E-1,9.434324310E0
6.731883083E0,3.613934784E0,-7.883955231E0,-1.635798340E0,8.825707389E0
6.741962083E0,2.354004822E0,-7.640261993E0,-2.693199463E0,8.436128577E0
6.752040083E0,1.181343384E0,-7.146289215E0,-3.646267548E0,8.109271778E0
6.762118083E0,3.486250305E-1,-6.249803467E0,-3.984414368E0,7.420049908E0
6.772197083E0,-2.499801636E-1,-5.342390442E0,-3.843856659E0,6.586262956E0
6.782275083E0,2.559677124E-2,-4.504882050E0,-3.135080566E0,5.488474071E0
6.792353083E0,1.448238373E0,-3.604205017E0,-2.117047577E0,4.423751647E0
6.802431083E0,3.208877106E0,-2.801424408E0,-1.123713226E0,4.405406043E0
6.812510083E0,4.616699524E0,-2.407593384E0,-5.456153870E-1,5.235276167E0
6.822588083E0,5.498216400E0,-2.417323151E0,-4.706213379E-1,6.024559672E0
6.832666083E0,6.330485687E0,-2.635569305E0,-9.330097961E-1,6.920388853E0
6.842745083E0,7.204218750E0,-3.036286011E0,-1.447340240E0,7.950760612E0
6.852823083E0,8.029602356E0,-3.590733032E0,-1.625769196E0,8.944886985E0
6.862901083E0,8.776549072E0,-4.261488190E0,-1.595681763E0,9.886065724E0
6.872979083E0,9.390123138E0,-5.095104675E0,-1.588347015E0,1.080080323E1
6.883058083E0,9.558073883E0,-6.041885834E0,-1.605261841E0,1.142094682E1
6.893136083E0,9.384135590E0,-6.958878937E0,-1.682201843E0,1.180329614E1
6.903214083E0,8.988059235E0,-7.590415649E0,-1.758393402E0,1.189502274E1
6.913293083E0,8.580905914E0,-7.598049774E0,-1.694925385E0,1.158598631E1
6.923371083E0,8.407266998E0,-6.868766327E0,-1.195563812E0,1.092206309E1
6.933449083E0,8.481961670E0,-5.583838348E0,-5.498066711E-1,1.016981867E1
6.943527083E0,8.701555023E0,-4.079317017E0,5.688171387E-3,9.610302779E0
6.953606083E0,8.960965576E0,-2.699187012E0,5.101391602E-1,9.372553363E0
6.963684083E0,9.380992126E0,-1.735940094E0,5.563929749E-1,9.556467675E0
6.973762083E0,9.883197784E0,-1.047222290E0,5.239105225E-2,9.938662777E0
6.983841083E0,1.056652679E1,-6.574328613E-1,-6.610253906E-1,1.060757564E1
6.993919083E0,1.115719849E1,-6.737489319E-1,-7.979905701E-1,1.120597183E1
7.003997083E0,1.152258865E1,-1.193168793E0,-2.014810181E-1,1.158595251E1
7.014075083E0,1.169024002E1,-2.332299957E0,8.211923218E-1,1.194887826E1
7.024154083E0,1.135897888E1,-3.717968445E0,1.968256989E0,1.211295695E1
7.034232083E0,1.054003189E1,-4.726121979E0,2.888842621E0,1.190688511E1
7.044310083E0,9.934990082E0,-5.180427246E0,3.889062653E0,1.186025559E1
7.054389083E0,9.418414307E0,-5.234165497E0,4.741390228E0,1.177216198E1
7.064467083E0,8.614136810E0,-5.193300476E0,4.957391052E0,1.121380617E1
7.074545083E0,7.617808685E0,-5.449567566E0,5.211562500E0,1.071863702E1
7.084624083E0,6.604565735E0,-5.999224548E0,5.305866394E0,1.038090564E1
7.094702083E0,5.599256287E0,-6.625073090E0,4.881798248E0,9.953653527E0
7.104780083E0,4.594395905E0,-7.400909729E0,4.559219055E0,9.832009812E0
7.114858083E0,3.654949493E0,-8.405919800E0,4.443659363E0,1.018647397E1
7.124937083E0,3.100801849E0,-9.522148590E0,4.354444885E0,1.092004927E1
7.135015083E0,3.020419006E0,-1.071501801E1,4.490661621E0,1.200419025E1
7.145093083E0,3.360811157E0,-1.194426178E1,4.724924469E0,1.327724943E1
7.155172083E0,3.852837982E0,-1.305300613E1,4.971910858E0,1.448948678E1
7.165250083E0,4.276157684E0,-1.394335464E1,5.136418762E0,1.546238859E1
7.175328083E0,4.584965515E0,-1.485585709E1,5.268893280E0,1.641583488E1
7.185403250E0,4.839735718E0,-1.513712219E1,5.059778137E0,1.667803540E1
7.195482250E0,5.172044678E0,-1.455603058E1,4.277953949E0,1.602900379E1
7.205560250E0,5.366640015E0,-1.388018600E1,3.362158356E0,1.525662143E1
7.215638250E0,5.241350555E0,-1.340327774E1,1.897154846E0,1.451615673E1
7.225717250E0,5.062771912E0,-1.312156357E1,-3.344046021E-1,1.406836580E1
7.235795250E0,5.774392090E0,-1.265573227E1,-2.375859375E0,1.411225960E1
7.245873250E0,7.811655579E0,-1.130344437E1,-3.322191467E0,1.413600982E1
7.255951250E0,9.784552917E0,-9.540111237E0,-4.291276245E0,1.432362559E1
7.266030250E0,1.106274490E1,-7.836653595E0,-5.360802155E0,1.457860295E1
7.276108250E0,1.161359940E1,-6.457571411E0,-5.770051117E0,1.448687024E1
7.286186250E0,1.170071823E1,-5.499713287E0,-4.709057465E0,1.375968298E1
7.296265250E0,1.158441010E1,-5.099745026E0,-2.213147736E0,1.284927934E1
7.306343250E0,1.096933914E1,-5.256169739E0,3.897894287E-1,1.216986678E1
7.316421250E0,1.005459137E1,-5.730084229E0,2.096839600E0,1.176118230E1
7.326499250E0,9.199419708E0,-5.950426025E0,3.038980408E0,1.136979748E1
7.336578250E0,8.212072906E0,-6.000422058E0,3.513793030E0,1.076057377E1
7.346656250E0,7.419620819E0,-6.118376770E0,3.983216858E0,1.040919420E1
7.356734250E0,7.125332794E0,-6.185287628E0,4.484674072E0,1.044703077E1
7.366813250E0,6.949747925E0,-6.174510040E0,4.728816376E0,1.043001797E1
7.376891250E0,6.657854919E0,-6.110892334E0,4.568350067E0,1.012619670E1
7.386969250E0,6.035898285E0,-5.936355286E0,4.322112122E0,9.505421368E0
7.397048250E0,5.306016083E0,-5.575006714E0,4.190835114E0,8.763424301E0
7.407126250E0,4.685855713E0,-5.193749542E0,4.277654572E0,8.199427218E0
7.417204250E0,4.380640411E0,-4.991220703E0,4.433779907E0,7.985029667E0
7.427282250E0,4.353995819E0,-4.936584320E0,4.652026062E0,8.060303395E0
7.437361250E0,4.332740021E0,-5.170098724E0,4.647086334E0,8.191334953E0
7.447439250E0,4.155209198E0,-5.575904846E0,4.162843323E0,8.104674137E0
7.457517250E0,3.711531830E0,-6.012097778E0,3.638783112E0,7.947422900E0
7.467596250E0,3.580853577E0,-6.538852386E0,3.539988556E0,8.252915960E0
7.477674250E0,3.622766418E0,-7.287445679E0,3.442690887E0,8.836482422E0
7.487752250E0,3.337759094E0,-7.964787140E0,2.822829895E0,9.085529075E0
7.497830250E0,3.262615356E0,-8.737779694E0,1.560804291E0,9.456720519E0
7.507909250E0,3.374881897E0,-9.520951080E0,3.966751099E-2,1.010148062E1
7.517987250E0,2.689008179E0,-1.079689774E1,-5.433101807E0,1.238234069E1
7.528065250E0,1.570234680E0,-1.192046127E1,-1.117516113E1,1.641484877E1
7.538144250E0,1.658101959E0,-1.107681564E1,-8.195307770E0,1.387833622E1
7.548222250E0,2.456391907E0,-1.044961990E1,-6.474336548E0,1.253576687E1
7.558300250E0,3.862268372E0,-9.915380859E0,-5.195396118E0,1.184162300E1
7.568378250E0,5.349575500E0,-9.064849548E0,-2.961441650E0,1.093433089E1
7.578457250E0,6.886279907E0,-8.037535858E0,-9.642947388E-1,1.062792068E1
7.588535250E0,8.347092133E0,-7.460934906E0,4.673281860E-1,1.120526182E1
7.598613250E0,1.024110352E1,-7.456294556E0,1.416953430E0,1.274693244E1
7.608692250E0,1.280272659E1,-8.006999359E0,1.312171326E0,1.515729661E1
7.618770250E0,1.569321579E1,-8.422086182E0,-1.788780212E-1,1.781124799E1
7.628848250E0,1.807431427E1,-8.117469635E0,-2.102527771E0,1.992472767E1
7.638926250E0,1.818238953E1,-6.846013641E0,-2.762056274E0,1.962386676E1
7.649005250E0,1.540237061E1,-4.699327698E0,-2.394271088E0,1.628033277E1
7.659083250E0,1.257325378E1,-2.694995728E0,-1.665586395E0,1.296625970E1
7.669161250E0,1.082997894E1,-1.614841919E0,-1.938468933E-1,1.095142616E1
7.679240250E0,9.621691589E0,-1.553020477E0,1.408720551E0,9.847502995E0
7.689318250E0,9.137448578E0,-1.947300568E0,2.231559448E0,9.605456969E0
7.699396250E0,9.356443176E0,-2.532733154E0,2.005230103E0,9.898419768E0
7.709474250E0,9.604776764E0,-3.227288818E0,1.550326080E0,1.025039710E1
7.719553250E0,9.391170959E0,-3.973636780E0,1.175355835E0,1.026476218E1
7.729631250E0,8.534951477E0,-4.630770264E0,9.565109253E-1,9.757271294E0
7.739709250E0,7.626790009E0,-4.516258392E0,8.756790161E-1,8.906813652E0
7.749788250E0,7.008575592E0,-3.861220551E0,6.872209167E-1,8.031278140E0
7.759866250E0,6.875801697E0,-3.161725159E0,5.050497437E-1,7.584736660E0
7.769944250E0,7.091503143E0,-2.644850006E0,2.716850281E-1,7.573536898E0
7.780022250E0,7.275769958E0,-2.358645172E0,7.634124756E-3,7.648535403E0
7.790101250E0,7.503895569E0,-2.341430969E0,-2.145039368E-1,7.863635268E0
7.800179250E0,7.663463745E0,-2.535876617E0,-2.603086853E-1,8.076330070E0
7.810257250E0,7.679181061E0,-2.871927795E0,-1.008901978E-1,8.199266422E0
7.820336250E0,7.699239349E0,-3.198997650E0,-9.969268799E-2,8.337974044E0
7.830414250E0,7.500003662E0,-3.436553650E0,-3.475772095E-1,8.257164516E0
7.840492250E0,7.109465790E0,-3.603007507E0,-8.872050476E-1,8.019557326E0
7.850570250E0,6.627617798E0,-3.939358063E0,-1.741777954E0,7.904280490E0
7.860649250E0,6.352639618E0,-4.378245392E0,-2.598596191E0,8.141115709E0
7.870727250E0,6.162984009E0,-4.648882599E0,-3.448977814E0,8.455171747E0
7.880805250E0,6.019282837E0,-4.756808167E0,-4.141288147E0,8.718328815E0
7.890884250E0,5.973627777E0,-4.689897308E0,-4.477039948E0,8.816079189E0
7.900962250E0,6.010750580E0,-4.475842438E0,-4.589755554E0,8.787954489E0
7.911040250E0,6.032754822E0,-4.168980560E0,-4.729714508E0,8.726094715E0
7.921118250E0,5.773793335E0,-3.940555573E0,-4.680616608E0,8.412659480E0
7.931197250E0,5.190905457E0,-4.136348419E0,-4.750221863E0,8.162076050E0
7.941275250E0,4.850662994E0,-5.108127594E0,-6.394851837E0,9.513991225E0
7.951353250E0,5.047952728E0,-5.993686066E0,-6.323150940E0,1.006917758E1
7.961432250E0,5.948330383E0,-5.450166321E0,-1.435514832E0,8.194366974E0
7.971510250E0,6.525081024E0,-4.065246277E0,3.213367767E0,8.332385137E0
7.981588250E0,6.115382996E0,-2.605481873E0,4.718936920E0,8.151982006E0
7.991666250E0,5.508544922E0,-1.809886322E0,3.491639099E0,6.768404484E0
8.001745250E0,5.600004730E0,-1.547332306E0,1.748214569E0,6.067169391E0
8.011823250E0,6.337820435E0,-2.245929565E0,-1.148561554E0,6.821389970E0
8.021901250E0,6.771917725E0,-5.044060822E0,-6.370302887E0,1.057743722E1
8.031980250E0,7.675738220E0,-7.332052917E0,-9.468560028E0,1.422426048E1
8.042058250E0,9.100475464E0,-8.178542633E0,-5.946384430E0,1.360392227E1
8.052136250E0,1.047431854E1,-9.325607300E0,-2.089654541E-1,1.402576083E1
8.062214250E0,1.141062149E1,-1.124386826E1,1.902843018E0,1.613219352E1
8.072293250E0,1.233360214E1,-1.398766251E1,-6.283932495E-1,1.865924227E1
8.082371250E0,1.411489792E1,-1.629167130E1,-4.108656006E0,2.194379072E1
8.092449250E0,1.651979691E1,-1.672561890E1,-2.976111145E0,2.369614430E1
8.102528250E0,1.795785645E1,-1.537452850E1,1.307381287E0,2.367635911E1
8.112606250E0,1.797177750E1,-1.379216904E1,2.338886261E0,2.277452748E1
8.122684250E0,1.740176285E1,-1.272713379E1,2.591261444E0,2.171441734E1
8.132762250E0,1.754112305E1,-1.236937775E1,3.038082275E0,2.167769470E1
8.142841250E0,1.831920502E1,-1.263507523E1,2.634222107E0,2.240931781E1
8.152919250E0,1.918440582E1,-1.283296371E1,1.661993866E0,2.314062679E1
8.162997250E0,1.981324814E1,-1.197285233E1,-2.544708252E-3,2.314981644E1
8.173076250E0,1.965427872E1,-1.024664200E1,-1.892963562E0,2.224562103E1
8.183154333E0,1.851694382E1,-8.426427155E0,-2.839145966E0,2.054124224E1
8.193232333E0,1.701706284E1,-6.932982788E0,-3.052602081E0,1.862699808E1
8.203310333E0,1.544578033E1,-5.474116516E0,-3.018473053E0,1.666281073E1
8.213389333E0,1.348934875E1,-4.013304291E0,-2.649490356E0,1.432092666E1
8.223467333E0,1.124790985E1,-2.473456421E0,-2.512824554E0,1.178761002E1
8.233545333E0,8.919801178E0,-1.019978943E0,-3.384012909E0,9.594516844E0
8.243624333E0,6.488407288E0,-2.658471680E-1,-4.641248474E0,7.981935307E0
8.253702333E0,4.158053284E0,-5.156776428E-1,-6.286926270E0,7.555181828E0
8.263780333E0,2.119592285E0,-1.387015686E0,-8.180488586E0,8.563695317E0
8.273858333E0,8.396040344E-1,-1.833986206E0,-9.748627625E0,9.955108282E0
8.283937333E0,9.879455566E-2,-1.561552734E0,-7.840096436E0,7.994705712E0
8.294015333E0,-2.122586060E-1,-1.250499573E0,-2.985092468E0,3.243390193E0
8.304093333E0,-7.592211914E-1,-1.034947815E0,3.691323853E-1,1.335586955E0
8.314172333E0,-6.650669861E-1,-3.547622681E-1,1.006357269E0,1.257348526E0
8.324250333E0,-2.092648315E-1,-1.272354126E-2,1.550924835E0,1.565030831E0
8.334328333E0,-1.904040527E-1,5.023553467E-1,1.462309113E0,1.557871156E0
8.344406333E0,-6.282435608E-1,1.369801483E0,1.370998993E0,2.037322830E0
8.354485333E0,-7.438032532E-1,2.058668976E0,1.190025330E0,2.491489819E0
8.364563333E0,-8.617579651E-1,2.608176270E0,1.166673889E0,2.984348875E0
8.374641333E0,-1.007255402E0,3.081042938E0,9.738748169E-1,3.384644913E0
8.384720333E0,-1.074016571E0,3.380570068E0,8.632548523E-1,3.650612897E0
8.394798333E0,-9.178912354E-1,3.448528748E0,1.288520508E0,3.794095405E0
8.404876333E0,-4.340972900E-3,3.238814850E0,2.003583527E0,3.808449478E0
8.414954333E0,1.046024780E0,2.993624725E0,2.308349762E0,3.922299767E0
8.425033333E0,1.736089783E0,2.721790009E0,2.005379791E0,3.800486376E0
8.435111333E0,1.821562042E0,2.342628479E0,1.536105652E0,3.341499220E0
8.445189333E0,1.406175842E0,1.829645233E0,1.352587280E0,2.674775604E0
8.455268333E0,9.518705750E-1,1.234333191E0,1.057251434E0,1.883458684E0
8.465346333E0,7.587721252E-1,6.412664795E-1,4.480183411E-1,1.089806529E0
8.475424333E0,6.821315002E-1,8.741821289E-2,-2.472857666E-1,7.308184302E-1
8.485502333E0,2.755769348E-1,-5.204676819E-1,-1.190474396E0,1.328178656E0
8.495581333E0,2.160008240E-1,-1.818717957E0,-5.396128693E0,5.698473149E0
8.505659333E0,2.054777069E0,-3.652404785E0,-1.331541046E1,1.395930963E1
8.515737333E0,5.121599579E0,-4.813689880E0,-1.574949875E1,1.724671283E1
8.525816333E0,7.655380554E0,-7.328759766E0,-1.489283020E1,1.827872978E1
8.535894333E0,8.734785919E0,-8.967851257E0,-6.058052216E0,1.390751012E1
8.545972333E0,1.051832703E1,-1.027598099E1,1.206042023E0,1.475416979E1
8.556050333E0,1.640318939E1,-1.245425125E1,3.576811981E0,2.090374561E1
8.566129333E0,2.632470749E1,-1.585622681E1,5.180726624E0,3.116488539E1
8.576207333E0,3.706202911E1,-2.021231827E1,5.668861542E0,4.259422265E1
8.586285333E0,4.235996201E1,-2.182626205E1,-2.594105530E-1,4.765311522E1
8.596364333E0,3.214011429E1,-1.665840866E1,-9.608968048E0,3.745426268E1
8.606442333E0,2.191727280E1,-1.056532928E1,-1.468835541E1,2.842078138E1
8.616520333E0,1.773631714E1,-7.337441711E0,-1.520523056E1,2.448701764E1
8.626598333E0,1.727213242E1,-5.447771301E0,-1.195878159E1,2.170293131E1
8.636677333E0,1.741927643E1,-4.130061493E0,-5.136418762E0,1.862448380E1
8.646755333E0,1.590921661E1,-2.230511627E0,1.710942078E-1,1.606572839E1
8.656833333E0,1.427745987E1,-3.951782227E-1,1.081351318E0,1.432380350E1
8.666912333E0,1.332693649E1,6.682104492E-1,1.999841309E-1,1.334517647E1
8.676990333E0,1.312500641E1,1.171613617E0,-7.367678833E-1,1.319777628E1
8.687068333E0,1.254840546E1,1.054107971E0,-9.102571106E-1,1.262545806E1
8.697146333E0,1.128533203E1,6.382727051E-1,-4.962181091E-1,1.131425400E1
8.707225333E0,9.916428680E0,3.817062378E-2,-3.847000122E-1,9.923961350E0
8.717303333E0,8.569230194E0,-6.866221619E-1,-9.997709656E-1,8.654634487E0
8.727381333E0,7.599396973E0,-1.647174683E0,-1.791624298E0,7.979595003E0
8.737459333E0,6.979685669E0,-2.813399506E0,-2.555036774E0,7.947291471E0
8.747538333E0,6.380631409E0,-3.941753082E0,-3.206631775E0,8.156737208E0
8.757616333E0,5.307812347E0,-4.772525482E0,-3.363505554E0,7.890693316E0
8.767694333E0,4.136049042E0,-5.376220093E0,-3.303181000E0,7.544643721E0
8.777773333E0,3.081042938E0,-5.673352203E0,-3.023263092E0,7.128805688E0
8.787851333E0,2.383194122E0,-5.643564148E0,-2.536475372E0,6.630470408E0
8.797929333E0,2.071542206E0,-5.587730255E0,-2.174378357E0,6.343653344E0
8.808007333E0,1.813478851E0,-5.688021698E0,-2.191143494E0,6.359513047E0
8.818086333E0,1.676064606E0,-5.762416992E0,-2.551893311E0,6.521257672E0
8.828164333E0,2.062560883E0,-5.835614777E0,-2.737806702E0,6.767875793E0
8.838242333E0,3.103196869E0,-6.092779999E0,-2.266137543E0,7.203275525E0
8.848321333E0,4.395908661E0,-6.289770355E0,-1.564845886E0,7.831600521E0
8.858399333E0,5.735323334E0,-6.275699615E0,-1.062640228E0,8.567820240E0
8.868477333E0,7.244335327E0,-6.051765289E0,-1.000369720E0,9.492365197E0
8.878555333E0,8.859027557E0,-5.718558197E0,-1.476230164E0,1.064723122E1
8.888634333E0,1.055110886E1,-5.364394684E0,-2.267035675E0,1.205164218E1
8.898712333E0,1.205458237E1,-4.993316345E0,-2.940485229E0,1.337507449E1
8.908790333E0,1.303489380E1,-4.514312439E0,-3.028951263E0,1.412310231E1
8.918869333E0,1.335298233E1,-3.943848724E0,-2.530487823E0,1.415130554E1
8.928947333E0,1.263851807E1,-3.282523956E0,-2.090702362E0,1.322414983E1
8.939025333E0,1.101379669E1,-2.682421875E0,-1.819167023E0,1.148078714E1
8.949103333E0,9.596543884E0,-2.552492065E0,-1.214274902E0,1.000416582E1
8.959182333E0,8.482560425E0,-2.803520050E0,-4.793032837E-1,8.946691437E0
8.969260333E0,7.750732269E0,-3.181783447E0,1.712438965E-1,8.380150422E0
8.979338333E0,7.399562531E0,-3.621718597E0,6.921606445E-1,8.267373077E0
8.989417333E0,7.168143768E0,-4.007167053E0,1.098266144E0,8.285279802E0
8.999495333E0,7.004683685E0,-4.287084961E0,1.451381836E0,8.339736220E0
9.009573333E0,7.050937500E0,-4.418212280E0,1.469793549E0,8.449651618E0
9.019651333E0,7.293283539E0,-4.580325165E0,9.958790588E-1,8.669667727E0
9.029730333E0,7.521708527E0,-4.826114044E0,2.302212524E-1,8.939825376E0
9.039808333E0,7.853568420E0,-5.195246429E0,-4.318519592E-1,9.426325822E0
9.049886333E0,8.150850220E0,-5.433700562E0,-8.496331787E-1,9.832768564E0
9.059964333E0,8.436156921E0,-5.449118500E0,-1.024020538E0,1.009506088E1
9.070043333E0,8.652008057E0,-5.272336121E0,-1.105301514E0,1.019198033E1
9.080121333E0,8.756490784E0,-5.025948486E0,-9.816586304E-1,1.014396090E1
9.090199333E0,9.009165344E0,-4.681215363E0,-6.749464417E-1,1.017518502E1
9.100278333E0,9.387279053E0,-4.218078461E0,-3.370989990E-1,1.029693302E1
9.110356333E0,9.602082367E0,-3.768563232E0,-6.960525513E-2,1.031537200E1
9.120434333E0,9.726324005E0,-3.440295868E0,3.427871704E-2,1.031688855E1
9.130512333E0,9.756561127E0,-3.261268158E0,-1.287322998E-2,1.028720179E1
9.140591333E0,9.646539917E0,-3.280278625E0,-9.190887451E-2,1.018942626E1
9.150669333E0,9.544601898E0,-3.414399719E0,-3.502716064E-2,1.013700043E1
9.160747333E0,9.414672089E0,-3.616329803E0,8.801696777E-2,1.008571459E1
9.170826333E0,9.210496674E0,-3.843407593E0,1.706451416E-1,9.981690772E0
9.180904750E0,9.017547913E0,-4.056863708E0,2.308200073E-1,9.890783153E0
9.190982750E0,8.885223083E0,-4.318220215E0,2.796185303E-1,9.882934867E0
9.201060750E0,8.775501251E0,-4.605173492E0,2.897973633E-1,9.914687469E0
9.211139750E0,8.678203583E0,-4.819827118E0,2.878514099E-1,9.931002432E0
9.221217750E0,8.488997040E0,-4.928201752E0,2.731819153E-1,9.819616673E0
9.231295750E0,8.230783997E0,-4.935985565E0,2.507286072E-1,9.600657453E0
9.241374750E0,8.063581696E0,-4.856949921E0,1.619631958E-1,9.414751424E0
9.251452750E0,7.984546051E0,-4.746779022E0,1.766326904E-1,9.290645071E0
9.261530750E0,8.019722900E0,-4.614304504E0,3.076103210E-1,9.257558294E0
9.271608750E0,8.187074890E0,-4.498445435E0,4.049079895E-1,9.350302512E0
9.281687750E0,8.404572601E0,-4.423152008E0,4.165837097E-1,9.506558593E0
9.291765750E0,8.566984863E0,-4.404291229E0,3.600013733E-1,9.639533799E0
9.301843750E0,8.626560974E0,-4.397854614E0,2.417472839E-1,9.685923869E0
9.311922750E0,8.731343079E0,-4.453688507E0,1.146615601E-1,9.802287516E0
9.322000750E0,8.799451447E0,-4.628524933E0,2.474354553E-1,9.945592648E0
9.332078750E0,8.772357788E0,-4.742887115E0,1.008901978E-1,9.972934282E0
9.342156750E0,8.838220825E0,-4.852010193E0,-2.375559998E-1,1.008526564E1
9.352235750E0,8.871002655E0,-4.803660736E0,-5.412744141E-1,1.010261464E1
9.362313750E0,8.917705536E0,-4.646936646E0,-6.027964783E-1,1.007386995E1
9.372391750E0,8.818461914E0,-4.569996643E0,-4.649331665E-1,9.943153559E0
9.382469750E0,8.573571167E0,-4.571643219E0,-2.068698120E-1,9.718479274E0
9.392548750E0,8.480165405E0,-4.558320923E0,-2.844085693E-3,9.627642652E0
9.402626750E0,8.427924042E0,-4.583318939E0,2.104623413E-1,9.595885084E0
9.412704750E0,8.349038086E0,-4.663701782E0,2.294728088E-1,9.566044587E0
9.422783750E0,8.380921783E0,-4.779860229E0,2.592608643E-1,9.651638718E0
9.432861750E0,8.352181549E0,-4.875361633E0,2.216889954E-1,9.673532638E0
9.442939750E0,8.290509796E0,-4.945865021E0,2.140548706E-1,9.656083728E0
9.453017750E0,8.291557617E0,-4.953798523E0,1.944456482E-1,9.660634381E0
9.463096750E0,8.398884430E0,-4.930447083E0,1.969903564E-1,9.741117662E0
9.473174750E0,8.586743774E0,-4.883893890E0,1.887574768E-1,9.880294407E0
9.483252750E0,8.713829498E0,-4.886139221E0,2.547702026E-1,9.993502333E0
9.493331750E0,8.944050751E0,-4.892725525E0,2.953358459E-1,1.019911909E1
9.503409750E0,9.219477997E0,-4.815935211E0,5.002597046E-1,1.041356165E1
9.513487750E0,9.515562286E0,-4.812342682E0,6.846762085E-1,1.068519299E1
9.523565750E0,9.577533417E0,-4.841082916E0,7.711962891E-1,1.075918091E1
9.533644750E0,9.572444000E0,-4.850064240E0,7.117698669E-1,1.075460011E1
9.543722750E0,9.397607574E0,-4.874313812E0,4.656816101E-1,1.059673641E1
9.553800750E0,9.229507141E0,-4.951104126E0,1.853146362E-1,1.047528404E1
9.563879750E0,9.036259003E0,-4.966372375E0,-8.217910767E-2,1.031142981E1
9.573957750E0,8.285270691E0,-4.744084625E0,-3.653901672E-1,9.554347666E0
9.584035750E0,5.750741272E0,-3.512745209E0,-5.960604858E-1,6.765034529E0
9.594113750E0,7.840096436E0,-3.339405670E0,4.266128540E-1,8.532335019E0
9.604192750E0,1.025966492E1,-4.668641510E0,1.613494720E0,1.138684781E1
9.614270750E0,8.855135651E0,-4.993166656E0,1.154399414E0,1.023121589E1
9.624348750E0,9.958491211E0,-5.710025940E0,1.410367126E0,1.156568540E1
9.634427750E0,9.937834167E0,-5.848488007E0,1.355131989E0,1.161041526E1
9.644505750E0,9.774374084E0,-6.077811127E0,7.288343811E-1,1.153296911E1
9.654583750E0,1.048524582E1,-6.709796906E0,8.732839966E-1,1.247895746E1
9.664661750E0,1.076067307E1,-6.894363098E0,6.831793213E-1,1.279808819E1
9.674740750E0,1.156554932E1,-7.441026306E0,4.038601685E-1,1.375841221E1
9.684818750E0,1.248598526E1,-8.161178741E0,2.161505127E-1,1.491815630E1
9.694896750E0,1.137035522E1,-8.262817383E0,-1.676513672E-1,1.405657270E1
9.704975750E0,8.524922333E0,-7.497458954E0,-9.610015869E-2,1.135321218E1
9.715053750E0,5.224286041E0,-6.262976074E0,-1.109343109E0,8.230958394E0
9.725131750E0,3.288661194E0,-4.596042480E0,-1.788331146E0,5.927649384E0
9.735209750E0,3.487597504E0,-3.280428314E0,-1.614692230E0,5.052897908E0
9.745288750E0,3.106639709E0,-2.447709961E0,-1.220262451E0,4.139025826E0
9.755366750E0,3.000510406E0,-1.821562042E0,-1.181493073E0,3.703657227E0
9.765444750E0,3.372786255E0,-1.462309113E0,-6.682104492E-1,3.736380637E0
9.775523750E0,4.686604156E0,-1.483415222E0,1.658551025E-1,4.918565559E0
9.785601750E0,4.970563660E0,-1.435664520E0,7.631130981E-1,5.229720577E0
9.795679750E0,4.755311279E0,-1.410965881E0,1.907782745E0,5.314456236E0
9.805757750E0,4.975204010E0,-1.668580170E0,3.442541199E0,6.275978380E0
9.815836750E0,5.276377716E0,-1.955683136E0,4.843927002E0,7.424856034E0
9.825914750E0,6.485413513E0,-2.504142609E0,6.161187744E0,9.289324683E0
9.835992750E0,9.106463013E0,-3.588188324E0,6.834936676E0,1.193813735E1
9.846070750E0,1.175146271E1,-4.942721558E0,6.359824677E0,1.424692044E1
9.856149750E0,1.359877121E1,-6.103108521E0,5.358856201E0,1.583956602E1
9.866227750E0,1.404394547E1,-6.917864227E0,4.255350952E0,1.622335543E1
9.876305750E0,1.371313339E1,-7.285050659E0,2.776276703E0,1.577433684E1
9.886384750E0,1.267848495E1,-6.947352905E0,9.306147766E-1,1.448708863E1
9.896462750E0,1.149684219E1,-6.192772064E0,-5.303471375E-1,1.306939457E1
9.906540750E0,1.048794022E1,-5.390141144E0,-4.743635559E-1,1.180150551E1
9.916618750E0,9.557175751E0,-4.642445984E0,4.833448792E-1,1.063604886E1
9.926697750E0,9.362281036E0,-4.107458496E0,1.221310272E0,1.029636442E1
9.936775750E0,9.763297119E0,-4.028273163E0,1.182840271E0,1.062770278E1
9.946853750E0,9.495953064E0,-3.936513977E0,5.005590820E-1,1.029173582E1
9.956932750E0,8.777297516E0,-3.803740082E0,-4.549040222E-1,9.576864203E0
9.967010750E0,7.659422150E0,-3.711681519E0,-9.650431824E-1,8.565899585E0
9.977088750E0,6.187532959E0,-3.582799530E0,-3.924838257E-1,7.160730420E0
9.987166750E0,4.944517822E0,-3.460354156E0,1.305734711E0,6.174726757E0
9.997245750E0,5.692362671E0,-3.469784546E0,2.104922791E0,6.990929661E0