"Time (s)","Acceleration x (m/s^2)","Acceleration y (m/s^2)","Acceleration z (m/s^2)","Absolute acceleration (m/s^2)"
-1.584916667E-3,-2.198777618E0,1.572659637E1,4.849764862E0,1.660363441E1
8.423083334E-3,-1.510059814E0,1.564112411E1,3.923491058E0,1.619625964E1
1.843108333E-2,-6.316864014E-1,1.525193344E1,2.826721802E0,1.552452439E1
2.844008333E-2,4.071533203E-1,1.457534042E1,1.978884888E0,1.471469700E1
3.844808333E-2,1.735640717E0,1.413630341E1,-4.905299377E-1,1.425089970E1
4.845608333E-2,3.081641693E0,1.357856323E1,-3.241958313E0,1.429629982E1
5.846408333E-2,3.849395142E0,1.200234100E1,-3.986210632E0,1.321983009E1
6.847308333E-2,4.270619202E0,9.547745361E0,-2.532733154E0,1.076161545E1
7.848108333E-2,4.163292389E0,7.038962402E0,-2.188449097E-1,8.180946664E0
8.848908333E-2,3.449127502E0,5.184917908E0,1.816472626E0,6.486865733E0
9.849708333E-2,2.397564240E0,4.650978241E0,2.999312897E0,6.031234594E0
1.085050833E-1,1.792971497E0,4.419409790E0,4.036056976E0,6.247854479E0
1.185140833E-1,1.747017059E0,3.897894287E0,4.963079224E0,6.548114527E0
1.285220833E-1,1.685045929E0,3.591331787E0,5.580096130E0,6.846496667E0
1.385300833E-1,1.531914368E0,3.899241486E0,6.012995911E0,7.328503641E0
1.485380833E-1,1.177451477E0,4.678820343E0,5.978118439E0,7.682164529E0
1.585460833E-1,4.170327759E-1,5.779331818E0,4.961432648E0,7.628263663E0
1.685550833E-1,-5.866300964E-1,6.957980804E0,3.442241821E0,7.785027970E0
1.785630833E-1,-1.541344757E0,8.270750885E0,2.500101013E0,8.776763010E0
1.885710833E-1,-2.476899261E0,9.458081818E0,2.241139526E0,1.003060556E1
1.985790833E-1,-3.342399445E0,1.034049683E1,2.438728638E0,1.113754488E1
2.085880833E-1,-4.117787018E0,1.089733887E1,3.060385895E0,1.204467211E1
2.185960833E-1,-4.468657379E0,1.092907288E1,3.416495361E0,1.229170343E1
2.286040833E-1,-3.834575958E0,1.025861710E1,3.128793640E0,1.139001963E1
2.386120833E-1,-2.836900635E0,9.386231232E0,2.496059418E0,1.011828318E1
2.486200833E-1,-2.240840149E0,8.737929382E0,1.833537140E0,9.205141656E0
2.586290833E-1,-1.745669861E0,8.176446991E0,1.557660828E0,8.504584406E0
2.686370833E-1,-1.275497589E0,7.745343475E0,1.901046753E0,8.076584576E0
2.786450833E-1,-7.662565613E-1,7.673642578E0,2.774031372E0,8.195559138E0
2.886530833E-1,-3.388952637E-1,7.707322540E0,3.707639923E0,8.559454687E0
2.986610833E-1,1.139131165E-1,7.836653595E0,4.608466644E0,9.091978914E0
3.086700833E-1,6.442602539E-1,8.161627808E0,5.314997406E0,9.760964971E0
3.186780833E-1,1.201850739E0,8.744515686E0,5.763764191E0,1.054191526E1
3.286860833E-1,1.738484802E0,9.591454468E0,5.962850189E0,1.142689418E1
3.386940833E-1,2.122286682E0,1.054841446E1,5.632786560E0,1.214501679E1
3.487020833E-1,2.456242218E0,1.129820526E1,4.995411987E0,1.259510655E1
3.587110833E-1,2.692001953E0,1.168544998E1,4.335883484E0,1.275133332E1
3.687190833E-1,2.836301880E0,1.165641037E1,3.850742340E0,1.259939394E1
3.787270833E-1,2.901266785E0,1.134131561E1,3.618575134E0,1.225303533E1
3.887350833E-1,2.835852814E0,1.084165466E1,3.519630890E0,1.174612015E1
3.987440833E-1,2.636168060E0,1.027942383E1,3.396287384E0,1.114229349E1
4.087520833E-1,2.411485291E0,9.892179108E0,3.420686646E0,1.074111567E1
4.187600833E-1,2.252964935E0,9.837093658E0,3.572920074E0,1.070560697E1
4.287680833E-1,2.054328003E0,1.032837204E1,3.570075989E0,1.111939635E1
4.387760833E-1,1.779948578E0,1.157857224E1,3.230731659E0,1.215192079E1
4.487850833E-1,1.538800049E0,1.327978455E1,2.676284637E0,1.363389462E1
4.587930833E-1,1.156944122E0,1.524609558E1,2.147434387E0,1.543999432E1
4.688010833E-1,5.295986938E-1,1.658281586E1,1.584455109E0,1.666675597E1
4.788090833E-1,-3.031196594E-1,1.639091492E1,7.226971436E-1,1.640963938E1
4.888170833E-1,-1.328038330E0,1.485151611E1,-4.327500916E-1,1.491705364E1
4.988260833E-1,-2.882406006E0,1.293639862E1,-2.479743347E0,1.348361230E1
5.088340833E-1,-3.931274872E0,1.088326813E1,-2.733765106E0,1.189007649E1
5.188420833E-1,-3.664828949E0,8.759484558E0,-2.753074951E0,9.886301767E0
5.288500833E-1,-3.754791870E0,7.194638672E0,-2.142943726E0,8.393658047E0
5.388580833E-1,-3.649261322E0,6.398743744E0,-1.280137939E0,7.476615734E0
5.488670833E-1,-3.527714081E0,6.490203552E0,-5.477110291E-1,7.407259693E0
5.588750833E-1,-3.225342865E0,7.636220398E0,1.164578247E-1,8.290250960E0
5.688830833E-1,-2.721640320E0,9.303603058E0,6.635700989E-1,9.716207139E0
5.788910833E-1,-2.393223267E0,1.041189835E1,1.121168518E0,1.074207446E1
5.888990833E-1,-2.274071045E0,1.115091156E1,1.584904175E0,1.149026323E1
5.989080833E-1,-2.180515594E0,1.177810730E1,1.879192200E0,1.212476075E1
6.089160833E-1,-2.026635590E0,1.192989166E1,1.822460175E0,1.223727617E1
6.189240833E-1,-1.912123718E0,1.134191437E1,1.595083008E0,1.161204239E1
6.289320833E-1,-1.785487061E0,9.954898682E0,1.257684631E0,1.019165062E1
6.389410833E-1,-1.625170441E0,8.368647308E0,4.875361633E-1,8.538918447E0
6.489490833E-1,-1.515747986E0,7.236252136E0,-4.340972900E-3,7.393298031E0
6.589570833E-1,-1.433568878E0,6.503076782E0,-1.686991882E-1,6.661350222E0
6.689650833E-1,-1.421444092E0,6.112239532E0,-2.863545227E-1,6.281876656E0
6.789730833E-1,-1.512903900E0,6.069578247E0,-3.519181824E-1,6.265181938E0
6.889820833E-1,-1.711540833E0,6.317462769E0,-3.848497009E-1,6.556509525E0
6.989899583E-1,-2.014810181E0,6.878945160E0,-2.808160400E-1,7.173437407E0
7.089979583E-1,-2.369572449E0,7.523355103E0,-1.366658020E-1,7.888879713E0
7.190059583E-1,-2.686762848E0,8.131390686E0,3.847000122E-2,8.563859471E0
7.290139583E-1,-2.982547760E0,8.691226501E0,3.201841736E-1,9.194320374E0
7.390229583E-1,-3.144960022E0,9.111103363E0,7.361691284E-1,9.666691420E0
7.490309583E-1,-3.112627258E0,9.363179169E0,1.315314789E0,9.954276749E0
7.590389583E-1,-2.840642853E0,9.382339325E0,1.916764069E0,9.988569844E0
7.690469583E-1,-2.294129333E0,9.174122314E0,2.280807037E0,9.727776230E0
7.790549583E-1,-1.720522156E0,9.002728729E0,2.701582031E0,9.555514980E0
7.890639583E-1,-1.340013428E0,8.988208923E0,3.108286285E0,9.604424984E0
7.990719583E-1,-1.002016296E0,9.080716553E0,3.439248047E0,9.761755831E0
8.090799583E-1,-6.234535217E-1,9.199719086E0,3.699856110E0,9.935414475E0
8.190879583E-1,-3.203338623E-1,9.302854614E0,3.818259888E0,1.006105493E1
8.290969583E-1,-2.290237427E-2,9.352551270E0,3.801494751E0,1.009564768E1
8.391049583E-1,2.703378296E-1,9.306447144E0,3.556454315E0,9.966514349E0
8.491129583E-1,6.243516541E-1,9.242080994E0,3.079845428E0,9.761727508E0
8.591209583E-1,1.008452911E0,9.304800568E0,2.567760315E0,9.705136986E0
8.691289583E-1,1.394350433E0,9.394763489E0,1.991309052E0,9.704179815E0
8.791379583E-1,1.841919708E0,9.474098511E0,1.367406464E0,9.747872139E0
8.891459583E-1,2.347119141E0,9.551188202E0,6.502478027E-1,9.856824364E0
8.991539583E-1,2.809507599E0,9.550439758E0,9.969268799E-2,9.955610034E0
9.091619583E-1,3.103496246E0,9.391021271E0,3.953279114E-1,9.898447031E0
9.191699583E-1,3.109633484E0,9.323661346E0,1.220112762E0,9.903996994E0
9.291789583E-1,3.117566986E0,9.481732635E0,1.664688263E0,1.011897548E1
9.391869583E-1,3.097808075E0,9.605674896E0,2.025587769E0,1.029409592E1
9.491949583E-1,2.915187836E0,9.744586029E0,2.526446228E0,1.048037249E1
9.592029583E-1,2.514321442E0,9.920021210E0,2.869682465E0,1.062843876E1
9.692119583E-1,2.129621429E0,1.006611740E1,3.008443909E0,1.071973608E1
9.792199583E-1,1.760339355E0,1.022314087E1,3.086731110E0,1.082309165E1
9.892279583E-1,1.396745453E0,1.049063461E1,3.197051697E0,1.105556204E1
9.992359583E-1,1.038839722E0,1.075782898E1,3.409459991E0,1.133289415E1
1.009243958E0,6.611750793E-1,1.102382584E1,3.680246887E0,1.164070899E1
1.019252958E0,3.420387268E-1,1.125539429E1,3.927832031E0,1.192596979E1
1.029260958E0,4.266128540E-2,1.120749390E1,4.050726471E0,1.191713575E1
1.039268958E0,-6.092330933E-2,1.094224548E1,4.098327484E0,1.168472233E1
1.049276958E0,4.430786133E-2,1.085018692E1,4.026476898E0,1.157328975E1
1.059284958E0,2.405497742E-1,1.087428680E1,3.845203857E0,1.153661867E1
1.069293958E0,4.628375244E-1,1.100526443E1,3.510499878E0,1.156086819E1
1.079301958E0,6.926097107E-1,1.127979355E1,2.933599548E0,1.167559236E1
1.089309958E0,8.181985474E-1,1.131437164E1,1.074016571E0,1.139464638E1
1.099317958E0,7.559280396E-2,1.129356491E1,-2.088457031E0,1.148529388E1
1.109326958E0,-1.048419800E0,1.168799469E1,-2.678080902E0,1.203663247E1
1.119334958E0,-1.395847321E0,1.166539169E1,-3.234473877E0,1.218571189E1
1.129342958E0,-1.734592896E0,1.130179779E1,-4.295766907E0,1.221446107E1
1.139350958E0,-2.564467163E0,1.087578369E1,-5.993985443E0,1.268018234E1
1.149358958E0,-3.990701294E0,1.018646713E1,-8.061336365E0,1.358951631E1
1.159367958E0,-5.342540131E0,9.283095703E0,-1.053569092E1,1.502396033E1
1.169375958E0,-6.681805115E0,1.003123993E1,-5.845344543E0,1.339553459E1
1.179383958E0,-7.002887421E0,1.185115540E1,8.336164856E-1,1.379076622E1
1.189391958E0,-5.172044678E0,1.286110519E1,3.996988220E0,1.442684955E1
1.199399958E0,-2.984344025E0,1.297965866E1,4.203708344E0,1.396599485E1
1.209408958E0,-1.140478363E0,1.232551895E1,3.615581360E0,1.289540759E1
1.219416958E0,3.201841736E-1,1.155177795E1,3.105741577E0,1.196627438E1
1.229424958E0,1.065484314E0,1.135523666E1,2.134860535E0,1.160320154E1
1.239432958E0,1.158740387E0,1.153261780E1,2.082170105E-1,1.159255394E1
1.249440958E0,1.897454224E0,1.144684616E1,-2.161505127E0,1.180265750E1
1.259449958E0,2.939287720E0,1.116842514E1,-3.855831757E0,1.217540845E1
1.269457958E0,3.891757050E0,1.050470535E1,-3.265010376E0,1.166854319E1
1.279465958E0,4.351900177E0,9.234297180E0,5.209167480E-2,1.020852551E1
1.289473958E0,4.636608124E0,8.167615356E0,3.948040009E0,1.018798780E1
1.299482958E0,5.135969696E0,7.437284088E0,6.054459686E0,1.087878033E1
1.309490958E0,5.477110291E0,6.574777679E0,7.667505341E0,1.148986844E1
1.319498958E0,5.252876587E0,5.750890961E0,8.850944366E0,1.179002440E1
1.329506958E0,4.390519867E0,5.262905731E0,8.325387268E0,1.078364106E1
1.339514958E0,2.746338959E0,5.713019714E0,5.823190613E0,8.607585076E0
1.349523958E0,1.070274353E0,6.381978607E0,3.263962555E0,7.247660981E0
1.359531958E0,-7.129673767E-1,6.926845551E0,1.061293030E0,7.043852260E0
1.369539958E0,-2.727478180E0,7.827522583E0,3.595523071E-1,8.296898509E0
1.379547958E0,-4.085753632E0,9.003177795E0,8.918453979E-1,9.927032858E0
1.389556958E0,-5.172643433E0,9.979297943E0,2.309846649E0,1.147510432E1
1.399564958E0,-5.350922699E0,1.041579025E1,3.269800415E0,1.215782279E1
1.409572958E0,-4.674329681E0,1.009246262E1,3.354524231E0,1.161722826E1
1.419580958E0,-2.967878265E0,9.006620636E0,2.700384521E0,9.859999657E0
1.429588958E0,-1.720222778E0,7.978558502E0,2.054328003E0,8.416461592E0
1.439597958E0,-1.215023346E0,7.493716736E0,1.841171265E0,7.811656922E0
1.449605958E0,-8.325686646E-1,7.408394165E0,2.417622528E0,7.837242715E0
1.459613958E0,-4.670288086E-1,7.398963776E0,3.416944427E0,8.163227920E0
1.469621958E0,-6.256988525E-2,7.327861633E0,4.425247650E0,8.560624269E0
1.479629958E0,4.845423889E-1,7.318281555E0,5.347330170E0,9.076671537E0
1.489638958E0,1.125808868E0,7.535779266E0,6.017636261E0,9.709138012E0
1.499646958E0,1.925895081E0,8.011340332E0,6.441405029E0,1.045860146E1
1.509654958E0,2.714305573E0,8.821904755E0,6.722520447E0,1.141865751E1
1.519662958E0,3.443289642E0,9.810000000E0,6.352639618E0,1.218393917E1
1.529671958E0,3.796555023E0,1.063732956E1,5.253625031E0,1.245661215E1
1.539679958E0,3.816763000E0,1.094972992E1,4.060007172E0,1.228608658E1
1.549687958E0,3.676354980E0,1.073103470E1,3.471281433E0,1.186256660E1
1.559695958E0,3.321592712E0,1.039872574E1,3.413501587E0,1.143759014E1
1.569703958E0,2.870281219E0,1.006701553E1,3.672313385E0,1.109365592E1
1.579712958E0,2.451601868E0,9.736502838E0,3.948788452E0,1.078901152E1
1.589720958E0,2.020498352E0,9.560019836E0,4.151916046E0,1.061672264E1
1.599728958E0,1.559906158E0,9.562564545E0,4.313280487E0,1.060567473E1
1.609736958E0,1.181493073E0,9.890682220E0,4.520299988E0,1.093867600E1
1.619745958E0,9.128018188E-1,1.070094727E1,4.524042206E0,1.165377353E1
1.629753958E0,7.490423584E-1,1.208990891E1,4.362677765E0,1.287477841E1
1.639761958E0,5.472619629E-1,1.402268967E1,4.090992737E0,1.461750809E1
1.649769958E0,1.498384094E-1,1.622760452E1,3.446283417E0,1.659019197E1
1.659777958E0,-4.583468628E-1,1.771625885E1,2.435285797E0,1.788872624E1
1.669786958E0,-1.155896301E0,1.774305313E1,1.343007202E0,1.783131232E1
1.679794958E0,-2.089205475E0,1.650857025E1,2.836601257E-1,1.664266007E1
1.689802958E0,-4.112697601E0,1.526016632E1,-1.346599731E0,1.586191314E1
1.699811208E0,-4.788093109E0,1.276994476E1,-1.998643799E0,1.378375500E1
1.709819208E0,-4.417164459E0,1.010847931E1,-2.416125641E0,1.129293403E1
1.719828208E0,-3.861370239E0,7.996670837E0,-2.654280396E0,9.268340144E0
1.729836208E0,-3.426823883E0,6.302493896E0,-2.901715851E0,7.738508003E0
1.739844208E0,-3.293750610E0,5.168751526E0,-3.332819366E0,6.976565799E0
1.749852208E0,-3.118764496E0,4.751569061E0,-2.828218689E0,6.348458197E0
1.759861208E0,-2.740501099E0,5.303770752E0,-1.313069458E0,6.112649333E0
1.769869208E0,-2.162852325E0,6.787185974E0,4.110452271E-1,7.135319321E0
1.779877208E0,-1.792971497E0,8.114326172E0,1.614392853E0,8.465417904E0
1.789885208E0,-1.673669586E0,8.987909546E0,2.374661865E0,9.445777197E0
1.799893208E0,-1.607207794E0,9.762249298E0,2.628533936E0,1.023688521E1
1.809902208E0,-1.521585846E0,1.034274216E1,2.302212524E0,1.070456544E1
1.819910208E0,-1.409319305E0,1.070947952E1,1.788480835E0,1.094887192E1
1.829918208E0,-1.367256775E0,1.069076843E1,1.068927155E0,1.083072140E1
1.839926208E0,-1.473685455E0,1.017449203E1,3.667373657E-1,1.028720240E1
1.849935208E0,-1.465452576E0,9.405391388E0,-2.621049500E-1,9.522480634E0
1.859943208E0,-1.401385803E0,8.775351563E0,-5.387297058E-1,8.902859479E0
1.869951208E0,-1.331481171E0,8.453520813E0,-7.216493225E-1,8.588110036E0
1.879959208E0,-1.285377045E0,8.260122986E0,-6.096821594E-1,8.381738377E0
1.889967208E0,-1.342408447E0,8.223149872E0,-2.610571289E-1,8.336090515E0
1.899976208E0,-1.450633392E0,8.208181000E0,9.954299927E-2,8.335975130E0
1.909984208E0,-1.600621490E0,8.242609406E0,4.742138672E-1,8.409963006E0
1.919992208E0,-1.749262390E0,8.337362366E0,8.270301819E-1,8.558943220E0
1.930000208E0,-1.821861420E0,8.416996765E0,1.176703033E0,8.691929798E0
1.940009208E0,-1.811083832E0,8.494834900E0,1.490151215E0,8.812649730E0
1.950017208E0,-1.694326630E0,8.647966461E0,1.783840485E0,8.991115254E0
1.960025208E0,-1.501677246E0,8.823850708E0,2.142794037E0,9.203637441E0
1.970033208E0,-1.231638794E0,8.987161102E0,2.547552338E0,9.422102828E0
1.980041208E0,-9.797126770E-1,9.086105347E0,2.962190094E0,9.606857835E0
1.990050208E0,-7.635621643E-1,9.262438660E0,3.368594971E0,9.885506015E0
2.000058208E0,-5.282514954E-1,9.483079834E0,3.716321869E0,1.019896568E1
2.010066208E0,-3.124003601E-1,9.634415131E0,3.875890045E0,1.038951744E1
2.020074208E0,-5.239105225E-2,9.640402679E0,3.898792419E0,1.039907164E1
2.030083208E0,2.441423035E-1,9.617350616E0,3.722608795E0,1.031556371E1
2.040091208E0,4.918771362E-1,9.451794891E0,3.257226562E0,1.000939032E1
2.050099208E0,7.250921631E-1,9.169182587E0,2.620450745E0,9.563808345E0
2.060107208E0,9.313632202E-1,8.901688843E0,2.029629364E0,9.177521292E0
2.070115208E0,1.124311981E0,8.687334595E0,1.476230164E0,8.883305426E0
2.080124208E0,1.292562103E0,8.559500427E0,1.038839722E0,8.718655419E0
2.090132208E0,1.422192535E0,8.548872528E0,7.801776123E-1,8.701409668E0
2.100140208E0,1.612446899E0,8.559350739E0,6.920109558E-1,8.737353674E0
2.110148208E0,1.735041962E0,8.673862610E0,6.649172974E-1,8.870647000E0
2.120157208E0,1.840123444E0,8.860674133E0,7.661068726E-1,9.082098883E0
2.130165208E0,1.865869904E0,8.961863708E0,8.590635681E-1,9.194262441E0
2.140173208E0,1.781595154E0,9.034612427E0,1.045276337E0,9.267734654E0
2.150181208E0,1.581760712E0,9.100026398E0,1.224902802E0,9.317340514E0
2.160189208E0,1.346749420E0,9.264234924E0,1.355131989E0,9.459184185E0
2.170198208E0,1.127904510E0,9.516011353E0,1.525777130E0,9.703331206E0
2.180206208E0,9.160949707E-1,9.898615723E0,1.825004883E0,1.010705031E1
2.190214208E0,6.626719666E-1,1.035816010E1,2.101330261E0,1.058991046E1
2.200222208E0,3.550616455E-1,1.088192093E1,2.408940582E0,1.115102088E1
2.210231208E0,-5.538482666E-3,1.139056320E1,2.625091095E0,1.168914300E1
2.220239208E0,-3.436853027E-1,1.189396637E1,2.810405731E0,1.222632144E1
2.230247208E0,-6.203100586E-1,1.220546860E1,2.952909393E0,1.257290428E1
2.240255208E0,-8.451425171E-1,1.241368561E1,3.075803833E0,1.281695851E1
2.250263208E0,-9.159452820E-1,1.255454269E1,3.289259949E0,1.301056221E1
2.260272208E0,-7.937992859E-1,1.248403931E1,3.464545441E0,1.298015523E1
2.270280208E0,-5.051994324E-1,1.247954865E1,3.448977814E0,1.295722998E1
2.280288208E0,4.415817261E-2,1.258448044E1,2.759212189E0,1.288349136E1
2.290296208E0,6.939569092E-1,1.252595215E1,1.889071655E0,1.268659313E1
2.300305208E0,7.403604126E-1,1.290182053E1,2.094145203E0,1.309162139E1
2.310313208E0,4.490661621E-1,1.329295715E1,1.689835968E0,1.340745747E1
2.320321208E0,1.541793823E-1,1.301408707E1,3.823049927E-1,1.302061406E1
2.330329208E0,-1.387614441E-1,1.209275299E1,-1.482816467E0,1.218411566E1
2.340338208E0,-4.302053833E-1,1.081051941E1,-3.165467377E0,1.127264788E1
2.350346208E0,-8.205935669E-1,9.485175476E0,-4.259691925E0,1.043009602E1
2.360354208E0,-1.314117279E0,8.283025360E0,-4.307292938E0,9.428053129E0
2.370362208E0,-1.930385742E0,7.425758057E0,-3.279530182E0,8.344075146E0
2.380370208E0,-2.570454712E0,6.817722473E0,-2.295177155E0,7.639137079E0
2.390379208E0,-3.186423798E0,6.528673553E0,-1.205143890E0,7.364050976E0
2.400387208E0,-3.710034943E0,6.643035736E0,2.254312134E-1,7.612168042E0
2.410395208E0,-3.818858643E0,7.089856567E0,1.149309998E0,8.134535079E0
2.420403208E0,-3.474574585E0,7.683821411E0,1.297501831E0,8.532132853E0
2.430412208E0,-2.577789459E0,8.484207001E0,9.270222473E-1,8.915499828E0
2.440420208E0,-1.860032043E0,9.473499756E0,4.638853455E-1,9.665511184E0
2.450428208E0,-1.349294128E0,1.045396088E1,5.201683044E-1,1.055350500E1
2.460436208E0,-7.063810730E-1,1.140298737E1,8.762777710E-1,1.145840119E1
2.470445208E0,-1.856140137E-1,1.250933670E1,9.756710815E-1,1.254870078E1
2.480453208E0,4.701722717E-1,1.363903748E1,1.703457642E-1,1.364820219E1
2.490461208E0,1.307381287E0,1.434721481E1,-1.321751404E0,1.446716439E1
2.500469208E0,2.162403259E0,1.415321823E1,-2.114053802E0,1.447269144E1
2.510477208E0,2.834655304E0,1.287173309E1,-7.080276489E-1,1.319916992E1
2.520486208E0,3.411405945E0,1.092113937E1,3.539539490E0,1.197653187E1
2.530494208E0,4.151766357E0,9.353599091E0,5.632487183E0,1.168126242E1
2.540502208E0,4.742138672E0,7.697592773E0,6.575226746E0,1.117919588E1
2.550510208E0,4.881199493E0,6.540498962E0,7.382048950E0,1.100449371E1
2.560519208E0,4.441114655E0,5.772895203E0,7.559729462E0,1.049758677E1
2.570527208E0,3.359463959E0,5.653892670E0,6.560856628E0,9.289636167E0
2.580535208E0,1.432820435E0,6.408922577E0,4.182452545E0,7.785895728E0
2.590543208E0,-6.239025879E-1,7.349865875E0,2.189047852E0,7.694264963E0
2.600552208E0,-2.672991486E0,8.365952911E0,1.585203552E0,8.924512418E0
2.610560208E0,-4.540657654E0,9.250463562E0,2.080822906E0,1.051277661E1
2.620568208E0,-5.524860992E0,9.742789764E0,2.535876617E0,1.148375860E1
2.630576208E0,-5.647456055E0,9.707313538E0,2.540367279E0,1.151430249E1
2.640584208E0,-4.567601624E0,9.036109314E0,1.922751617E0,1.030588327E1
2.650593208E0,-2.723586273E0,8.226293335E0,9.874964905E-1,8.721523579E0
2.660601208E0,-1.720821533E0,7.749385071E0,5.318440247E-1,7.955944557E0
2.670609208E0,-1.316961365E0,7.582182770E0,8.446934509E-1,7.741924168E0
2.680617208E0,-1.117276611E0,7.485783234E0,1.676064606E0,7.752061030E0
2.690626208E0,-9.922865295E-1,7.326664124E0,2.618654480E0,7.843595542E0
2.700634000E0,-8.256829834E-1,7.092101898E0,3.451672211E0,7.930555010E0
2.710642000E0,-5.523513794E-1,6.925648041E0,4.308939514E0,8.175368650E0
2.720650000E0,-1.615141296E-1,7.039411469E0,5.052892456E0,8.666667342E0
2.730659000E0,3.692820740E-1,7.448660431E0,5.628146210E0,9.343176185E0
2.740667000E0,1.000968475E0,8.134683838E0,6.011948090E0,1.016457273E1
2.750675000E0,1.724114685E0,9.027427368E0,6.409671021E0,1.120494975E1
2.760683000E0,2.283351746E0,1.000429596E1,6.318510590E0,1.205085926E1
2.770691000E0,2.693798218E0,1.080288528E1,5.827381897E0,1.256651340E1
2.780700000E0,2.844534760E0,1.126093277E1,5.184468842E0,1.271922568E1
2.790708000E0,2.730921021E0,1.137349869E1,4.678071899E0,1.259756956E1
2.800716000E0,2.439177704E0,1.123548569E1,4.452940063E0,1.232941206E1
2.810724000E0,2.070793762E0,1.102816681E1,4.173171844E0,1.197180075E1
2.820733000E0,1.785786438E0,1.069930069E1,3.831432495E0,1.150408377E1
2.830741000E0,1.650018768E0,1.021909927E1,3.547772369E0,1.094254270E1
2.840749000E0,1.602417755E0,9.809401245E0,3.453019409E0,1.052214039E1
2.850757000E0,1.572480011E0,9.730365601E0,3.573369141E0,1.048435382E1
2.860766000E0,1.480571136E0,1.016640884E1,3.705843658E0,1.092159498E1
2.870774000E0,1.349593506E0,1.130613876E1,3.748654633E0,1.198760142E1
2.880782000E0,1.167422333E0,1.302965469E1,3.708987122E0,1.359747630E1
2.890790000E0,7.848179626E-1,1.486453903E1,3.178340607E0,1.522078542E1
2.900798000E0,1.745370483E-1,1.632235748E1,2.305355988E0,1.648528080E1
2.910807000E0,-4.529580688E-1,1.656350601E1,1.249002686E0,1.661670575E1
2.920815000E0,-1.069974976E0,1.524534714E1,3.781137085E-1,1.528752517E1
2.930823000E0,-1.981429596E0,1.351359833E1,-1.334924011E0,1.372317110E1
2.940831000E0,-3.190166016E0,1.205877365E1,-2.871778107E0,1.279993323E1
2.950840000E0,-3.320395203E0,1.027343628E1,-2.633922729E0,1.111332831E1
2.960848000E0,-2.928210754E0,8.718769226E0,-2.031874695E0,9.419122561E0
2.970856000E0,-2.670147400E0,7.497908020E0,-1.215472412E0,8.051439933E0
2.980864000E0,-2.465822296E0,6.566395111E0,-3.510200500E-1,7.022893950E0
2.990873000E0,-2.189347229E0,5.908812561E0,3.689826965E-1,6.312167251E0
3.000881000E0,-1.962718506E0,5.677094421E0,9.166937256E-1,6.076346961E0
3.010889000E0,-1.771266632E0,6.045927429E0,9.556127930E-1,6.372112662E0
3.020897000E0,-1.568139038E0,6.981931000E0,1.129850464E0,7.244513966E0
3.030906000E0,-1.505718842E0,7.982300720E0,1.500629425E0,8.260520727E0
3.040914000E0,-1.564247131E0,9.011710052E0,1.691332855E0,9.301526433E0
3.050922000E0,-1.680255890E0,1.011192215E1,1.708696747E0,1.039201010E1
3.060930000E0,-1.821861420E0,1.104403381E1,1.642234955E0,1.131312501E1
3.070938000E0,-1.995799713E0,1.146900009E1,1.486109619E0,1.173582981E1
3.080947000E0,-2.232906647E0,1.133697464E1,1.243763580E0,1.162152373E1
3.090955000E0,-2.491718445E0,1.080872314E1,9.687854004E-1,1.113443766E1
3.100963000E0,-2.644101562E0,1.010398865E1,7.750881958E-1,1.047294712E1
3.110971000E0,-2.587968292E0,9.537865906E0,6.439608765E-1,9.903693833E0
3.120980000E0,-2.404449921E0,9.023385773E0,4.569996643E-1,9.349423454E0
3.130988000E0,-2.201472015E0,8.663234711E0,3.836521912E-1,8.946804105E0
3.140996000E0,-2.041454773E0,8.367599487E0,4.794529724E-1,8.626362728E0
3.151004000E0,-1.941911774E0,8.193062439E0,6.369255066E-1,8.444108453E0
3.161013000E0,-1.949096832E0,8.217611389E0,8.786727905E-1,8.491182561E0
3.171021000E0,-1.973645782E0,8.374784546E0,1.122964783E0,8.677173720E0
3.181029000E0,-2.055525513E0,8.656648407E0,1.305884399E0,8.992668171E0
3.191037000E0,-2.027683411E0,8.943002930E0,1.531016235E0,9.296924875E0
3.201046000E0,-1.818867645E0,9.173523560E0,1.765728149E0,9.517332079E0
3.211054000E0,-1.477427673E0,9.289382629E0,2.035167847E0,9.623789811E0
3.221062000E0,-1.182241516E0,9.394613800E0,2.351310425E0,9.756286392E0
3.231070000E0,-9.415420532E-1,9.510173492E0,2.633922729E0,9.912994010E0
3.241079000E0,-6.646179199E-1,9.435179443E0,2.879861298E0,9.887260955E0
3.251087000E0,-3.829037476E-1,9.161548462E0,3.036286011E0,9.659172751E0
3.261095000E0,-1.112187195E-1,8.847202148E0,3.027154999E0,9.351418226E0
3.271103000E0,1.989363098E-1,8.692424011E0,2.929108887E0,9.174829138E0
3.281111000E0,5.284011841E-1,8.792565765E0,2.797682190E0,9.242047727E0
3.291120000E0,8.833131409E-1,9.028325500E0,2.534230042E0,9.418769843E0
3.301128000E0,1.322799225E0,9.162296906E0,2.075733490E0,9.487157208E0
3.311136000E0,1.830094299E0,9.294322357E0,1.189576263E0,9.547186230E0
3.321144000E0,2.379152527E0,9.379046173E0,1.047821045E-1,9.676665394E0
3.331153000E0,2.897674255E0,9.400451660E0,-6.505471802E-1,9.858408550E0
3.341161000E0,3.235970764E0,9.343120880E0,-6.774911499E-1,9.910822813E0
3.351169000E0,3.236419830E0,9.098529510E0,2.917433167E-1,9.661406043E0
3.361177000E0,3.241209869E0,8.924291840E0,1.500330048E0,9.612461522E0
3.371186000E0,3.282374268E0,8.908424835E0,2.461181946E0,9.807723000E0
3.381194000E0,3.230282593E0,8.944200439E0,2.801424408E0,9.913698898E0
3.391202000E0,3.025209045E0,8.952133942E0,2.671045532E0,9.819728923E0
3.401210000E0,2.627935181E0,8.977431335E0,2.333347778E0,9.640789830E0
3.411219000E0,2.249971161E0,8.960965576E0,1.988315277E0,9.450643995E0
3.421227000E0,1.925745392E0,8.959019623E0,1.755699005E0,9.330327267E0
3.431235000E0,1.609602814E0,9.030870209E0,1.677411804E0,9.325296151E0
3.441243000E0,1.319805450E0,9.197773132E0,1.708397369E0,9.447726636E0
3.451252000E0,1.001118164E0,9.595795441E0,1.810485077E0,9.816281574E0
3.461260000E0,7.177574158E-1,1.008527756E1,1.976489868E0,1.030216052E1
3.471268000E0,3.978726196E-1,1.071935898E1,2.226619720E0,1.095540026E1
3.481276000E0,1.291813660E-1,1.123922791E1,2.467319183E0,1.150758861E1
3.491285000E0,-1.158590698E-1,1.159339142E1,2.821931763E0,1.193245351E1
3.501293000E0,-2.378553772E-1,1.201326828E1,3.219355316E0,1.243943080E1
3.511301000E0,-2.920426941E-1,1.245020966E1,3.399730225E0,1.290934448E1
3.521309000E0,-4.882846069E-1,1.282488052E1,3.016676788E0,1.318394179E1
3.531318000E0,-1.217717743E0,1.325164307E1,1.024918671E0,1.334688498E1
3.541326000E0,-1.605411530E0,1.310599594E1,2.981799316E-1,1.320732324E1
3.551334000E0,-1.766925659E0,1.274374924E1,2.122586060E-1,1.286740940E1
3.561342000E0,-2.017803955E0,1.205473206E1,-8.158035278E-2,1.222271464E1
3.571351000E0,-2.343676300E0,1.121003860E1,-4.498146057E-1,1.146124414E1
3.581359000E0,-2.764451294E0,1.025981461E1,-9.678872681E-1,1.066971379E1
3.591367000E0,-3.291654968E0,9.226812744E0,-1.458866272E0,9.904410969E0
3.601375000E0,-3.887266388E0,8.399782562E0,-1.445394287E0,9.367836021E0
3.611384000E0,-4.446054382E0,7.896229706E0,-6.676116943E-1,9.086448619E0
3.621392000E0,-4.608017578E0,7.681127014E0,-9.729766846E-2,8.957846005E0
3.631400000E0,-4.448748779E0,7.594008179E0,1.287322998E-2,8.801164221E0
3.641408000E0,-3.790268097E0,7.636519775E0,-3.433859253E-1,8.532319756E0
3.651416000E0,-2.841391296E0,8.076604614E0,-7.806266785E-1,8.597349859E0
3.661425000E0,-1.987566833E0,8.892557831E0,-9.080117798E-1,9.157100637E0
3.671433000E0,-1.170865173E0,9.719887390E0,-5.381309509E-1,9.804933506E0
3.681441000E0,-3.573069763E-1,1.086395828E1,-2.607577515E-1,1.087295969E1
3.691449000E0,4.683760071E-1,1.249616409E1,-3.379971313E-1,1.250950579E1
3.701458083E0,1.342857513E0,1.444900314E1,-1.246757355E0,1.456473007E1
3.711466083E0,2.193688202E0,1.619317612E1,-2.324965210E0,1.650565612E1
3.721474083E0,2.783162384E0,1.678983536E1,-2.136357422E0,1.715250965E1
3.731482083E0,3.308420105E0,1.592179047E1,-1.274599457E0,1.631176444E1
3.741491083E0,3.905977478E0,1.422357193E1,7.062313843E-1,1.476703834E1
3.751499083E0,4.703968048E0,1.231773514E1,4.462370453E0,1.392000950E1
3.761507083E0,5.518125000E0,1.077609100E1,5.936954041E0,1.348411154E1
3.771515083E0,6.090384979E0,9.111702118E0,5.526657257E0,1.227435722E1
3.781524083E0,6.273753662E0,7.527097321E0,5.635331268E0,1.130372229E1
3.791532083E0,6.050268402E0,6.302493896E0,5.085973663E0,1.010911990E1
3.801540083E0,4.848567352E0,5.752537537E0,4.205953674E0,8.619184404E0
3.811548083E0,2.778522034E0,6.359974365E0,2.542762299E0,7.391555907E0
3.821557083E0,1.085392914E0,7.419471130E0,1.378782806E0,7.624150553E0
3.831565083E0,-2.221380615E-1,8.314160614E0,1.564995575E0,8.463085914E0
3.841573083E0,-1.213077393E0,9.004824371E0,2.587968292E0,9.447539288E0
3.851581083E0,-1.756447449E0,9.453142090E0,3.608396301E0,1.026973840E1
3.861590083E0,-2.313439178E0,9.569150848E0,4.202660522E0,1.070434511E1
3.871598083E0,-2.781216431E0,9.259145508E0,4.613705750E0,1.071229299E1
3.881606083E0,-2.921175385E0,8.696315918E0,4.772076416E0,1.034078766E1
3.891614083E0,-2.889441376E0,8.108039246E0,4.765939178E0,9.838869250E0
3.901623083E0,-2.739303589E0,7.820786591E0,4.485871582E0,9.422925814E0
3.911631083E0,-2.541265411E0,7.647746429E0,4.189338226E0,9.082764453E0
3.921639083E0,-2.391876068E0,7.517517242E0,3.852239227E0,8.779173291E0
3.931647083E0,-2.332299957E0,7.499404907E0,3.393592987E0,8.555534490E0
3.941656083E0,-2.338886261E0,7.576793976E0,2.889890442E0,8.439766742E0
3.951664083E0,-2.383194122E0,7.795339508E0,2.476450195E0,8.519374263E0
3.961672083E0,-2.448009338E0,8.123307495E0,2.302062836E0,8.790925303E0
3.971680083E0,-2.476450195E0,8.446036377E0,2.108066254E0,9.050540281E0
3.981689083E0,-2.433190155E0,8.746162262E0,1.996697845E0,9.295298324E0
3.991697083E0,-2.346071320E0,8.992998962E0,1.929637299E0,9.492185264E0
4.001705083E0,-2.265838165E0,9.251511383E0,2.029928741E0,9.738844703E0
4.011713083E0,-2.070943451E0,9.601633301E0,2.533780975E0,1.014397431E1
4.021722083E0,-1.599873047E0,9.809700623E0,3.338208160E0,1.048491554E1
4.031730083E0,-1.208287354E0,9.791737976E0,3.548221436E0,1.048465385E1
4.041738083E0,-9.737251282E-1,9.681716766E0,3.285368042E0,1.027022022E1
4.051746083E0,-7.247927856E-1,9.569749603E0,2.974614258E0,1.004757493E1
4.061755083E0,-5.267546082E-1,9.762848053E0,2.509830780E0,1.009405385E1
4.071763083E0,-6.021977234E-1,1.020667511E1,1.765728149E0,1.037577249E1
4.081771083E0,-1.134640503E0,1.093745544E1,1.033899994E0,1.104464983E1
4.091779083E0,-1.832788696E0,1.175535461E1,3.631448364E-1,1.190291354E1
4.101788083E0,-2.499651947E0,1.260573624E1,-4.309538269E-1,1.285840453E1
4.111796083E0,-3.427572327E0,1.348216370E1,-1.506317596E0,1.399235444E1
4.121804083E0,-4.442461853E0,1.400577484E1,-2.120191040E0,1.484561909E1
4.131812083E0,-5.159171448E0,1.389380768E1,-1.676363983E0,1.491526527E1
4.141821083E0,-4.855453033E0,1.250349884E1,-8.399034119E-1,1.343943247E1
4.151829083E0,-3.845503235E0,1.034184402E1,-6.973997498E-1,1.105567725E1
4.161837083E0,-3.053350525E0,8.340356140E0,-1.246907043E0,8.968794074E0
4.171845083E0,-2.338886261E0,6.820716248E0,-9.729766846E-1,7.275935864E0
4.181854083E0,-1.767823792E0,6.039041748E0,3.432362366E-1,6.301828092E0
4.191862083E0,-1.239871674E0,5.825885010E0,1.473086700E0,6.135813095E0
4.201870083E0,-9.613009644E-1,6.321953430E0,2.198777618E0,6.762086788E0
4.211878083E0,-1.100810852E0,7.275320892E0,2.736459503E0,7.850496114E0
4.221887083E0,-1.560804291E0,8.442144470E0,2.951562195E0,9.078415758E0
4.231895083E0,-2.033970337E0,9.492809601E0,2.895428925E0,1.013084291E1
4.241903083E0,-2.323618011E0,1.013856674E1,2.615960083E0,1.072534304E1
4.251911083E0,-2.434986420E0,1.030741562E1,2.434986420E0,1.086743459E1
4.261920083E0,-2.463726654E0,1.028451324E1,2.483186188E0,1.086311996E1
4.271928083E0,-2.472408600E0,1.012464569E1,2.360441437E0,1.068610960E1
4.281936083E0,-2.437680817E0,9.782906342E0,2.078727264E0,1.029410760E1
4.291944083E0,-2.363734589E0,9.358389130E0,1.892514496E0,9.836071341E0
4.301953083E0,-2.336640930E0,8.976982269E0,1.676962738E0,9.426468348E0
4.311961083E0,-2.354453888E0,8.802594910E0,1.460812225E0,9.228385699E0
4.321969083E0,-2.423909454E0,8.833580475E0,1.355281677E0,9.259820164E0
4.331978083E0,-2.518662415E0,9.073381805E0,1.301393738E0,9.505974090E0
4.341986083E0,-2.718197479E0,9.414821777E0,1.178050232E0,9.869917375E0
4.351994083E0,-2.870730286E0,9.846973114E0,1.225651245E0,1.032986897E1
4.362002083E0,-2.872376862E0,1.013706985E1,1.506616974E0,1.064333730E1
4.372010083E0,-2.857108612E0,1.019514908E1,1.768123169E0,1.073454209E1
4.382019083E0,-2.748284912E0,1.001477417E1,1.938319244E0,1.056436714E1
4.392027083E0,-2.556982727E0,9.655371552E0,2.065704346E0,1.019958308E1
4.402035083E0,-2.362836456E0,9.301956482E0,2.121388550E0,9.829022326E0
4.412044083E0,-2.215542755E0,9.050629120E0,2.172282715E0,9.567723311E0
4.422052083E0,-2.116598511E0,8.916058960E0,2.199226685E0,9.424048739E0
4.432060083E0,-2.101479950E0,8.884624329E0,2.168690186E0,9.383815032E0
4.442068083E0,-2.110161896E0,8.955277405E0,2.154769135E0,9.449487110E0
4.452077083E0,-2.125430145E0,9.164242859E0,2.216141510E0,9.664992689E0
4.462085083E0,-2.120939484E0,9.451046448E0,2.299368439E0,9.955287965E0
4.472093083E0,-2.085762634E0,9.666298828E0,2.364483032E0,1.016752275E1
4.482101083E0,-1.999841309E0,9.760303345E0,2.413880310E0,1.025132698E1
4.492110083E0,-1.882485352E0,9.712402954E0,2.376607819E0,1.017461483E1
4.502118083E0,-1.753154297E0,9.509275360E0,2.261646881E0,9.930504241E0
4.512126083E0,-1.631008301E0,9.229956207E0,2.065105591E0,9.597757070E0
4.522134083E0,-1.576820984E0,8.968899078E0,1.790576477E0,9.280823197E0
4.532143083E0,-1.589394836E0,8.766070862E0,1.477427673E0,9.030668128E0
4.542151083E0,-1.661844177E0,8.704249420E0,1.210981750E0,8.943833677E0
4.552159083E0,-1.778152313E0,8.853040009E0,9.966275024E-1,9.084679929E0
4.562167083E0,-1.976639557E0,9.158854065E0,8.255332947E-1,9.406020250E0
4.572176083E0,-2.200873260E0,9.449549561E0,7.291337585E-1,9.729823536E0
4.582184083E0,-2.419867859E0,9.632768555E0,6.474037170E-1,9.953146339E0
4.592192083E0,-2.670446777E0,9.690548401E0,5.134323120E-1,1.006487094E1
4.602200083E0,-2.946173401E0,9.615404663E0,4.102967834E-1,1.006500313E1
4.612209083E0,-3.268602905E0,9.469158783E0,3.516188049E-1,1.002359061E1
4.622217083E0,-3.841461639E0,9.423354034E0,6.965016174E-1,1.020007565E1
4.632225083E0,-4.582570496E0,9.489217072E0,1.101259918E0,1.059518600E1
4.642233083E0,-5.065615997E0,9.508826294E0,1.150058441E0,1.083516854E1
4.652242083E0,-5.391488342E0,9.540560303E0,8.855584717E-1,1.099430085E1
4.662250083E0,-5.536536713E0,9.578132172E0,5.873785400E-1,1.107875752E1
4.672258083E0,-5.658982086E0,9.580676880E0,4.402345276E-1,1.113585444E1
4.682266083E0,-5.789510651E0,9.476194153E0,3.378474426E-1,1.110994285E1
4.692275083E0,-5.788163452E0,9.256900177E0,3.330574036E-1,1.092263541E1
4.702286708E0,-5.914500732E0,9.097631378E0,3.806584167E-1,1.085785966E1
4.712294708E0,-5.967340851E0,8.994495850E0,7.900570679E-1,1.082286019E1
4.722302708E0,-5.921536102E0,8.801696777E0,1.351988525E0,1.069403240E1
4.732311708E0,-5.727090454E0,8.555309143E0,1.748513947E0,1.044270945E1
4.742319708E0,-5.320386200E0,8.340805206E0,1.930385742E0,1.007977827E1
4.752327708E0,-4.916226654E0,8.311316528E0,1.925296326E0,9.846523899E0
4.762336708E0,-4.557871857E0,8.508606262E0,1.857487335E0,9.829589798E0
4.772344708E0,-4.220772858E0,8.779692535E0,1.871408386E0,9.919682146E0
4.782352708E0,-4.012855225E0,9.103169861E0,2.050585785E0,1.015753960E1
4.792360708E0,-3.878584442E0,9.439221039E0,2.136806488E0,1.042632500E1
4.802369708E0,-3.745062103E0,9.626781006E0,2.072590027E0,1.053546544E1
4.812377708E0,-3.553759918E0,9.613907776E0,2.013912048E0,1.044568208E1
4.822385708E0,-3.306324463E0,9.444460144E0,1.910327454E0,1.018719588E1
4.832393708E0,-3.036884766E0,9.189989319E0,1.659748535E0,9.820047758E0
4.842402708E0,-2.775827637E0,8.901988220E0,1.431772614E0,9.434012198E0
4.852410708E0,-2.569706268E0,8.667126617E0,1.276246033E0,9.129692111E0
4.862418708E0,-2.394121399E0,8.497828674E0,1.065035248E0,8.892649185E0
4.872426708E0,-2.238894196E0,8.390801239E0,9.563612366E-1,8.736865540E0
4.882435708E0,-2.132615204E0,8.381670227E0,9.828561401E-1,8.704392546E0
4.892443708E0,-2.053130493E0,8.455167389E0,1.136436768E0,8.774775719E0
4.902451708E0,-2.009720764E0,8.662635956E0,1.376836853E0,8.998662066E0
4.912459708E0,-2.008223877E0,9.004674683E0,1.625469818E0,9.367992389E0
4.922468708E0,-2.065554657E0,9.605225830E0,1.943109283E0,1.001511622E1
4.932476708E0,-2.123484192E0,1.034828064E1,2.334545288E0,1.081878917E1
4.942484708E0,-2.196831665E0,1.112037506E1,2.765050049E0,1.166766098E1
4.952492708E0,-2.308948517E0,1.187974594E1,3.164868622E0,1.250903674E1
4.962501708E0,-2.428250427E0,1.254616013E1,3.444786530E0,1.323514595E1
4.972509708E0,-2.600841522E0,1.293954208E1,3.564537506E0,1.367121259E1
4.982517708E0,-2.748434601E0,1.268507126E1,3.201093292E0,1.336831791E1
4.992526708E0,-2.824326782E0,1.170431076E1,2.343825989E0,1.226626400E1
5.002534708E0,-2.853366394E0,1.072280182E1,1.632804565E0,1.121544602E1
5.012542708E0,-2.893782349E0,9.999056854E0,1.185384979E0,1.047665270E1
5.022550708E0,-3.046464844E0,9.467212830E0,1.102307739E0,1.000620553E1
5.032559708E0,-2.945724335E0,8.909322968E0,9.321116638E-1,9.429854705E0
5.042567708E0,-2.519560547E0,8.442892914E0,6.011499023E-1,8.831308358E0
5.052575708E0,-2.212698669E0,8.289461975E0,2.647993469E-1,8.583783195E0
5.062583708E0,-2.020797729E0,8.445287933E0,7.050338745E-2,8.683978493E0
5.072592708E0,-1.766326904E0,8.798852692E0,8.337661743E-2,8.974779723E0
5.082600708E0,-1.430575104E0,9.448052673E0,4.730163574E-2,9.555861128E0
5.092608708E0,-9.434880066E-1,1.067160828E1,-1.289119263E0,1.079051534E1
5.102616708E0,3.305126953E-1,1.229962280E1,-7.840844879E0,1.459002427E1
5.112625708E0,1.830543365E0,1.335507797E1,-1.271051834E1,1.852744648E1
5.122633708E0,1.566642151E0,1.324026672E1,-4.407584381E0,1.404228723E1
5.132641708E0,1.093775482E0,1.307665695E1,5.165757751E-1,1.313248462E1
5.142649708E0,8.487350464E-1,1.273342072E1,2.418221283E0,1.298877009E1
5.152658708E0,6.577322388E-1,1.214993408E1,2.900518341E0,1.250865766E1
5.162666708E0,4.815486145E-1,1.137873779E1,2.063908081E0,1.157442350E1
5.172674708E0,2.204914856E-1,1.061951660E1,8.505313110E-1,1.065580372E1
5.182683708E0,-2.713856506E-1,1.002600082E1,1.035845947E-1,1.003020800E1
5.192691708E0,-8.801696777E-1,9.628128204E0,-1.616638184E-2,9.668289028E0
5.202699708E0,-1.290316772E0,9.288334808E0,-4.565505981E-2,9.377641776E0
5.212707708E0,-1.586850128E0,8.838370514E0,-1.495390320E-1,8.980938069E0
5.222716708E0,-1.698517914E0,8.230933685E0,4.141886902E-1,8.414557903E0
5.232724708E0,-1.522483978E0,7.541766815E0,1.345851288E0,7.810731070E0
5.242732708E0,-1.256936188E0,7.110513611E0,2.798580322E0,7.744116748E0
5.252740708E0,-1.012195129E0,6.709647217E0,4.664749603E0,8.234305898E0
5.262749708E0,-6.381230164E-1,6.301595764E0,6.371201019E0,8.983847315E0
5.272757708E0,-3.456312561E-1,6.206543427E0,7.651189270E0,9.858059622E0
5.282765708E0,-2.450404358E-1,6.430777130E0,8.743617554E0,1.085660109E1
5.292773708E0,-2.182461548E-1,6.966363373E0,9.185199280E0,1.153020970E1
5.302782708E0,-4.507127380E-1,7.788154449E0,8.341853027E0,1.142125228E1
5.312790708E0,-8.352630615E-1,8.540489960E0,6.206543427E0,1.059050586E1
5.322798708E0,-1.568288727E0,9.001830597E0,3.101250916E0,9.649364791E0
5.332807708E0,-2.480641479E0,9.100325775E0,9.053173828E-1,9.475711632E0
5.342815708E0,-3.166664886E0,9.296867065E0,-7.140151978E-2,9.821639472E0
5.352823708E0,-3.286266174E0,9.508826294E0,-1.661544800E-2,1.006069575E1
5.362831708E0,-2.712359619E0,9.809251556E0,1.032552795E0,1.022958827E1
5.372840708E0,-1.769170990E0,1.000235001E1,2.041305084E0,1.036069004E1
5.382848708E0,-1.006956024E0,9.956694946E0,2.543510742E0,1.032565647E1
5.392856708E0,-6.484515381E-1,9.765991516E0,2.385738831E0,1.007406718E1
5.402864708E0,-5.801934814E-1,9.722132721E0,2.163750458E0,9.976888551E0
5.412873708E0,-5.155279541E-1,9.655670929E0,2.518961792E0,9.992142847E0
5.422881708E0,-3.923341370E-1,9.415270844E0,3.064427490E0,9.909185989E0
5.432889708E0,-2.414479065E-1,9.031019897E0,3.598965912E0,9.724719693E0
5.442897708E0,-9.370513916E-2,8.603359222E0,4.069736938E0,9.517842682E0
5.452906708E0,8.951385498E-2,8.238867188E0,4.524341583E0,9.399819787E0
5.462914708E0,3.620970154E-1,8.024812317E0,4.953050079E0,9.437236463E0
5.472922708E0,6.635700989E-1,7.965535583E0,5.226531372E0,9.550220552E0
5.482931708E0,8.884025574E-1,8.127798157E0,5.234913940E0,9.708485255E0
5.492939708E0,9.605525208E-1,8.502918091E0,4.975802765E0,9.898529707E0
5.502947708E0,8.858578491E-1,9.026529236E0,4.509971466E0,1.012930485E1
5.512955708E0,6.141728210E-1,9.630822601E0,3.974085846E0,1.043663310E1
5.522964708E0,2.131567383E-1,1.015892441E1,3.611240387E0,1.078379516E1
5.532972708E0,-2.294728088E-1,1.054048096E1,3.564537506E0,1.112925533E1
5.542980708E0,-6.230044556E-1,1.075618240E1,3.698059845E0,1.139119138E1
5.552988708E0,-8.400531006E-1,1.071681427E1,3.907474365E0,1.143783866E1
5.562997708E0,-9.502239990E-1,1.049542465E1,4.103267212E0,1.130900818E1
5.573005708E0,-8.527766418E-1,1.012599289E1,4.323010254E0,1.104315977E1
5.583013708E0,-7.376660156E-1,9.948312378E0,4.392465820E0,1.089985442E1
5.593022708E0,-6.749464417E-1,1.035471725E1,4.291725311E0,1.122918645E1
5.603030708E0,-7.012916565E-1,1.147393982E1,4.079017639E0,1.219760181E1
5.613038708E0,-8.457412720E-1,1.316018326E1,3.683989105E0,1.369224150E1
5.623046708E0,-1.056353302E0,1.496557892E1,3.233276367E0,1.534726395E1
5.633055708E0,-1.417552185E0,1.612372055E1,2.714904327E0,1.641202377E1
5.643063708E0,-1.826202393E0,1.533920197E1,1.959874420E0,1.557135960E1
5.653071708E0,-2.037562866E0,1.298115555E1,1.291065216E0,1.320336742E1
5.663079708E0,-2.560425568E0,1.110346024E1,1.190474396E0,1.145686858E1
5.673088708E0,-2.842738495E0,9.655670929E0,9.418414307E-1,1.010941188E1
5.683096708E0,-2.575394440E0,8.551117859E0,7.316784668E-1,8.960447898E0
5.693104708E0,-2.301613770E0,8.139174500E0,6.515950012E-1,8.483405184E0
5.703108583E0,-2.198478241E0,8.173153839E0,3.806584167E-1,8.472228224E0
5.713117583E0,-2.122885437E0,8.806935883E0,-2.839595032E-1,9.063630355E0
5.723125583E0,-1.985920258E0,9.919422455E0,-1.124162292E0,1.017853437E1
5.733133583E0,-1.922751617E0,1.080288528E1,-1.498533783E0,1.107451614E1
5.743142583E0,-1.740879822E0,1.093535980E1,-1.046473846E0,1.112240370E1
5.753150583E0,-1.412163391E0,1.027672943E1,-4.595443726E-2,1.037340277E1
5.763158583E0,-1.005608826E0,9.231752472E0,8.399034119E-1,9.324266221E0
5.773166583E0,-6.295907593E-1,8.303233337E0,1.359622650E0,8.437336199E0
5.783175583E0,-4.174818420E-1,7.624245300E0,1.460662537E0,7.774120049E0
5.793183583E0,-3.302133179E-1,7.169041901E0,1.308728485E0,7.294996426E0
5.803191583E0,-3.353027344E-1,6.988517303E0,1.044677582E0,7.074118551E0
5.813200583E0,-3.917353821E-1,7.079677734E0,8.183482361E-1,7.137575728E0
5.823208583E0,-5.944139099E-1,7.474107513E0,6.271957397E-1,7.523894305E0
5.833216583E0,-8.565188599E-1,8.038433990E0,5.496569824E-1,8.102602568E0
5.843224583E0,-1.191222839E0,8.632249146E0,5.397775269E-1,8.730755806E0
5.853233583E0,-1.498982849E0,9.144034882E0,5.529501343E-1,9.282568467E0
5.863241583E0,-1.783241730E0,9.538614349E0,6.309379578E-1,9.724361032E0
5.873249583E0,-2.120789795E0,9.825417938E0,9.177415466E-1,1.009350467E1
5.883257583E0,-2.667902069E0,9.910441132E0,1.407672729E0,1.035934783E1
5.893266583E0,-3.076402588E0,9.665700073E0,1.772164764E0,1.029711507E1
5.903274583E0,-3.175795898E0,9.152417450E0,1.755699005E0,9.845552486E0
5.913282583E0,-2.998265076E0,8.578211517E0,1.563498688E0,9.220620068E0
5.923290583E0,-2.791095886E0,8.171507263E0,1.284927979E0,8.730108081E0
5.933299583E0,-2.552791443E0,7.911348267E0,1.034199371E0,8.377096388E0
5.943307583E0,-2.333198090E0,7.797584839E0,8.455915833E-1,8.182980372E0
5.953315583E0,-2.021246796E0,7.754474487E0,6.074368286E-1,8.036559754E0
5.963324583E0,-1.479673004E0,7.855664063E0,3.426374817E-1,8.001143075E0
5.973332583E0,-1.007255402E0,8.178692322E0,2.995271301E-1,8.245925542E0
5.983340583E0,-6.981481934E-1,8.603359222E0,4.794529724E-1,8.644945110E0
5.993348583E0,-4.076023865E-1,8.994495850E0,7.735913086E-1,9.036898738E0
6.003357583E0,-1.971400452E-1,9.301806793E0,1.312919769E0,9.396075358E0
6.013365583E0,-8.951385498E-2,9.414073334E0,1.871408386E0,9.598695683E0
6.023373583E0,-5.733078003E-2,9.240284729E0,2.048789520E0,9.464865936E0
6.033382583E0,4.655319214E-2,8.960516510E0,1.919608154E0,9.163946682E0
6.043390583E0,1.511856079E-1,8.816965027E0,2.047142944E0,9.052763313E0
6.053398583E0,2.980302429E-1,8.777297516E0,2.234403534E0,9.062137323E0
6.063406583E0,4.805007935E-1,8.835676117E0,2.354753265E0,9.156686977E0
6.073415583E0,7.174580383E-1,8.869505768E0,2.514471130E0,9.246915360E0
6.083423583E0,9.038204956E-1,8.945248260E0,2.701132965E0,9.387783403E0
6.093431583E0,1.164278870E0,9.088650055E0,2.939138031E0,9.622766623E0
6.103439583E0,1.331930237E0,9.363029480E0,3.055446167E0,9.938617131E0
6.113448583E0,1.456471252E0,9.687105560E0,3.114423523E0,1.027915155E1
6.123456583E0,1.625469818E0,1.001986359E1,3.225492554E0,1.065099153E1
6.133464583E0,1.657054138E0,1.039064255E1,3.188669128E0,1.099449370E1
6.143473583E0,1.687440948E0,1.064825684E1,3.035387878E0,1.120028616E1
6.153481583E0,1.629810791E0,1.092533066E1,2.838996277E0,1.140521955E1
6.163489583E0,1.559008026E0,1.117920273E1,2.583477631E0,1.157926752E1
6.173497583E0,1.374441833E0,1.125374771E1,2.239343262E0,1.155640888E1
6.183506583E0,1.135089569E0,1.130539032E1,1.968706055E0,1.153152558E1
6.193514583E0,9.199868774E-1,1.145956970E1,1.791923676E0,1.163525264E1
6.203522583E0,7.572752380E-1,1.166374512E1,1.647773438E0,1.180387958E1
6.213531583E0,5.932164001E-1,1.178559174E1,1.598675537E0,1.190830978E1
6.223539583E0,4.306544495E-1,1.171448959E1,1.671873322E0,1.184102572E1
6.233547583E0,3.155438232E-1,1.153755753E1,1.905387726E0,1.169808976E1
6.243555583E0,2.206411743E-1,1.157827286E1,2.059866486E0,1.176214839E1
6.253564583E0,2.454895020E-1,1.181178726E1,1.615440674E0,1.192427071E1
6.263572583E0,2.372566223E-1,1.204634949E1,-2.812651062E-1,1.205196817E1
6.273580583E0,2.495310974E-1,1.235874985E1,-7.732919312E-1,1.238543273E1
6.283588583E0,3.083587646E-1,1.254900421E1,4.858895874E-1,1.256219250E1
6.293597583E0,-2.574645996E-2,1.220217545E1,1.500629425E0,1.229413019E1
6.303605583E0,-5.760021973E-1,1.140972336E1,1.670376434E0,1.154572315E1
6.313613583E0,-9.699829102E-1,1.039423508E1,1.212778015E0,1.050960609E1
6.323622583E0,-1.339414673E0,9.303153992E0,4.249662781E-1,9.408682277E0
6.333630583E0,-1.736389160E0,8.479716339E0,-5.968089294E-1,8.676221378E0
6.343638583E0,-2.092648315E0,7.840395813E0,-1.426234131E0,8.239243125E0
6.353646583E0,-2.412383423E0,7.584877167E0,-1.817221069E0,8.164082792E0
6.363655583E0,-2.376308441E0,7.892038422E0,-1.438508606E0,8.366625321E0
6.373663583E0,-1.685944061E0,8.508755951E0,-6.994953918E-1,8.702334688E0
6.383671583E0,-1.012045441E0,9.487720184E0,-1.601669312E-2,9.541557881E0
6.393680583E0,-5.831872559E-1,1.069346283E1,5.766009521E-1,1.072486472E1
6.403688583E0,-1.026864624E-1,1.183947968E1,5.782475281E-1,1.185403702E1
6.413696583E0,5.062472534E-1,1.283670593E1,-1.924996948E-1,1.284812677E1
6.423704583E0,1.069675598E0,1.366448456E1,-1.298100586E0,1.376762177E1
6.433713583E0,1.536255341E0,1.411489792E1,-1.690734100E0,1.429856655E1
6.443721583E0,1.787283325E0,1.402972504E1,-1.622775421E0,1.423590413E1
6.453729583E0,1.970202942E0,1.302740936E1,-1.191222839E0,1.322928971E1
6.463737583E0,2.238445129E0,1.100586319E1,1.434017944E-1,1.123210689E1
6.473746583E0,2.672542419E0,8.754694519E0,2.788850555E0,9.568952217E0
6.483754583E0,2.956352234E0,7.297774200E0,5.743556213E0,9.746074327E0
6.493762583E0,3.124452667E0,6.420897675E0,6.828200684E0,9.880002834E0
6.503771583E0,3.071612549E0,5.525908813E0,7.349416809E0,9.694555137E0
6.513779583E0,2.673889618E0,5.132826233E0,7.282505951E0,9.302176291E0
6.523787583E0,1.715133362E0,5.521418152E0,6.372398529E0,8.604371207E0
6.533795583E0,1.586700439E-1,6.380781097E0,4.716990967E0,7.936595453E0
6.543804583E0,-1.736838226E0,7.117848358E0,3.007096710E0,7.919785534E0
6.553812583E0,-3.926484833E0,8.024812317E0,2.270927582E0,9.218026250E0
6.563820583E0,-5.744154968E0,8.820407867E0,2.544708252E0,1.082914823E1
6.573829583E0,-6.831044769E0,9.334738312E0,2.836601257E0,1.190994621E1
6.583837583E0,-7.165149994E0,9.401948547E0,2.730471954E0,1.213224992E1
6.593845583E0,-6.932982788E0,9.121581573E0,2.150577850E0,1.165737903E1
6.603853583E0,-5.770649872E0,8.453221436E0,8.318202209E-1,1.026884986E1
6.613862583E0,-3.692072296E0,7.730973358E0,9.789642334E-2,8.567901179E0
6.623870583E0,-2.370171204E0,7.407645721E0,5.209167480E-2,7.777765760E0
6.633878583E0,-1.563947754E0,7.450007629E0,6.888674927E-1,7.643499505E0
6.643887583E0,-1.019978943E0,7.535928955E0,1.681603088E0,7.788348426E0
6.653895583E0,-5.448669434E-1,7.582182770E0,2.822680206E0,8.108877795E0
6.663903583E0,-1.257385254E-2,7.684719543E0,4.093088379E0,8.706804525E0
6.673911583E0,5.522016907E-1,7.929161224E0,5.374423828E0,9.594840067E0
6.683920583E0,1.109941864E0,8.284372559E0,6.471941528E0,1.057113176E1
6.693928583E0,1.634151764E0,8.668024750E0,7.247778168E0,1.141645275E1
6.703936458E0,2.170785828E0,9.124725037E0,7.488178253E0,1.200190533E1
6.713945458E0,2.508333893E0,9.768985291E0,7.182962952E0,1.238223604E1
6.723953458E0,2.595452728E0,1.046159500E1,6.361471252E0,1.251597624E1
6.733961458E0,2.496508484E0,1.089389603E1,5.075345764E0,1.227471628E1
6.743969458E0,2.412982178E0,1.114761841E1,4.163442078E0,1.214191620E1
6.753978458E0,2.340832214E0,1.137439682E1,3.658542023E0,1.217543955E1
6.763986458E0,2.217638397E0,1.143921204E1,3.170856171E0,1.207591905E1
6.773994458E0,2.119143219E0,1.112726074E1,2.925666046E0,1.169898378E1
6.784003458E0,2.110161896E0,1.070468948E1,3.215313721E0,1.137459461E1
6.794011458E0,2.033221893E0,1.024319916E1,3.688479767E0,1.107528795E1
6.804019458E0,1.800904999E0,1.028496231E1,3.924688568E0,1.115468013E1
6.814027458E0,1.360520782E0,1.131601822E1,3.717369690E0,1.198841618E1
6.824036458E0,9.490264893E-1,1.283461029E1,3.374283142E0,1.330464803E1
6.834044458E0,4.737648010E-1,1.431847458E1,2.898273010E0,1.461653700E1
6.844052458E0,-1.992356873E-1,1.540566376E1,2.000589752E0,1.553629718E1
6.854061458E0,-1.032253418E0,1.578991470E1,9.843530273E-1,1.585420778E1
6.864069458E0,-2.178120575E0,1.536809189E1,-5.864804077E-1,1.553275303E1
6.874077458E0,-3.864513702E0,1.447669556E1,-2.128872986E0,1.513410984E1
6.884085458E0,-4.655169525E0,1.260603561E1,-2.113005981E0,1.360321769E1
6.894094458E0,-4.255051575E0,1.021056702E1,-1.462009735E0,1.115789475E1
6.904102458E0,-3.417692871E0,8.268804932E0,-4.567002869E-1,8.958924864E0
6.914110458E0,-2.719844055E0,6.797514496E0,2.653981018E-1,7.326267205E0
6.924119458E0,-2.232756958E0,5.795647888E0,6.625222778E-1,6.246092686E0
6.934127458E0,-1.949545898E0,5.365442505E0,9.288185120E-1,5.783719073E0
6.944135458E0,-1.711540833E0,5.680387573E0,9.306147766E-1,6.005182667E0
6.954143458E0,-1.635798340E0,6.639742584E0,8.901988220E-1,6.895975039E0
6.964152458E0,-1.727557526E0,7.836204529E0,1.187480621E0,8.111761008E0
6.974160458E0,-1.933978271E0,9.038654022E0,1.420246582E0,9.351718497E0
6.984168458E0,-2.196382599E0,1.008737320E1,1.489702148E0,1.043064749E1
6.994177458E0,-2.515219574E0,1.070932983E1,1.485510864E0,1.110057735E1
7.004185458E0,-2.839894409E0,1.076142151E1,1.335822144E0,1.120971070E1
7.014193458E0,-3.007396088E0,1.024394760E1,9.348060608E-1,1.071712443E1
7.024201458E0,-2.966231689E0,9.272467804E0,2.944377136E-1,9.739809196E0
7.034210458E0,-2.692151642E0,8.304281158E0,-2.719844055E-1,8.733999172E0
7.044218458E0,-2.367925873E0,7.687713318E0,-5.679190063E-1,8.064151598E0
7.054226458E0,-2.148182831E0,7.378905487E0,-6.765930176E-1,7.714966868E0
7.064235458E0,-2.092798004E0,7.399712219E0,-6.285429382E-1,7.715608248E0
7.074243458E0,-2.252665558E0,7.657476196E0,-4.333488464E-1,7.993699709E0
7.084251458E0,-2.523901520E0,8.100405121E0,-7.454498291E-2,8.484821681E0
7.094259458E0,-2.876568146E0,8.622070312E0,3.344046021E-1,9.095414625E0
7.104268458E0,-2.988235931E0,8.963959351E0,7.086264038E-1,9.475456327E0
7.114276458E0,-2.699486389E0,8.941206665E0,1.005309448E0,9.393777221E0
7.124284458E0,-2.198029175E0,8.751700745E0,1.103505249E0,9.090727254E0
7.134293458E0,-1.750310211E0,8.699908447E0,1.245410156E0,8.961196309E0
7.144301458E0,-1.499282227E0,8.797954559E0,1.579365692E0,9.063456714E0
7.154309458E0,-1.243464203E0,8.990903320E0,2.124981079E0,9.321914520E0
7.164317458E0,-9.616003418E-1,9.197473755E0,2.600841522E0,9.606382010E0
7.174326458E0,-6.863227844E-1,9.423653412E0,3.018023987E0,9.918908780E0
7.184334458E0,-3.799099731E-1,9.650880890E0,3.393892365E0,1.023730135E1
7.194342458E0,-3.936813354E-2,9.849068756E0,3.476520538E0,1.044470681E1
7.204351458E0,3.796105957E-1,9.865833893E0,3.318898315E0,1.041603901E1
7.214359458E0,6.924600220E-1,9.744735718E0,2.952460327E0,1.020570414E1
7.224367458E0,9.581575012E-1,9.630373535E0,2.463427277E0,9.986522627E0
7.234375458E0,1.216370544E0,9.609866180E0,2.022593994E0,9.895452075E0
7.244384458E0,1.462907867E0,9.505832520E0,1.645677795E0,9.757520521E0
7.254392458E0,1.636397095E0,9.226513367E0,1.402882690E0,9.474936633E0
7.264400458E0,1.699416046E0,8.990154877E0,1.239422607E0,9.232933879E0
7.274409458E0,1.802401886E0,8.758885803E0,1.201551361E0,9.022774448E0
7.284417458E0,1.895657959E0,8.537346497E0,1.275497589E0,8.837799409E0
7.294425458E0,1.892215118E0,8.440946960E0,1.377435608E0,8.759417361E0
7.304434458E0,1.905088348E0,8.509654083E0,1.620380402E0,8.869566330E0
7.314442458E0,1.912423096E0,8.849597168E0,2.048490143E0,9.282728263E0
7.324450458E0,1.847158813E0,9.215286713E0,2.508633270E0,9.727627962E0
7.334458458E0,1.762285309E0,9.533973999E0,2.855462036E0,1.010722381E1
7.344467458E0,1.659748535E0,9.842332764E0,3.092868347E0,1.044950305E1
7.354475458E0,1.490151215E0,1.012584320E1,3.160527649E0,1.071177792E1
7.364483458E0,1.239422607E0,1.039228912E1,3.080893250E0,1.090998372E1
7.374492458E0,9.413923645E-1,1.065469345E1,2.913241882E0,1.108583287E1
7.384500458E0,5.960604858E-1,1.090542206E1,2.666854248E0,1.124258111E1
7.394508458E0,2.377056885E-1,1.111019623E1,2.460134125E0,1.138179354E1
7.404516458E0,-1.960922241E-2,1.131092880E1,2.470612335E0,1.157762585E1
7.414525458E0,-2.058219910E-1,1.151600235E1,2.639760590E0,1.181647193E1
7.424533458E0,-1.814227295E-1,1.181103882E1,2.859503632E0,1.215361317E1
7.434541458E0,-8.981323242E-3,1.233375183E1,3.049907684E0,1.270525292E1
7.444550458E0,1.778302002E-1,1.299343002E1,3.160377960E0,1.337343771E1
7.454558458E0,4.626878357E-1,1.364382751E1,2.540516968E0,1.388604824E1
7.464566458E0,7.575746155E-1,1.401490585E1,1.550625458E0,1.412076289E1
7.474574458E0,3.064128113E-1,1.438448730E1,1.237177277E0,1.444084386E1
7.484583458E0,-3.083587646E-1,1.400352951E1,3.858975220E-1,1.401223896E1
7.494591458E0,-6.081852722E-1,1.256397308E1,-6.724017334E-1,1.259664372E1
7.504599458E0,-8.110134888E-1,1.096335159E1,-1.908082123E0,1.115766994E1
7.514608458E0,-1.022074585E0,9.448352051E0,-3.019520874E0,9.971634733E0
7.524616458E0,-1.411414948E0,8.251441040E0,-3.613934784E0,9.118053302E0
7.534624458E0,-1.931732941E0,7.393874359E0,-3.699856110E0,8.490577449E0
7.544632458E0,-2.635269928E0,6.996450806E0,-3.199446716E0,8.132123386E0
7.554641458E0,-3.473526764E0,7.024741974E0,-1.788929901E0,8.038199933E0
7.564649458E0,-3.773053894E0,7.576045532E0,-1.104702759E-1,8.464313633E0
7.574657458E0,-3.385659485E0,8.433013458E0,9.160949707E-1,9.133325579E0
7.584666458E0,-2.360142059E0,9.362730103E0,1.286873932E0,9.740997384E0
7.594674458E0,-1.390308838E0,1.007195526E1,1.366208954E0,1.025883855E1
7.604682458E0,-6.664141846E-1,1.058224411E1,1.503473511E0,1.070926846E1
7.614691458E0,-4.445755005E-2,1.105391327E1,1.524729309E0,1.115866365E1
7.624699458E0,4.728666687E-1,1.160491745E1,6.378236389E-1,1.163204758E1
7.634707458E0,1.020727386E0,1.238165222E1,-9.903405762E-1,1.246306425E1
7.644715458E0,1.618733826E0,1.287891815E1,-2.536924438E0,1.322583901E1
7.654724458E0,2.326013031E0,1.258298355E1,-3.062780914E0,1.315760003E1
7.664732458E0,2.769241333E0,1.134835098E1,-7.447013855E-1,1.170505650E1
7.674740458E0,3.071313171E0,9.893226929E0,3.457210693E0,1.092067807E1
7.684749458E0,3.567680969E0,8.472680969E0,6.498436432E0,1.125807916E1
7.694757458E0,4.046834564E0,7.252418518E0,7.836354218E0,1.141853282E1
7.704769958E0,4.190984802E0,6.245163116E0,8.424331512E0,1.129317393E1
7.714778958E0,3.666924591E0,5.771997070E0,8.012837219E0,1.053412770E1
7.724786958E0,2.347568207E0,6.138884125E0,6.154302063E0,9.004021805E0
7.734794958E0,6.017486572E-1,6.608457642E0,3.701203308E0,7.598205036E0
7.744802958E0,-1.321751404E0,7.112160187E0,1.834884338E0,7.463018815E0
7.754811958E0,-3.788022766E0,7.990832977E0,1.383722534E0,8.950822096E0
7.764819958E0,-5.793252869E0,9.122180328E0,1.605710907E0,1.092493754E1
7.774827958E0,-6.477030945E0,9.630822601E0,1.976938934E0,1.177340059E1
7.784836958E0,-6.480324097E0,9.722132721E0,1.682800598E0,1.180450265E1
7.794844958E0,-4.847968597E0,9.260043640E0,8.321195984E-1,1.048540084E1
7.804852958E0,-2.689906311E0,8.641380157E0,3.829037476E-1,9.058458051E0
7.814860958E0,-1.529818726E0,8.282576294E0,7.481442261E-1,8.455834387E0
7.824869958E0,-9.678872681E-1,8.294850769E0,1.517394562E0,8.487864355E0
7.834877958E0,-7.041357422E-1,8.358318787E0,2.236050110E0,8.680853655E0
7.844885958E0,-4.882846069E-1,8.278235321E0,2.934797058E0,8.796626379E0
7.854894958E0,-1.547781372E-1,8.068521423E0,3.874842224E0,8.952061019E0
7.864902958E0,3.351530457E-1,7.909102936E0,4.946014709E0,9.334307597E0
7.874910958E0,9.428892517E-1,7.838150482E0,5.940097504E0,9.879797643E0
7.884919958E0,1.699116669E0,7.904911652E0,6.665339355E0,1.047861510E1
7.894927958E0,2.527194672E0,8.243208160E0,6.941065979E0,1.106867610E1
7.904935958E0,3.115920410E0,8.899892578E0,6.780000916E0,1.161401999E1
7.914943958E0,3.201841736E0,9.746382294E0,5.747298431E0,1.175904748E1
7.924952958E0,2.931354218E0,1.037327866E1,4.437222748E0,1.165704479E1
7.934960958E0,2.712209930E0,1.071771240E1,3.954776001E0,1.174162234E1
7.944968958E0,2.485431519E0,1.107172623E1,4.065545654E0,1.205359502E1
7.954977958E0,2.277813263E0,1.134101624E1,4.312532043E0,1.234524261E1
7.964985958E0,2.185155945E0,1.102173019E1,4.586312714E0,1.213621470E1
7.974993958E0,2.174528046E0,1.014260834E1,4.748874664E0,1.140845681E1
7.985001958E0,2.014211426E0,9.547895050E0,4.547243958E0,1.076553645E1
7.995010958E0,1.626966705E0,9.930200043E0,4.115391998E0,1.087163028E1
8.005018958E0,1.302291870E0,1.111723160E1,3.824696503E0,1.182865613E1
8.015026958E0,1.059347076E0,1.266935394E1,3.562142487E0,1.320316646E1
8.025035958E0,7.065307617E-1,1.455632996E1,3.119363251E0,1.490356852E1
8.035043958E0,2.005828857E-1,1.646665741E1,2.362088013E0,1.663642087E1
8.045051958E0,-5.691165161E-1,1.768227951E1,1.361718292E0,1.774376451E1
8.055060958E0,-1.442400513E0,1.748439102E1,3.326083374E-1,1.754693925E1
8.065068958E0,-2.321522369E0,1.593107117E1,-4.096980286E-1,1.610454430E1
8.075076958E0,-4.434977417E0,1.439017548E1,-8.774752808E-1,1.508363808E1
8.085084958E0,-5.178032227E0,1.177870605E1,-9.520202637E-1,1.290179354E1
8.095093958E0,-4.691693573E0,9.042845306E0,-1.237925720E0,1.026243148E1
8.105101958E0,-4.211791534E0,7.186854858E0,-1.514251099E0,8.466582963E0
8.115109958E0,-3.829336853E0,5.948929138E0,-2.132764893E0,7.389334524E0
8.125118958E0,-3.437152405E0,5.252427521E0,-3.000211029E0,6.957246419E0
8.135126958E0,-2.986888733E0,5.119653625E0,-3.114872589E0,6.695878493E0
8.145134958E0,-2.137554932E0,5.393134918E0,-1.726060638E0,6.052630061E0
8.155143958E0,-1.541344757E0,6.179749146E0,-6.646179199E-2,6.369416012E0
8.165151958E0,-1.462608490E0,6.998546448E0,1.192570038E0,7.248523937E0
8.175159958E0,-1.517544250E0,8.070766754E0,1.655856628E0,8.377474424E0
8.185167958E0,-1.603914642E0,9.206904144E0,1.819316711E0,9.521005167E0
8.195176958E0,-1.889221344E0,1.017209702E1,1.704804840E0,1.048556505E1
8.205184958E0,-2.499801636E0,1.080917221E1,1.579665070E0,1.120636220E1
8.215192958E0,-3.118315430E0,1.090347610E1,1.323098602E0,1.141754230E1
8.225201958E0,-3.412753143E0,1.045815216E1,6.542893982E-1,1.102034143E1
8.235209958E0,-3.303779755E0,9.757309570E0,-1.657054138E-1,1.030279132E1
8.245217958E0,-2.889740753E0,9.084758148E0,-8.460406494E-1,9.570747986E0
8.255226958E0,-2.435435486E0,8.559799805E0,-1.195563812E0,8.979470560E0
8.265234958E0,-2.158960419E0,8.316106567E0,-1.121467896E0,8.664665531E0
8.275242958E0,-2.125729523E0,8.374634857E0,-6.057902527E-1,8.661421178E0
8.285250958E0,-2.140399017E0,8.457263031E0,-1.112187195E-1,8.724618933E0
8.295259958E0,-2.193987579E0,8.568332062E0,3.550616455E-1,8.851890453E0
8.305267958E0,-2.189347229E0,8.665629730E0,8.354127502E-1,8.976875535E0
8.315275958E0,-2.025587769E0,8.627010040E0,1.292262726E0,8.955347620E0
8.325284958E0,-1.702260132E0,8.555608521E0,1.645827484E0,8.877210982E0
8.335292958E0,-1.398990784E0,8.586145020E0,1.913770294E0,8.907388969E0
8.345300958E0,-1.183439026E0,8.693920898E0,2.260898438E0,9.060709148E0
8.355309958E0,-9.912387085E-1,8.847800903E0,2.695744171E0,9.302320766E0
8.365317958E0,-7.250921631E-1,8.995244293E0,3.054248657E0,9.527256342E0
8.375325958E0,-4.114942932E-1,9.104067993E0,3.418441315E0,9.733402416E0
8.385333958E0,-9.849517822E-2,9.255702667E0,3.626059570E0,9.941128767E0
8.395342958E0,2.894979858E-1,9.353748779E0,3.741020508E0,1.007827663E1
8.405350958E0,6.965016174E-1,9.340576172E0,3.670666809E0,1.006008313E1
8.415358958E0,1.017883301E0,9.244925079E0,3.301384735E0,9.869339760E0
8.425367958E0,1.329684906E0,9.027277679E0,2.833308105E0,9.554446037E0
8.435375958E0,1.625769196E0,8.894653473E0,2.417772217E0,9.359679929E0
8.445383958E0,1.782642975E0,8.920399933E0,1.863624573E0,9.285712007E0
8.455392958E0,1.995200958E0,8.907826080E0,1.443298645E0,9.241931796E0
8.465400958E0,2.217039642E0,8.918603668E0,1.121916962E0,9.258264083E0
8.475408958E0,2.416724396E0,8.999435577E0,9.051676941E-1,9.362143241E0
8.485416958E0,2.572550354E0,9.106463013E0,6.667135620E-1,9.486315981E0
8.495425958E0,2.687211914E0,9.143286438E0,4.538562012E-1,9.540795575E0
8.505433958E0,2.729573822E0,9.063502350E0,5.209167480E-1,9.479926284E0
8.515441958E0,2.639760590E0,8.893605652E0,9.122030640E-1,9.321838439E0
8.525450958E0,2.432591400E0,8.777297516E0,1.235231323E0,9.191531375E0
8.535458958E0,2.161205750E0,8.760682068E0,1.414558411E0,9.133528129E0
8.545466958E0,1.901944885E0,8.872349854E0,1.502725067E0,9.197508842E0
8.555475958E0,1.689985657E0,9.178463287E0,1.566941528E0,9.463379185E0
8.565483958E0,1.459015961E0,9.683213654E0,1.708846436E0,9.940498497E0
8.575491958E0,1.160237274E0,1.037896683E1,1.809586945E0,1.059923147E1
8.585499958E0,7.957452393E-1,1.125090363E1,1.895807648E0,1.143722560E1
8.595508958E0,4.330494690E-1,1.215113159E1,2.024989014E0,1.232631783E1
8.605516958E0,1.411564636E-1,1.316377579E1,2.247276764E0,1.335496803E1
8.615524958E0,-1.101708984E-1,1.421189621E1,2.402204590E0,1.441390712E1
8.625533958E0,-6.641688538E-1,1.544697784E1,1.132544861E0,1.550267405E1
8.635541958E0,-1.016685791E0,1.627221176E1,1.011296997E0,1.633527616E1
8.645549958E0,-7.756869507E-1,1.623014923E1,2.638263702E0,1.646146621E1
8.655558958E0,-7.330256653E-1,1.552706131E1,3.409160614E0,1.591380959E1
8.665566958E0,-8.997789001E-1,1.417806656E1,2.899620209E0,1.449948174E1
8.675574958E0,-1.218017120E0,1.233405121E1,1.407972107E0,1.247376328E1
8.685583958E0,-1.566492462E0,1.056652679E1,-2.155517578E-1,1.068418690E1
8.695591958E0,-1.779349823E0,9.031768341E0,-1.441801758E0,9.317602560E0
8.705595750E0,-2.031725006E0,7.919431458E0,-2.133213959E0,8.449609630E0
8.715603750E0,-2.266586609E0,7.188800812E0,-2.217638397E0,7.857110921E0
8.725612750E0,-2.424657898E0,6.781946869E0,-1.725611572E0,7.406180159E0
8.735620750E0,-2.374362488E0,6.834487610E0,-6.471043396E-1,7.264059618E0
8.745628750E0,-2.076032867E0,7.386838989E0,4.463717651E-1,7.685997038E0
8.755637750E0,-1.613644409E0,8.261170807E0,1.138532410E0,8.493941807E0
8.765645750E0,-1.314865723E0,9.335187378E0,1.459465027E0,9.539634868E0
8.775653750E0,-1.196611633E0,1.040186920E1,1.487157440E0,1.057555670E1
8.785662750E0,-1.021924896E0,1.150477570E1,1.191821594E0,1.161140099E1
8.795670750E0,-3.992198181E-1,1.248149460E1,4.192781067E-1,1.249491409E1
8.805678750E0,5.989045715E-1,1.332035019E1,-1.048569489E0,1.337497341E1
8.815687750E0,1.590891724E0,1.396775391E1,-3.641028442E0,1.452192046E1
8.825695750E0,2.362088013E0,1.380713791E1,-5.144501953E0,1.492254728E1
8.835703750E0,2.712060242E0,1.228899490E1,-4.031416626E0,1.321465045E1
8.845711750E0,2.811752930E0,9.897118835E0,-1.479223938E0,1.039456681E1
8.855720750E0,2.903512115E0,7.798782349E0,2.586770782E0,8.714515007E0
8.865728750E0,3.208727417E0,6.580166473E0,7.177274780E0,1.025220931E1
8.875736750E0,3.493435364E0,5.934559021E0,9.090895386E0,1.140471220E1
8.885745750E0,3.402873688E0,5.277575226E0,9.878707123E0,1.170560567E1
8.895753750E0,3.038681030E0,5.077291718E0,9.508526917E0,1.119931059E1
8.905761750E0,2.060614929E0,5.715115356E0,7.722141724E0,9.825484732E0
8.915770750E0,5.081932068E-1,6.452182617E0,4.811594238E0,8.064760379E0
8.925778750E0,-1.128802643E0,6.632258148E0,2.370171204E0,7.132934535E0
8.935786750E0,-2.994073792E0,7.020251312E0,1.200054474E0,7.725835689E0
8.945795750E0,-4.839586029E0,7.642657013E0,9.857002258E-1,9.099637580E0
8.955803750E0,-5.781128082E0,8.196804657E0,1.083596649E0,1.008876753E1
8.965811750E0,-6.057902527E0,8.718769226E0,9.830058289E-1,1.066214895E1
8.975819750E0,-5.295687561E0,9.155560913E0,5.469625854E-1,1.059092869E1
8.985828750E0,-3.398981781E0,9.295370178E0,2.755769348E-1,9.901157839E0
8.995836750E0,-2.070344696E0,9.119336243E0,6.497987366E-1,9.373945758E0
9.005844750E0,-1.366957397E0,9.002429352E0,1.326391754E0,9.201718418E0
9.015853750E0,-1.025966492E0,9.024882660E0,1.917063446E0,9.283116208E0
9.025861750E0,-8.843609619E-1,9.005572815E0,2.426154785E0,9.368493106E0
9.035869750E0,-6.331832886E-1,8.855435028E0,3.061284027E0,9.391012220E0
9.045878750E0,-2.401007080E-1,8.658744049E0,3.874542847E0,9.489129524E0
9.055886750E0,2.673440552E-1,8.476722565E0,4.736899567E0,9.714139992E0
9.065894750E0,8.707392883E-1,8.332272949E0,5.630092163E0,1.009370582E1
9.075903750E0,1.550625458E0,8.351882172E0,6.288572845E0,1.056903607E1
9.085911750E0,2.319277039E0,8.640931091E0,6.646927643E0,1.114568900E1
9.095919750E0,2.904859314E0,9.286987610E0,6.620133362E0,1.176913388E1
9.105927750E0,3.222049713E0,1.014709900E1,6.177952881E0,1.230903425E1
9.115936750E0,3.325185242E0,1.095032867E1,5.280119934E0,1.260342102E1
9.125944750E0,3.200045471E0,1.143067978E1,4.304897919E0,1.262667325E1
9.135952750E0,2.998863831E0,1.165027313E1,3.934568024E0,1.265712739E1
9.145961750E0,2.737507324E0,1.181792450E1,3.898343353E0,1.274183530E1
9.155969750E0,2.424508209E0,1.169592819E1,3.821553040E0,1.254102245E1
9.165977750E0,2.118394775E0,1.162707138E1,3.812721405E0,1.241826195E1
9.175986750E0,1.759441223E0,1.212538513E1,3.852688293E0,1.284382362E1
9.185994750E0,1.349593506E0,1.326197159E1,3.789369965E0,1.385859364E1
9.196002750E0,9.672885132E-1,1.473909988E1,3.748504944E0,1.523902890E1
9.206011750E0,5.751040649E-1,1.602836884E1,3.619622955E0,1.644205044E1
9.216019750E0,6.885681152E-2,1.610950012E1,3.037184143E0,1.639345061E1
9.226027750E0,-4.890330505E-1,1.401221146E1,2.127376099E0,1.418121829E1
9.236035750E0,-8.128097534E-1,1.127500351E1,1.472787323E0,1.139980115E1
9.246044750E0,-9.885443115E-1,9.445507965E0,1.052910461E0,9.555284455E0
9.256052750E0,-1.387015686E0,8.193661194E0,8.601113892E-1,8.354620750E0
9.266060750E0,-2.152523804E0,7.515122223E0,1.200353851E0,7.908936093E0
9.276069750E0,-2.468367004E0,7.352260895E0,1.526226196E0,7.904298978E0
9.286077750E0,-2.771336975E0,7.751031647E0,1.302890625E0,8.334046088E0
9.296085750E0,-3.184028778E0,8.603209534E0,3.070115662E-1,9.178644216E0
9.306094750E0,-3.497177582E0,1.002510269E1,-1.368154907E0,1.070536234E1
9.316102750E0,-3.668271790E0,1.154354507E1,-2.944826202E0,1.246521769E1
9.326110750E0,-3.589834900E0,1.224019638E1,-3.370989990E0,1.319366877E1
9.336119750E0,-3.319497070E0,1.186717209E1,-2.526895294E0,1.257911102E1
9.346127750E0,-2.726729736E0,1.083027832E1,-9.357041931E-1,1.120738711E1
9.356135750E0,-2.069596252E0,9.831704865E0,1.695973206E-1,1.004860251E1
9.366144750E0,-1.634451141E0,8.943451996E0,6.336323547E-1,9.113630127E0
9.376152750E0,-1.351240082E0,8.159981232E0,8.919950867E-1,8.319062369E0
9.386160750E0,-1.135239258E0,7.560028839E0,9.080117798E-1,7.698525158E0
9.396168750E0,-1.055904236E0,7.279362488E0,8.604107666E-1,7.405697717E0
9.406177750E0,-1.105900269E0,7.409292297E0,8.461903381E-1,7.539009606E0
9.416185750E0,-1.351539459E0,7.874225464E0,9.493258667E-1,8.045576745E0
9.426193750E0,-1.845063171E0,8.524473267E0,1.152303772E0,8.797653469E0
9.436202750E0,-2.198927307E0,9.031319275E0,1.300046539E0,9.385634243E0
9.446210750E0,-2.423161011E0,9.376351776E0,1.249601440E0,9.764690762E0
9.456218750E0,-2.590962067E0,9.573342133E0,1.106798401E0,9.979326967E0
9.466227750E0,-2.725532227E0,9.493707733E0,9.849517822E-1,9.926184688E0
9.476235750E0,-2.808010712E0,9.275162201E0,1.072220306E0,9.750036636E0
9.486243750E0,-2.814447327E0,8.976533203E0,1.190474396E0,9.482430669E0
9.496252750E0,-2.659519501E0,8.488847351E0,1.236578522E0,8.981241549E0
9.506260750E0,-2.364333344E0,8.008795624E0,1.155447235E0,8.430061555E0
9.516268750E0,-2.077679443E0,7.655230865E0,1.113085327E0,8.009885793E0
9.526277750E0,-1.606309662E0,7.512278137E0,1.166973267E0,7.770223944E0
9.536285750E0,-1.191971283E0,7.674241333E0,1.451381836E0,7.900714196E0
9.546293750E0,-9.372010803E-1,8.113577728E0,2.000739441E0,8.409009914E0
9.556302750E0,-6.985972595E-1,8.695717163E0,2.675685883E0,9.124846851E0
9.566310750E0,-4.688250732E-1,9.286239166E0,3.284769287E0,9.861224268E0
9.576318750E0,-1.808239746E-1,9.806108093E0,3.703448639E0,1.048370092E1
9.586326750E0,1.281335449E-1,1.014245865E1,3.879332886E0,1.085979324E1
9.596335750E0,5.147795105E-1,1.023032593E1,3.707190857E0,1.089347651E1
9.606343750E0,8.608598328E-1,1.017030075E1,3.346590729E0,1.074131121E1
9.616351750E0,1.273401947E0,1.014635056E1,2.624941406E0,1.055747600E1
9.626360750E0,1.814227295E0,1.015323624E1,6.750961304E-1,1.033612024E1
9.636368750E0,2.502046967E0,1.023167313E1,-1.592538300E0,1.065286592E1
9.646376750E0,2.931803284E0,1.012150223E1,-2.626138916E0,1.085987493E1
9.656385750E0,3.067121887E0,9.580826569E0,-1.879491577E0,1.023386354E1
9.666393750E0,2.886447601E0,8.950637054E0,-1.646575928E-1,9.405987219E0
9.676401750E0,2.560724945E0,8.619525604E0,1.357676697E0,9.093779187E0
9.686410750E0,2.316432953E0,8.435258789E0,2.309397583E0,9.047252050E0
9.696418750E0,2.241887970E0,8.478967896E0,2.637365570E0,9.158310728E0
9.706427458E0,2.057621155E0,8.606502686E0,2.592608643E0,9.221025586E0
9.716436458E0,1.801653442E0,8.631500702E0,2.218686218E0,9.092377468E0
9.726444458E0,1.571581879E0,8.608748016E0,1.787882080E0,8.931793456E0
9.736452458E0,1.355730743E0,8.623417511E0,1.494941254E0,8.856420539E0
9.746461458E0,1.185684357E0,8.795409851E0,1.420396271E0,8.987914519E0
9.756469458E0,9.806108093E-1,9.069040833E0,1.613794098E0,9.263553885E0
9.766477458E0,7.120692444E-1,9.507179718E0,1.941762085E0,9.729540009E0
9.776485458E0,3.725752258E-1,1.012240036E1,2.410437469E0,1.041210882E1
9.786494458E0,-5.239105225E-2,1.078133011E1,2.943928070E0,1.117615928E1
9.796502458E0,-5.571414185E-1,1.145208527E1,3.371289368E0,1.195099391E1
9.806510458E0,-1.123563538E0,1.198063614E1,3.685785370E0,1.258503282E1
9.816519458E0,-1.584006042E0,1.223061630E1,3.939208374E0,1.294659851E1
9.826527458E0,-1.841770020E0,1.217388428E1,4.117787018E0,1.298274798E1
9.836535458E0,-1.815275116E0,1.195249466E1,4.340972900E0,1.284528700E1
9.846544458E0,-1.607656860E0,1.189740921E1,4.442162476E0,1.280100441E1
9.856552458E0,-1.212628326E0,1.189860672E1,4.228406982E0,1.268569016E1
9.866560458E0,-5.625302124E-1,1.159803177E1,3.728147278E0,1.219548536E1
9.876569458E0,-2.053729248E-1,1.173065598E1,2.988984375E0,1.210720840E1
9.886577458E0,-5.388793945E-1,1.218106934E1,1.809437256E0,1.232651225E1
9.896585458E0,-1.187779999E0,1.248493744E1,5.117857361E-1,1.255174923E1
9.906594458E0,-1.788480835E0,1.235665421E1,-1.062041473E0,1.253050274E1
9.916602458E0,-2.036365356E0,1.173933792E1,-2.848127289E0,1.225033337E1
9.926610458E0,-2.233954468E0,1.083536774E1,-4.546196136E0,1.196092161E1
9.936619458E0,-2.611619110E0,9.954449615E0,-5.907315674E0,1.186625467E1
9.946627458E0,-3.315605164E0,9.073830872E0,-6.781348114E0,1.180314901E1
9.956635458E0,-4.308939514E0,8.437204742E0,-6.673871613E0,1.158852648E1
9.966643458E0,-4.815785522E0,8.517886963E0,-3.717369690E0,1.046733137E1
9.976652458E0,-3.757336578E0,9.097481689E0,-5.412744141E-1,9.857724344E0
9.986660458E0,-2.084265747E0,9.652228088E0,1.620979156E0,1.000685986E1
9.996668458E0,-1.023870850E0,1.028196854E1,2.258204041E0,1.057670431E1
1.000667746E1,-3.101550293E-1,1.099598373E1,2.469115448E0,1.127405808E1
1.001668546E1,7.080276489E-1,1.169532944E1,2.399210815E0,1.195985980E1
1.002669346E1,1.781595154E0,1.228540237E1,1.732796631E0,1.253426412E1
1.003670246E1,2.718496857E0,1.329639999E1,-2.631527710E-1,1.357400926E1
1.004671046E1,3.723806305E0,1.457474167E1,-2.681074677E0,1.527998657E1
1.005671846E1,4.827760620E0,1.536704407E1,-4.371659088E0,1.669025821E1
1.006672746E1,5.348827057E0,1.501093460E1,-2.913990326E0,1.619967432E1
1.007673546E1,5.901627502E0,1.344803467E1,1.540147247E0,1.476654655E1
1.008674346E1,6.508764954E0,1.147334106E1,4.273612976E0,1.386597794E1
1.009675246E1,7.192393341E0,9.268426208E0,5.699248352E0,1.304284011E1
1.010676046E1,7.138954468E0,7.143594818E0,7.214846649E0,1.241167313E1
1.011676846E1,6.112987976E0,5.439239044E0,8.053402863E0,1.148090768E1
1.012677746E1,4.107907562E0,5.069956970E0,6.972949677E0,9.549942168E0
1.013678546E1,1.850002899E0,5.743705902E0,4.662504272E0,7.625720576E0
1.014679346E1,-1.727407837E-1,6.731352081E0,2.899470520E0,7.331293850E0
1.015680246E1,-1.958527222E0,7.551496582E0,2.368824005E0,8.153051985E0
1.016681046E1,-3.812272339E0,8.136480103E0,3.250041504E0,9.555024784E0
1.017681846E1,-5.052892456E0,8.457861786E0,4.264631653E0,1.073565235E1
1.018682746E1,-5.870192871E0,8.599617004E0,4.912334747E0,1.151275856E1
1.019683546E1,-6.067632294E0,8.256829834E0,5.054988098E0,1.142559868E1
1.020684346E1,-5.933660889E0,7.664361877E0,4.586462402E0,1.072317173E1
1.021685146E1,-5.115612030E0,6.769223328E0,4.061204681E0,9.406660107E0
1.022686046E1,-3.533551941E0,6.406228180E0,3.609893188E0,8.158252119E0
1.023686846E1,-1.952689362E0,6.875053253E0,3.328478394E0,7.884042199E0
1.024687646E1,-9.168434143E-1,7.571854248E0,3.131488037E0,8.244986108E0
1.025688546E1,-1.510359192E-1,8.074059906E0,3.180136871E0,8.679085536E0
1.026689346E1,3.375480652E-1,8.349636841E0,3.523373108E0,9.068877115E0
1.027690146E1,7.373666382E-1,8.597970428E0,4.001029816E0,9.511942211E0
1.028691046E1,8.318202209E-1,8.898545380E0,4.145479431E0,9.851955870E0
1.029691846E1,9.080117798E-1,9.394164734E0,4.239633636E0,1.034646364E1
1.030692646E1,1.082399139E0,1.002600082E1,4.165537720E0,1.091072797E1
1.031693546E1,1.312321014E0,1.053763687E1,3.816912689E0,1.128418361E1
1.032694346E1,1.517244873E0,1.101454514E1,3.213517456E0,1.157363085E1
1.033695146E1,1.327888641E0,1.141825562E1,2.289788361E0,1.172104860E1
1.034696046E1,5.590873718E-1,1.147798141E1,1.231788483E0,1.155741922E1
1.035696846E1,-1.341210938E-1,1.121901993E1,7.828720093E-2,1.122009472E1
1.036697646E1,-5.369334412E-1,1.074121353E1,-4.864883423E-1,1.076562291E1
1.037698546E1,-8.202941895E-1,1.007270370E1,-7.439529419E-2,1.010632362E1
1.038699346E1,-9.909393311E-1,9.453740845E0,5.225633240E-1,9.519887034E0
1.039700146E1,-1.218466187E0,9.011560364E0,1.006656647E0,9.149111303E0
1.040701046E1,-1.580862579E0,8.771459656E0,1.218316498E0,8.995661514E0
1.041701846E1,-2.137105865E0,8.735384674E0,1.100361786E0,9.060075217E0
1.042702646E1,-3.005150757E0,8.856183472E0,9.223818970E-1,9.397537184E0
1.043703546E1,-3.905977478E0,8.954528961E0,1.140029297E0,9.835645163E0
1.044704346E1,-4.267026672E0,8.866661682E0,1.603465576E0,9.969769700E0
1.045705146E1,-4.281396790E0,8.568332062E0,2.100132751E0,9.805979317E0
1.046706046E1,-3.883374481E0,8.488248596E0,1.927391968E0,9.531306384E0
1.047706846E1,-3.857927399E0,8.917705536E0,1.664688263E0,9.858005014E0
1.048707646E1,-4.206552429E0,9.430988159E0,1.552721100E0,1.044267992E1
1.049708546E1,-4.547243958E0,1.018931122E1,1.416055298E0,1.124743097E1
1.050709346E1,-5.076094208E0,1.100182159E1,1.497036896E0,1.220851876E1
1.051710146E1,-5.792205048E0,1.176598251E1,1.695673828E0,1.322358853E1
1.052710946E1,-6.418652344E0,1.236728210E1,1.829196167E0,1.405328158E1
1.053711846E1,-6.946005707E0,1.263627274E1,1.858834534E0,1.453883248E1
1.054712646E1,-7.239694977E0,1.244571899E1,1.646875305E0,1.449211175E1
1.055713446E1,-7.248825989E0,1.177601166E1,1.384021912E0,1.389731792E1
1.056714346E1,-6.994504852E0,1.077803696E1,1.300495605E0,1.291435123E1
1.057715146E1,-6.541696472E0,9.618847504E0,1.206042023E0,1.169489450E1
1.058715946E1,-5.715564423E0,8.476123810E0,1.523082733E0,1.033596307E1
1.059716846E1,-4.855602722E0,7.570806427E0,1.695524139E0,9.152529151E0
1.060717646E1,-4.182602234E0,6.963968353E0,1.778002625E0,8.315786794E0
1.061718446E1,-3.517984314E0,6.601272583E0,2.019300842E0,7.747940968E0
1.062719346E1,-2.971919861E0,6.642137604E0,2.367027740E0,7.652001041E0
1.063720146E1,-2.620151367E0,7.054530029E0,2.725083160E0,8.003603273E0
1.064720946E1,-2.347418518E0,7.585026855E0,3.007545776E0,8.490485127E0
1.065721846E1,-2.199076996E0,8.237819366E0,3.268752594E0,9.131393709E0
1.066722646E1,-2.102827148E0,8.965156860E0,3.437751160E0,9.829244762E0
1.067723446E1,-2.016456757E0,9.843230896E0,3.572770386E0,1.066395708E1
1.068724346E1,-1.859732666E0,1.076321777E1,3.636837158E0,1.151225638E1
1.069725146E1,-1.616937561E0,1.150791916E1,3.464395752E0,1.212636501E1
1.070725921E1,-1.385219421E0,1.186432800E1,2.919528809E0,1.229653448E1
1.071726821E1,-1.204694824E0,1.185055664E1,2.116448822E0,1.209819565E1
1.072727621E1,-1.038240967E0,1.121557709E1,1.236578522E0,1.133120647E1
1.073728421E1,-9.388476562E-1,1.024888733E1,4.653822327E-1,1.030231561E1
1.074729321E1,-9.282197571E-1,9.364526367E0,-1.701960754E-1,9.411955838E0
1.075730121E1,-9.925859070E-1,8.640631714E0,-6.734495544E-1,8.723489984E0
1.076730921E1,-1.082249451E0,8.152496796E0,-1.088536377E0,8.295744651E0
1.077731821E1,-1.135987701E0,7.789801025E0,-1.440903625E0,8.002978904E0
1.078732621E1,-1.177301788E0,7.523055725E0,-1.751807098E0,7.813528976E0
1.079733421E1,-1.205143890E0,7.408094788E0,-1.995051270E0,7.766110336E0
1.080734321E1,-1.297801208E0,7.528893585E0,-2.180216217E0,7.944927271E0
1.081735121E1,-1.561403046E0,7.932154999E0,-2.230960693E0,8.386551616E0
1.082735921E1,-1.974992981E0,8.517737274E0,-1.977986755E0,8.964645958E0
1.083736821E1,-2.607128448E0,9.293124847E0,-1.559008026E0,9.777003334E0
1.084737621E1,-3.466790771E0,1.021131546E1,-1.056353302E0,1.083538112E1
1.085738421E1,-4.479584656E0,1.107861191E1,-3.348536682E-1,1.195468308E1
1.086739321E1,-5.497318268E0,1.180939224E1,5.806425476E-1,1.303914871E1
1.087740121E1,-6.374494171E0,1.235650452E1,1.521136780E0,1.398682369E1
1.088740921E1,-7.362589417E0,1.265812729E1,3.163222046E0,1.498138455E1
1.089741821E1,-7.817643127E0,1.232102829E1,4.289629669E0,1.520934597E1
1.090742621E1,-7.460635529E0,1.134041748E1,3.685485992E0,1.406587922E1
1.091743421E1,-6.907835083E0,1.022778122E1,2.672542419E0,1.262807100E1
1.092744221E1,-6.395001526E0,9.182055817E0,1.877395935E0,1.134596003E1
1.093745121E1,-6.015390930E0,8.360115051E0,1.394500122E0,1.039331912E1
1.094745921E1,-5.618416443E0,7.670349426E0,1.261726227E0,9.591288585E0
1.095746721E1,-5.270988922E0,7.203919373E0,1.275497589E0,9.017021273E0
1.096747621E1,-4.948110352E0,6.873556366E0,1.425186310E0,8.588406673E0
1.097748421E1,-4.641847229E0,6.819069672E0,1.640738068E0,8.410616998E0
1.098749221E1,-4.329746246E0,6.962172089E0,1.895358582E0,8.414922870E0
1.099750121E1,-4.085454254E0,7.161856842E0,2.196981354E0,8.532869210E0
1.100750921E1,-3.927532654E0,7.450756073E0,2.382745056E0,8.753099611E0
1.101751721E1,-3.877087555E0,7.826474762E0,2.294428711E0,9.030499334E0
1.102752621E1,-3.959865417E0,8.350684662E0,2.091600494E0,9.475719554E0
1.103753421E1,-4.159699860E0,9.103469238E0,2.441423035E0,1.030227167E1
1.104754221E1,-4.412973175E0,1.019649628E1,3.082539825E0,1.153017434E1
1.105755121E1,-4.710105286E0,1.165536255E1,3.446732483E0,1.303505016E1
1.106755921E1,-5.016967163E0,1.285676422E1,3.133883057E0,1.415229906E1
1.107756721E1,-5.250631256E0,1.328367645E1,2.115401001E0,1.443953289E1
1.108757621E1,-5.305567017E0,1.305764648E1,1.308578796E0,1.415498328E1
1.109758421E1,-5.176834717E0,1.238284973E1,8.515791321E-1,1.344841151E1
1.110759221E1,-4.906796265E0,1.122785156E1,4.825964355E-1,1.226271583E1
1.111760121E1,-4.520150299E0,9.879605255E0,1.839674377E-1,1.086610338E1
1.112760921E1,-4.110751648E0,8.670270081E0,-4.775070190E-2,9.595527214E0
1.113761721E1,-3.571872253E0,7.591762848E0,-1.339714050E-1,8.391131203E0
1.114762621E1,-2.983296204E0,6.798712006E0,-1.157093811E-1,7.425357219E0
1.115763421E1,-2.424807587E0,6.435417480E0,-1.128652954E-1,6.878010509E0
1.116764221E1,-2.038460999E0,6.779851227E0,2.604583740E-2,7.079716399E0
1.117765121E1,-1.859133911E0,7.777526550E0,4.185296631E-1,8.007587978E0
1.118765921E1,-1.731449432E0,8.914262695E0,8.297245789E-1,9.118686277E0
1.119766721E1,-1.570384369E0,1.013602203E1,1.124611359E0,1.031842044E1
1.120767621E1,-1.309177551E0,1.151540359E1,1.204994202E0,1.165205891E1
1.121768421E1,-1.396595764E-1,1.339250015E1,-1.114881592E0,1.343955081E1
1.122769221E1,4.146676941E0,1.681857559E1,-1.784813461E1,2.487197869E1
1.123770121E1,4.984634399E0,1.773975998E1,-1.434691544E1,2.335336478E1
1.124770921E1,3.499422913E0,1.604663086E1,-4.654121704E0,1.707047660E1
1.125771721E1,4.221221924E0,1.467383560E1,-1.870659943E0,1.538309249E1
1.126772621E1,4.470004578E0,1.342109070E1,1.627266083E0,1.423919279E1
1.127773421E1,4.673880615E0,1.201087326E1,3.827989655E0,1.344469194E1
1.128774221E1,4.547842712E0,1.039378601E1,4.431384888E0,1.217993567E1
1.129775121E1,3.669768677E0,8.959169312E0,2.979254608E0,1.012965325E1
1.130775921E1,2.498454437E0,7.914791107E0,1.538800049E0,8.441214275E0
1.131776721E1,1.248852997E0,7.391629028E0,9.125024414E-1,7.551719950E0
1.132777621E1,9.789642334E-2,7.311994629E0,4.583468628E-1,7.327000137E0
1.133778421E1,-5.665718079E-1,7.430099030E0,2.517764282E-1,7.455921578E0
1.134779221E1,-7.246430969E-1,7.276817780E0,4.779560852E-1,7.328412286E0
1.135780121E1,-7.689509583E-1,6.901697845E0,1.172511749E0,7.042691426E0
1.136780921E1,-8.005352783E-1,6.731801147E0,2.711162109E0,7.301260398E0
1.137781721E1,-8.158035278E-1,6.935228119E0,4.612657928E0,8.368962757E0
1.138782621E1,-8.381071472E-1,7.290589142E0,6.342760162E0,9.699779384E0
1.139783421E1,-9.205856323E-1,7.676786041E0,7.178621979E0,1.055050403E1
1.140784221E1,-1.251098328E0,8.107440491E0,7.314239960E0,1.099062985E1
1.141785121E1,-1.794917450E0,8.466693420E0,6.819967804E0,1.101901025E1
1.142785921E1,-2.332299957E0,8.594228210E0,5.578000488E0,1.050782904E1
1.143786721E1,-2.653531952E0,8.360713806E0,4.739294586E0,9.970139434E0
1.144787621E1,-3.229683838E0,8.309071198E0,3.811523895E0,9.695320328E0
1.145788421E1,-3.993695068E0,8.410410461E0,2.752176819E0,9.708711638E0
1.146789221E1,-4.414769440E0,8.550219727E0,1.765578461E0,9.783338586E0
1.147790121E1,-4.145479431E0,8.797655182E0,7.562274170E-1,9.754774027E0
1.148790921E1,-3.275937653E0,9.006021881E0,-5.044509888E-2,9.583461918E0
1.149791721E1,-2.387684784E0,9.198371887E0,-3.526666260E-1,9.509755925E0
1.150792621E1,-1.607207794E0,9.419013062E0,8.607101440E-2,9.555539345E0
1.151793421E1,-8.550219727E-1,9.616602173E0,1.232387238E0,9.732876154E0
1.152794221E1,-4.076023865E-1,9.656419373E0,1.979034576E0,9.865553845E0
1.153795121E1,-1.324745178E-1,9.574090576E0,2.310894470E0,9.849923508E0
1.154795921E1,2.679428101E-2,9.545050964E0,2.584076385E0,9.888688822E0
1.155796721E1,1.535806274E-1,9.482181702E0,3.010838928E0,9.949899893E0
1.156797621E1,3.050656128E-1,9.310488739E0,3.587589569E0,9.982437804E0
1.157798421E1,4.799020386E-1,9.023086395E0,4.149970093E0,9.943271385E0
1.158799221E1,5.776487732E-1,8.817563782E0,4.457730103E0,9.897194896E0
1.159800121E1,5.468128967E-1,8.798104248E0,4.312831421E0,9.813570073E0
1.160800921E1,4.083508301E-1,8.927135925E0,3.953428802E0,9.771903884E0
1.161801721E1,1.601669312E-1,9.251661072E0,3.713328094E0,9.970340594E0
1.162802621E1,-1.022373962E-1,9.691296844E0,3.568130035E0,1.032778965E1
1.163803421E1,-2.942880249E-1,1.014320709E1,3.574117584E0,1.075851161E1
1.164804221E1,-4.420307922E-1,1.061801971E1,3.701352997E0,1.125334385E1
1.165805121E1,-5.477110291E-1,1.103580093E1,4.012705536E0,1.175545386E1
1.166805921E1,-5.825885010E-1,1.129940277E1,4.433330841E0,1.215196835E1
1.167806721E1,-5.134323120E-1,1.126392654E1,4.910688171E0,1.229855732E1
1.168807621E1,-3.198847961E-1,1.078058167E1,5.247936859E0,1.199433652E1
1.169808421E1,-5.523513794E-2,9.934541016E0,5.170098724E0,1.119946771E1
1.170809208E1,2.366578674E-1,9.119336243E0,4.973258057E0,1.038997575E1
1.171810108E1,4.830455017E-1,8.582851868E0,4.854405212E0,9.872382139E0
1.172810908E1,6.521937561E-1,8.423433380E0,4.657564545E0,9.647408672E0
1.173811708E1,6.331832886E-1,8.805289307E0,4.306694183E0,9.822507604E0
1.174812608E1,3.776646423E-1,9.690398712E0,3.814817047E0,1.042109816E1
1.175813408E1,6.361770630E-2,1.096275284E1,3.362008667E0,1.146686964E1
1.176814208E1,-2.145039368E-1,1.255948242E1,2.968477020E0,1.290730283E1
1.177815108E1,-4.833448792E-1,1.449241287E1,2.604883118E0,1.473258529E1
1.178815908E1,-1.042282562E0,1.615710114E1,1.518143005E0,1.626170435E1
1.179816708E1,-2.199376373E0,1.615111359E1,-2.412982178E-1,1.630196158E1
1.180817608E1,-3.071013794E0,1.378363678E1,-8.428971863E-1,1.414673970E1
1.181818408E1,-3.118016052E0,1.096185471E1,-7.167095947E-1,1.141919241E1
1.182819208E1,-2.524799652E0,8.900341644E0,-7.649093628E-2,9.251840116E0
1.183820108E1,-1.501527557E0,7.642507324E0,1.233734436E0,7.885721518E0
1.184820908E1,-5.915698242E-1,7.209607544E0,2.350412292E0,7.606105031E0
1.185821708E1,-2.856060791E-1,7.511529694E0,2.562072144E0,7.941590700E0
1.186822608E1,-3.616479492E-1,8.444838867E0,2.517315216E0,8.819465326E0
1.187823408E1,-5.888754272E-1,9.630672913E0,2.304158478E0,9.919968816E0
1.188824208E1,-9.318122864E-1,1.063253952E1,1.670975189E0,1.080330176E1
1.189825108E1,-1.311273193E0,1.143292511E1,8.990304565E-1,1.154294025E1
1.190825908E1,-1.520088959E0,1.175924652E1,2.173480225E-1,1.185908046E1
1.191826708E1,-1.568588104E0,1.165371597E1,-2.885998535E-1,1.176234902E1
1.192827608E1,-1.556163940E0,1.093820389E1,-6.515950012E-1,1.106754384E1
1.193828408E1,-1.569785614E0,9.922266541E0,-7.988887024E-1,1.007739169E1
1.194829308E1,-1.583706665E0,9.001680908E0,-7.078779602E-1,9.167304794E0
1.195830108E1,-1.633702698E0,8.283624115E0,-4.758604431E-1,8.456586554E0
1.196830908E1,-1.703307953E0,7.902217255E0,-2.866539001E-1,8.088786434E0
1.197831808E1,-1.885928192E0,7.863298187E0,-1.790277100E-1,8.088277595E0
1.198832608E1,-2.194436646E0,8.050109711E0,1.766326904E-2,8.343867840E0
1.199833408E1,-2.656226349E0,8.374934235E0,3.004252625E-1,8.791206811E0
1.200834308E1,-3.095712433E0,8.665330353E0,5.852828979E-1,9.220300519E0
1.201835108E1,-3.503763885E0,8.953181763E0,8.144563293E-1,9.648790813E0
1.202835908E1,-3.867357788E0,9.197922821E0,9.177415466E-1,1.002000449E1
1.203836808E1,-4.181853790E0,9.283095703E0,8.285270691E-1,1.021519574E1
1.204837608E1,-4.290976868E0,9.206604767E0,6.731501770E-1,1.017974386E1
1.205838408E1,-4.300257568E0,9.078620911E0,5.273533630E-1,1.005940726E1
1.206839308E1,-4.000281372E0,8.757688293E0,6.441105652E-1,9.649571686E0
1.207840108E1,-3.561094666E0,8.312514038E0,7.863148499E-1,9.077311050E0
1.208840908E1,-3.049907684E0,7.816295929E0,7.104226685E-1,8.420280239E0
1.209841808E1,-2.535726929E0,7.434739380E0,6.994953918E-1,7.886352421E0
1.210842608E1,-2.070045319E0,7.463479614E0,9.132508850E-1,7.798887277E0
1.211843408E1,-1.705702972E0,7.782466278E0,1.274898834E0,8.068554458E0
1.212844308E1,-1.443598022E0,8.140072632E0,1.682052155E0,8.436471843E0
1.213845108E1,-1.252146149E0,8.526119843E0,1.856888580E0,8.815362996E0
1.214845908E1,-1.132993927E0,8.939709778E0,1.952240295E0,9.220267259E0
1.215846808E1,-9.277706909E-1,9.342671814E0,2.054627380E0,9.610815197E0
1.216847608E1,-7.053332520E-1,9.719288635E0,2.108814697E0,9.970414535E0
1.217848408E1,-4.701722717E-1,9.953551483E0,2.110760651E0,1.018575278E1
1.218849308E1,-1.999841309E-1,9.987830200E0,2.090103607E0,1.020613927E1
1.219850108E1,1.080752563E-1,9.824220428E0,2.017803955E0,1.002988136E1
1.220850908E1,3.573069763E-1,9.512718201E0,1.802701263E0,9.688612268E0
1.221851808E1,5.143304443E-1,9.202114105E0,1.462009735E0,9.331715398E0
1.222852608E1,6.565347290E-1,9.015302582E0,1.066681824E0,9.101896978E0
1.223853408E1,8.647517395E-1,8.956474915E0,4.996609497E-1,9.011986436E0
1.224854308E1,1.053808594E0,8.977880402E0,-3.442840576E-2,9.039581537E0
1.225855108E1,1.180145874E0,9.075627136E0,-2.492317200E-1,9.155428371E0
1.226855908E1,1.237626343E0,9.112300873E0,9.445358276E-2,9.196448643E0
1.227856808E1,1.252595215E0,8.988508301E0,8.789721680E-1,9.117832435E0
1.228857608E1,1.251547394E0,8.848998413E0,1.585802307E0,9.076668593E0
1.229858408E1,1.297801208E0,8.804540863E0,1.892215118E0,9.098610105E0
1.230859308E1,1.364263000E0,8.803493042E0,2.122735748E0,9.157986150E0
1.231860108E1,1.359622650E0,8.926237793E0,2.369572449E0,9.334943410E0
1.232860908E1,1.299447784E0,9.246571655E0,2.610571289E0,9.695500728E0
1.233861808E1,1.178050232E0,9.634265442E0,2.873574371E0,1.012246524E1
1.234862608E1,9.728269958E-1,9.994416504E0,3.141666870E0,1.052163601E1
1.235863408E1,7.481442261E-1,1.028750702E1,3.314557343E0,1.083415021E1
1.236864308E1,4.743635559E-1,1.048045578E1,3.268752594E0,1.098861764E1
1.237865108E1,2.049238586E-1,1.061263092E1,3.195255432E0,1.108510650E1
1.238865908E1,-4.086502075E-2,1.059930862E1,3.210224304E0,1.107486132E1
1.239866808E1,-2.710862732E-1,1.059421921E1,3.188070374E0,1.106683157E1
1.240867608E1,-5.125341797E-1,1.061143341E1,3.237617340E0,1.110618640E1
1.241868408E1,-7.083270264E-1,1.057131683E1,3.386258240E0,1.112300371E1
1.242869308E1,-7.421566772E-1,1.045096710E1,3.647914124E0,1.109417808E1
1.243870108E1,-6.168672180E-1,1.035157379E1,3.894301758E0,1.107705698E1
1.244870908E1,-3.647914124E-1,1.038645126E1,3.943699036E0,1.111594372E1
1.245871808E1,-5.987548828E-3,1.070439011E1,3.940555573E0,1.140666391E1
1.246872608E1,3.543132019E-1,1.131317413E1,3.876039734E0,1.196399310E1
1.247873508E1,6.399192810E-1,1.218900284E1,3.513343964E0,1.270137287E1
1.248874308E1,8.451425171E-1,1.289523422E1,2.521955566E0,1.316668491E1
1.249875108E1,8.538244629E-1,1.321871155E1,-1.652563477E-1,1.324728881E1
1.250876008E1,-4.345463562E-1,1.384261414E1,-1.368005219E0,1.391683279E1
1.251876808E1,-1.258882141E0,1.382749557E1,-1.977388000E0,1.402478098E1
1.252877608E1,-1.603166199E0,1.307456131E1,-3.182980957E0,1.355159264E1
1.253878508E1,-2.001637573E0,1.190204956E1,-5.556894379E0,1.328700161E1
1.254879308E1,-2.463876343E0,1.049766998E1,-8.129295044E0,1.350396977E1
1.255880108E1,-3.009042664E0,9.136251068E0,-1.067684738E1,1.437082083E1
1.256881008E1,-3.522924042E0,9.193581848E0,-7.076384583E0,1.212469215E1
1.257881808E1,-2.663112030E0,1.076261902E1,3.290158081E-1,1.109208660E1
1.258882608E1,-1.200054474E0,1.199081497E1,4.334236908E0,1.280645868E1
1.259883508E1,-5.418731689E-1,1.261007721E1,5.306914215E0,1.369200541E1
1.260884308E1,-2.335144043E-1,1.252116211E1,4.069138184E0,1.316783639E1
1.261885108E1,1.977388000E-1,1.206685684E1,1.383423157E0,1.214750980E1
1.262886008E1,8.102650452E-1,1.180355438E1,-9.136999512E-1,1.186656113E1
1.263886808E1,1.306333466E0,1.172062683E1,-2.332749023E0,1.202170198E1
1.264887608E1,1.510957947E0,1.160282181E1,-3.058290253E0,1.209386651E1
1.265888508E1,1.528172150E0,1.118219650E1,-3.586092682E0,1.184216574E1
1.266889308E1,1.487007751E0,1.025173141E1,-3.387006683E0,1.089866980E1
1.267890108E1,1.516197052E0,9.101074219E0,-1.450184326E0,9.339777300E0
1.268891008E1,1.673370209E0,8.117020569E0,1.512754211E0,8.424643380E0
1.269891808E1,2.283202057E0,6.966063995E0,5.319488068E0,9.057373379E0
1.270892908E1,2.823278961E0,6.091283112E0,7.848179626E0,1.032804713E1
1.271893808E1,3.151097260E0,5.752836914E0,9.284143524E0,1.136749170E1
1.272894608E1,3.161425781E0,5.732928314E0,9.685458984E0,1.169056011E1
1.273895408E1,2.621648254E0,6.163433075E0,8.996741180E0,1.121616239E1
1.274896308E1,1.428329773E0,7.035519562E0,6.752458191E0,9.855676185E0
1.275897108E1,1.392105103E-1,7.368726654E0,4.388424225E0,8.577632497E0
1.276897908E1,-9.487271118E-1,7.528145142E0,2.966531067E0,8.146984655E0
1.277898808E1,-2.828218689E0,7.938591614E0,1.434916077E0,8.548628072E0
1.278899608E1,-4.857848053E0,8.799900513E0,9.222322083E-1,1.009393129E1
1.279900508E1,-5.509592743E0,9.372010803E0,7.271878052E-1,1.089582492E1
1.280901308E1,-5.441484375E0,9.609866180E0,4.050576782E-1,1.105094349E1
1.281902108E1,-4.124972076E0,9.391769714E0,-7.888595581E-2,1.025801911E1
1.282903008E1,-2.298170929E0,8.665779419E0,-1.469943237E-1,8.966545036E0
1.283903808E1,-1.165775757E0,7.862100677E0,5.548960876E-1,7.967406720E0
1.284904608E1,-3.857478333E-1,7.617658997E0,1.761686554E0,7.828222627E0
1.285905508E1,-7.873626709E-2,7.743846588E0,2.724933472E0,8.209666364E0
1.286906308E1,3.697311401E-2,7.803123322E0,3.532504120E0,8.565552285E0
1.287907108E1,1.874102783E-1,7.741301880E0,4.246669006E0,8.831595273E0
1.288908008E1,4.448748779E-1,7.659871216E0,5.005890198E0,9.161357835E0
1.289908808E1,8.078700256E-1,7.678731995E0,5.681285706E0,9.586062085E0
1.290909608E1,1.317709808E0,7.940687256E0,6.024971008E0,1.005440942E1
1.291910508E1,2.051334229E0,8.512947235E0,6.032904510E0,1.063363435E1
1.292911308E1,2.698288879E0,9.285041656E0,5.971232758E0,1.136434697E1
1.293912108E1,3.208428040E0,1.015084122E1,5.559139709E0,1.200989684E1
1.294913008E1,3.583398285E0,1.086680237E1,4.978048096E0,1.247834524E1
1.295913808E1,3.719764709E0,1.116887421E1,4.525389404E0,1.261188129E1
1.296914608E1,3.636388092E0,1.126093277E1,4.351600800E0,1.260826533E1
1.297915508E1,3.469185791E0,1.128054199E1,4.451293488E0,1.261348054E1
1.298916308E1,3.251239014E0,1.119042938E1,4.441713409E0,1.247096961E1
1.299917108E1,2.861599274E0,1.079300583E1,4.152215424E0,1.191296009E1
1.300918008E1,2.489173737E0,1.037836807E1,3.908222809E0,1.136576945E1
1.301918808E1,2.185605011E0,1.010234207E1,3.905827789E0,1.104941968E1
1.302919608E1,1.971849518E0,9.959838409E0,3.974684601E0,1.090342558E1
1.303920508E1,1.760938110E0,1.049123337E1,3.823199615E0,1.130414685E1
1.304921308E1,1.553918610E0,1.191103088E1,3.514391785E0,1.251552114E1
1.305922208E1,1.282233582E0,1.381432297E1,2.993325348E0,1.419294327E1
1.306923008E1,8.692424011E-1,1.576686264E1,2.237696686E0,1.594856816E1
1.307923808E1,2.112107849E-1,1.702903793E1,1.206191711E0,1.707300915E1
1.308924708E1,-6.307882690E-1,1.661065796E1,3.577560425E-2,1.662266921E1
1.309925508E1,-2.005828857E0,1.526570480E1,-2.361938324E0,1.557702941E1
1.310926308E1,-3.522624664E0,1.347258362E1,-3.207978973E0,1.429022473E1
1.311927208E1,-4.024381256E0,1.089823700E1,-2.476001129E0,1.187845932E1
1.312928008E1,-3.653901672E0,8.522377625E0,-1.222058716E0,9.352825526E0
1.313928808E1,-3.126847687E0,6.974596252E0,8.472381592E-2,7.643909174E0
1.314929708E1,-2.575244751E0,5.946983185E0,1.129850464E0,6.578377961E0
1.315930508E1,-2.027234344E0,5.435496826E0,1.723515930E0,6.051843686E0
1.316931308E1,-1.678908691E0,5.580096130E0,1.939816132E0,6.141587241E0
1.317932208E1,-1.350940704E0,6.453829193E0,1.787882080E0,6.831798766E0
1.318933008E1,-1.294358368E0,7.690707092E0,1.723815308E0,7.987107009E0
1.319933808E1,-1.492845612E0,8.916208649E0,1.855840759E0,9.228841185E0
1.320934708E1,-1.738634491E0,1.022957748E1,1.886526947E0,1.054637802E1
1.321935508E1,-2.029030609E0,1.138517441E1,1.810185699E0,1.170538055E1
1.322936308E1,-2.378853149E0,1.187884781E1,1.740281067E0,1.223905821E1
1.323937208E1,-2.692151642E0,1.150761978E1,1.482367401E0,1.191093643E1
1.324938008E1,-2.813549194E0,1.034079620E1,8.198451233E-1,1.074803569E1
1.325938808E1,-2.626138916E0,8.976533203E0,1.091230774E-1,9.353430483E0
1.326939708E1,-2.260599060E0,8.039032745E0,-4.123924255E-1,8.361006106E0
1.327940508E1,-1.872905273E0,7.526348877E0,-7.165599060E-1,7.788912612E0
1.328941408E1,-1.718875580E0,7.456743622E0,-8.421487427E-1,7.698491619E0
1.329942208E1,-1.795665894E0,7.731721802E0,-7.688012695E-1,7.974646915E0
1.330943008E1,-2.003882904E0,8.291707306E0,-4.788542175E-1,8.543843286E0
1.331943908E1,-2.279459839E0,8.819509735E0,-1.492396545E-1,9.110541235E0
1.332944708E1,-2.626288605E0,9.206904144E0,2.713856506E-1,9.578002189E0
1.333945508E1,-2.748135223E0,9.364825745E0,6.450086975E-1,9.781014500E0
1.334946408E1,-2.444267120E0,9.092392273E0,8.765771484E-1,9.455920183E0
1.335947208E1,-2.010169830E0,8.704249420E0,1.067130890E0,8.996861067E0
1.336948008E1,-1.557960205E0,8.475674744E0,1.280287628E0,8.712257961E0
1.337948908E1,-1.274449768E0,8.480764160E0,1.586101685E0,8.721427722E0
1.338949708E1,-9.669891357E-1,8.625064087E0,2.063459015E0,8.921023573E0
1.339950508E1,-6.703060913E-1,8.859776001E0,2.642754364E0,9.269794586E0
1.340951408E1,-3.845503235E-1,9.158105621E0,3.108286285E0,9.678854331E0
1.341952208E1,-2.634521484E-2,9.466314697E0,3.391946411E0,1.005570030E1
1.342953008E1,2.860551453E-1,9.724378052E0,3.455863495E0,1.032416333E1
1.343953908E1,5.560935974E-1,9.836943970E0,3.335214386E0,1.040184415E1
1.344954708E1,8.158035278E-1,9.815538483E0,2.966680756E0,1.028647295E1
1.345955508E1,1.092128906E0,9.658365326E0,2.130070496E0,9.950576196E0
1.346956408E1,1.364861755E0,9.535021820E0,8.867559814E-1,9.672942928E0
1.347957208E1,1.657503204E0,9.420210571E0,-4.367916870E-1,9.574887522E0
1.348958008E1,1.897603912E0,9.334588623E0,-1.216370544E0,9.602864295E0
1.349958908E1,2.013013916E0,9.104816437E0,-9.219328308E-1,9.370158351E0
1.350959708E1,2.010469208E0,8.778794403E0,2.189945984E-1,9.008727781E0
1.351960608E1,1.932032318E0,8.445886688E0,1.451681213E0,8.784823799E0
1.352961408E1,1.910926208E0,8.252039795E0,2.129771118E0,8.734055459E0
1.353962208E1,1.875300293E0,8.260122986E0,2.196831665E0,8.750568684E0
1.354963108E1,1.777254181E0,8.424780579E0,2.131717072E0,8.870162225E0
1.355963908E1,1.562600555E0,8.707243195E0,2.135459290E0,9.100439051E0
1.356964708E1,1.233884125E0,9.001231842E0,2.064656525E0,9.317051641E0
1.357965608E1,9.150471497E-1,9.319470062E0,1.972897339E0,9.569856709E0
1.358966408E1,6.098318481E-1,9.799970856E0,2.035916290E0,1.002777537E1
1.359967208E1,1.978884888E-1,1.039109161E1,2.398761749E0,1.066620845E1
1.360968108E1,-2.764750671E-1,1.108310257E1,3.015928345E0,1.148944841E1
1.361968908E1,-7.583230591E-1,1.181972076E1,3.750001831E0,1.242350058E1
1.362969708E1,-1.205592957E0,1.239003479E1,4.463118896E0,1.322444126E1
1.363970608E1,-1.498084717E0,1.251682114E1,4.960085449E0,1.354686373E1
1.364971408E1,-1.532662811E0,1.217148926E1,5.255570984E0,1.334598188E1
1.365972308E1,-1.297950897E0,1.171898026E1,5.292693787E0,1.292407762E1
1.366973108E1,-8.261320496E-1,1.142379410E1,5.169649658E0,1.256625813E1
1.367973908E1,-2.785707092E-1,1.122485779E1,5.059778137E0,1.231569685E1
1.368974808E1,3.106040955E-1,1.107157654E1,4.722978516E0,1.204088070E1
1.369975608E1,1.216520233E0,1.089614136E1,3.858526154E0,1.162299626E1
1.370976083E1,1.558109894E0,1.120375168E1,2.065105591E0,1.149853987E1
1.371976983E1,6.135740662E-1,1.239452545E1,-2.062710571E-1,1.241141741E1
1.372977783E1,-6.129753113E-1,1.344444214E1,-2.198328552E0,1.363676690E1
1.373978583E1,-1.651216278E0,1.362391891E1,-4.224964142E0,1.435924802E1
1.374979483E1,-1.968706055E0,1.270138733E1,-7.292235718E0,1.477760960E1
1.375980283E1,-2.283501434E0,1.101798798E1,-9.143286438E0,1.449862493E1
1.376981083E1,-3.385360107E0,8.817863159E0,-1.245499969E1,1.563145518E1
1.377981983E1,-5.629194031E0,7.696844330E0,-1.072399933E1,1.435037977E1
1.378982783E1,-7.696245575E0,9.035809937E0,-1.775008850E0,1.200119634E1
1.379983583E1,-7.447313232E0,1.027792694E1,3.097658386E0,1.306498159E1
1.380984483E1,-6.021528168E0,1.077339661E1,5.000950470E0,1.331669559E1
1.381985283E1,-3.960164795E0,1.062685135E1,4.067042542E0,1.204797534E1
1.382986183E1,-2.281705170E0,9.970765686E0,2.523302765E0,1.053515086E1
1.383986983E1,-1.078207855E0,9.379944305E0,1.650318146E0,9.584854581E0
1.384987783E1,-1.760339355E-1,9.437724152E0,1.245709534E0,9.521208818E0
1.385988683E1,6.030958557E-1,1.019380188E1,6.252497864E-1,1.023075064E1
1.386989483E1,1.325044556E0,1.149115402E1,-8.204438782E-1,1.159635684E1
1.387990283E1,2.238295441E0,1.272428970E1,-3.330424347E0,1.334201039E1
1.388991183E1,3.233276367E0,1.353081253E1,-4.827012177E0,1.472538659E1
1.389991983E1,3.814517670E0,1.331960175E1,-3.050955505E0,1.418698929E1
1.390992783E1,4.248614960E0,1.200892731E1,1.140178986E0,1.278925613E1
1.391993683E1,4.959935760E0,1.021026764E1,4.948858795E0,1.238312284E1
1.392994483E1,5.526806946E0,8.644523621E0,6.576124878E0,1.218682904E1
1.393995283E1,5.842201080E0,6.866221619E0,8.043074341E0,1.208169515E1
1.394996183E1,5.693859558E0,5.398673401E0,8.726553040E0,1.173534998E1
1.395996983E1,4.995711365E0,4.412374420E0,8.159831543E0,1.053608233E1
1.396997783E1,3.337459717E0,4.174069977E0,5.414989471E0,7.608127793E0
1.397998683E1,1.362317047E0,5.211412811E0,2.196232910E0,5.817058554E0
1.398999483E1,-3.683839417E-1,6.416706390E0,3.668870544E-1,6.437735141E0
1.400000383E1,-2.113305359E0,7.490124207E0,-1.362167358E-1,7.783737866E0
1.401001183E1,-3.801345062E0,8.548124084E0,9.776170349E-1,9.406188639E0
1.402001983E1,-4.965474243E0,9.531878357E0,2.309397583E0,1.099299580E1
1.403002883E1,-5.295687561E0,1.008168503E1,3.040776672E0,1.178689961E1
1.404003683E1,-5.222789154E0,1.004546036E1,3.090473328E0,1.173626115E1
1.405004483E1,-4.471950531E0,9.272168427E0,2.477348328E0,1.058813976E1
1.406005383E1,-2.942131805E0,8.170609131E0,1.912273407E0,8.892231594E0
1.407006183E1,-2.085313568E0,7.546856232E0,1.692081299E0,8.010412647E0
1.408006983E1,-1.804198151E0,7.395221558E0,1.982627106E0,7.866081813E0
1.409007883E1,-1.466051331E0,7.434739380E0,2.848127289E0,8.095460778E0
1.410008683E1,-1.101708984E0,7.400760040E0,3.840862885E0,8.410543357E0
1.411009483E1,-6.533912659E-1,7.268584900E0,4.848717041E0,8.761809376E0
1.412010383E1,-5.433700562E-2,7.246430969E0,5.838907928E0,9.306264562E0
1.413011183E1,6.951544189E-1,7.534282379E0,6.617588654E0,1.005192172E1
1.414011983E1,1.447938995E0,8.147407379E0,7.041806488E0,1.086571732E1
1.415012883E1,2.095642090E0,9.075926514E0,7.073091431E0,1.169584457E1
1.416013683E1,2.615361328E0,9.999805298E0,6.586603088E0,1.225640898E1
1.417014583E1,3.109483795E0,1.073911789E1,5.767955475E0,1.258041545E1
1.418015383E1,3.424578552E0,1.109807144E1,4.761149139E0,1.255242881E1
1.419016183E1,3.636537781E0,1.106888214E1,4.234544220E0,1.239660936E1
1.420017083E1,3.671864319E0,1.074390793E1,4.167633362E0,1.209476387E1
1.421017883E1,3.600462799E0,1.047656387E1,4.379143524E0,1.191212076E1
1.422018683E1,3.345692596E0,1.026744873E1,4.536466370E0,1.171297099E1
1.423019583E1,2.897674255E0,1.012554382E1,4.480183411E0,1.144531333E1
1.424020383E1,2.322869568E0,1.034408936E1,4.247417450E0,1.142087836E1
1.425021183E1,1.840572510E0,1.091485245E1,4.051923981E0,1.178727276E1
1.426022083E1,1.582209778E0,1.190833649E1,3.952680359E0,1.264656268E1
1.427022883E1,1.379680939E0,1.335807175E1,3.644770660E0,1.391495431E1
1.428023783E1,1.069825287E0,1.507844421E1,3.082390137E0,1.542741505E1
1.429024583E1,5.843847656E-1,1.655677002E1,2.219284973E0,1.671506401E1
1.430025383E1,-2.769241333E-2,1.675151505E1,1.079854431E0,1.678630718E1
1.431026283E1,-1.525178375E0,1.616488495E1,-1.985321503E0,1.635760300E1
1.432027083E1,-3.550466766E0,1.508817398E1,-3.687731323E0,1.593292725E1
1.433027883E1,-4.403542786E0,1.274554550E1,-3.393592987E0,1.390527211E1
1.434028783E1,-4.264182587E0,1.030352371E1,-2.682122498E0,1.146907298E1
1.435029583E1,-3.679498444E0,8.442743225E0,-1.353036346E0,9.308562151E0
1.436030383E1,-3.130290527E0,7.249125366E0,1.496887207E-3,7.896109143E0
1.437031283E1,-2.788102112E0,6.408922577E0,1.183588715E0,7.088630631E0
1.438032083E1,-2.532733154E0,6.267317047E0,1.849553833E0,7.008198740E0
1.439032883E1,-2.400408325E0,7.203470306E0,1.947001190E0,7.838543118E0
1.440033783E1,-2.282902679E0,8.455017700E0,1.797013092E0,8.940258666E0
1.441034583E1,-2.139051819E0,9.280850372E0,1.651066589E0,9.666216799E0
1.442035383E1,-1.996548157E0,9.782157898E0,1.491648102E0,1.009464372E1
1.443036283E1,-1.880090332E0,1.006132736E1,1.363514557E0,1.032590044E1
1.444037083E1,-1.763632507E0,1.004111938E1,1.155746613E0,1.026012809E1
1.445037983E1,-1.764081573E0,9.733808441E0,7.741900635E-1,9.922619655E0
1.446038783E1,-1.905836792E0,9.181606750E0,2.290237427E-1,9.380115579E0
1.447039583E1,-2.069895630E0,8.639583893E0,-2.558180237E-1,8.887762408E0
1.448040483E1,-2.301164703E0,8.321794739E0,-5.138813782E-1,8.649375743E0
1.449041283E1,-2.495610352E0,8.195307770E0,-6.382727051E-1,8.590607226E0
1.450042083E1,-2.628833313E0,8.246800690E0,-6.697073364E-1,8.681531784E0
1.451042983E1,-2.738704834E0,8.464747467E0,-5.382806396E-1,8.913035392E0
1.452043783E1,-2.739752655E0,8.696315918E0,-2.320175171E-1,9.120635246E0
1.453044583E1,-2.732268219E0,8.855734406E0,1.210981750E-1,9.268440335E0
1.454045483E1,-2.793939972E0,8.956923981E0,3.685336304E-1,9.389803235E0
1.455046283E1,-2.809357910E0,8.968150635E0,6.491999817E-1,9.420280160E0
1.456047083E1,-2.716550903E0,8.849746857E0,9.123527527E-1,9.302153287E0
1.457047983E1,-2.499053192E0,8.619076538E0,1.128652954E0,9.044755647E0
1.458048783E1,-2.164947968E0,8.478518829E0,1.328637085E0,8.850850679E0
1.459049683E1,-1.816921692E0,8.449179840E0,1.586251373E0,8.786696639E0
1.460050483E1,-1.542093201E0,8.538993073E0,1.879790955E0,8.878404596E0
1.461051283E1,-1.264270935E0,8.689130859E0,2.195783844E0,9.051013356E0
1.462052183E1,-9.647438049E-1,8.896300049E0,2.515668640E0,9.295346894E0
1.463052983E1,-6.731501770E-1,9.069489899E0,2.856060791E0,9.532358650E0
1.464053783E1,-3.912863159E-1,9.216633911E0,3.077151031E0,9.724623597E0
1.465054683E1,-1.140628052E-1,9.295519867E0,3.225043488E0,9.839746207E0
1.466055483E1,1.694476318E-1,9.330097961E0,3.308120728E0,9.900661757E0
1.467056283E1,4.912783813E-1,9.386680298E0,3.368145905E0,9.984764809E0
1.468057183E1,8.175997925E-1,9.451196136E0,3.350183258E0,1.006068117E1
1.469057983E1,1.129700775E0,9.508826294E0,3.239413605E0,1.010879824E1
1.470058883E1,1.416354675E0,9.587113495E0,3.079695740E0,1.016874287E1
1.471059725E1,1.769170990E0,9.642648010E0,2.903811493E0,1.022461480E1
1.472060525E1,2.097288666E0,9.641899567E0,2.573448486E0,1.019742537E1
1.473061425E1,2.338586884E0,9.688602448E0,1.995350647E0,1.016461658E1
1.474062225E1,2.593506775E0,9.651928711E0,1.402583313E0,1.009223688E1
1.475063025E1,2.947520599E0,9.622440033E0,-2.758763123E-1,1.006753881E1
1.476063925E1,3.252586212E0,9.598639526E0,-2.111060028E0,1.035228343E1
1.477064725E1,2.954855347E0,9.317973175E0,-1.243015137E0,9.853977920E0
1.478065525E1,2.259700928E0,8.954229584E0,5.595364380E-1,9.251894765E0
1.479066425E1,1.913321228E0,8.540639648E0,1.560055847E0,8.890281096E0
1.480067225E1,1.593286743E0,8.265362091E0,1.676813049E0,8.582917636E0
1.481068025E1,1.292262726E0,8.205785980E0,1.590143280E0,8.457743325E0
1.482068925E1,1.084794159E0,8.332272949E0,1.657652893E0,8.564541084E0
1.483069725E1,9.273216248E-1,8.686735840E0,1.816921692E0,8.923032522E0
1.484070625E1,7.711962891E-1,9.254355469E0,1.944456482E0,9.487821134E0
1.485071425E1,6.216572571E-1,9.915829926E0,2.137854309E0,1.016270446E1
1.486072225E1,5.041516113E-1,1.049542465E1,2.448757782E0,1.078909274E1
1.487073125E1,3.721261597E-1,1.098191299E1,2.734363861E0,1.132332268E1
1.488073925E1,2.664459229E-1,1.127260849E1,2.971770172E0,1.166079386E1
1.489074725E1,2.038760376E-1,1.156135803E1,3.205883331E0,1.199934385E1
1.490075625E1,1.749861145E-1,1.179681839E1,3.497177582E0,1.230551890E1
1.491076425E1,2.251318359E-1,1.198138458E1,3.750750275E0,1.255676664E1
1.492077225E1,4.228706360E-1,1.211206284E1,3.948189697E0,1.274633624E1
1.493078125E1,6.580316162E-1,1.234243378E1,3.929029541E0,1.296942367E1
1.494078925E1,9.202862549E-1,1.277712982E1,3.787873077E0,1.335851622E1
1.495079825E1,1.358724518E0,1.312500641E1,2.678679657E0,1.346429539E1
1.496080625E1,1.900897064E0,1.313114365E1,8.833131409E-1,1.329739017E1
1.497081425E1,1.587748260E0,1.338306976E1,3.348536682E-1,1.348108407E1
1.498082325E1,7.370672607E-1,1.326286972E1,-3.378474426E-1,1.328763042E1
1.499083125E1,2.038760376E-1,1.216101105E1,-1.171314240E0,1.221899064E1
1.500083925E1,-8.307723999E-2,1.052296738E1,-1.867516479E0,1.068772015E1
1.501084825E1,-4.144880676E-1,8.939260712E0,-2.262395325E0,9.230417923E0
1.502085625E1,-8.096662903E-1,7.554789734E0,-2.355202332E0,7.954708382E0
1.503086425E1,-1.285377045E0,6.557413788E0,-2.188748474E0,7.031535367E0
1.504087325E1,-1.860481110E0,6.048771515E0,-1.866318970E0,6.597891580E0
1.505088125E1,-2.352807312E0,5.930966492E0,-1.111289062E0,6.476652619E0
1.506089025E1,-2.933300171E0,6.287075958E0,5.146298218E-1,6.956753399E0
1.507089825E1,-3.218008118E0,7.007378082E0,2.186503143E0,8.014968486E0
1.508090625E1,-3.094215546E0,7.978109436E0,2.846630402E0,9.018187438E0
1.509091525E1,-2.786904602E0,9.208101654E0,2.641856232E0,9.976741837E0
1.510092325E1,-2.234852600E0,1.028047165E1,2.192041626E0,1.074652083E1
1.511093125E1,-1.768572235E0,1.123413849E1,1.998943176E0,1.154683892E1
1.512094025E1,-1.415755920E0,1.234991821E1,1.890269165E0,1.257370121E1
1.513094825E1,-9.030720520E-1,1.358754456E1,1.409169617E0,1.369023978E1
1.514095625E1,-2.420466614E-1,1.466096237E1,-2.200424194E-1,1.466461124E1
1.515096525E1,3.857478333E-1,1.529429535E1,-2.956352234E0,1.558217861E1
1.516097325E1,9.696835327E-1,1.496019012E1,-4.452640686E0,1.563884854E1
1.517098225E1,1.475481720E0,1.301169205E1,-3.069367218E0,1.344998853E1
1.518099025E1,1.778601379E0,1.039573196E1,-4.724176025E-1,1.055735972E1
1.519099825E1,1.998943176E0,8.318052521E0,3.509901123E0,9.246900965E0
1.520100725E1,2.467768250E0,6.780150604E0,6.972051544E0,1.003343536E1
1.521101525E1,2.836601257E0,5.943839722E0,7.997419281E0,1.036022454E1
1.522102325E1,3.044069824E0,5.300477600E0,8.092022552E0,1.014111694E1
1.523103225E1,2.992427216E0,4.910239105E0,7.626490631E0,9.551357393E0
1.524104025E1,2.261197815E0,5.499264221E0,5.766458588E0,8.282932281E0
1.525104825E1,7.470964050E-1,6.426585846E0,2.652933197E0,6.992654233E0
1.526105725E1,-6.979985046E-1,6.970404968E0,1.350192261E-1,7.006566743E0
1.527106525E1,-2.012864227E0,7.515421600E0,-8.180488586E-1,7.823195521E0
1.528107425E1,-3.246748352E0,8.177195435E0,-1.907034302E-1,8.800242487E0
1.529108225E1,-4.177662506E0,8.989855499E0,1.179696808E0,9.983088223E0
1.530109025E1,-4.473896484E0,9.553433533E0,2.579585724E0,1.085993115E1
1.531109925E1,-4.157005463E0,9.821376343E0,3.322191467E0,1.117036632E1
1.532110725E1,-3.039429474E0,9.530680847E0,3.270548859E0,1.052466146E1
1.533111525E1,-2.057770844E0,9.018895111E0,2.775378571E0,9.658033758E0
1.534112425E1,-1.568737793E0,8.634494476E0,2.171983337E0,9.040627453E0
1.535113225E1,-1.288520508E0,8.525221710E0,2.019300842E0,8.855352404E0
1.536114025E1,-9.879455566E-1,8.545878754E0,2.332898712E0,8.913500799E0
1.537114925E1,-5.674699402E-1,8.487350464E0,3.072360992E0,9.044144078E0
1.538115725E1,-2.350112915E-2,8.306077423E0,4.051175537E0,9.241401284E0
1.539116625E1,5.992039490E-1,8.087831268E0,5.052443390E0,9.555063799E0
1.540117425E1,1.318757629E0,8.016429749E0,5.839506683E0,1.000510399E1
1.541118225E1,2.124532013E0,8.117170258E0,6.303990784E0,1.049487442E1
1.542119125E1,2.682571564E0,8.578061829E0,6.354286194E0,1.100710171E1
1.543119925E1,2.902314606E0,9.261690216E0,5.687872009E0,1.124963216E1
1.544120725E1,2.678230591E0,9.812395020E0,4.435875549E0,1.109653131E1
1.545121625E1,2.326911163E0,9.998757477E0,3.513343964E0,1.085049549E1
1.546122425E1,2.102976837E0,1.020308258E1,3.363206177E0,1.094698870E1
1.547123225E1,2.036664734E0,1.059257263E1,3.621269531E0,1.137823322E1
1.548124125E1,2.038161621E0,1.101289856E1,3.807631989E0,1.182945894E1
1.549124925E1,2.077230377E0,1.142633881E1,3.921694794E0,1.225788704E1
1.550125825E1,2.123184814E0,1.202943466E1,4.031416626E0,1.286341837E1
1.551126625E1,2.115850067E0,1.302666092E1,4.123026123E0,1.382642617E1
1.552127425E1,2.035616913E0,1.442430450E1,4.239783325E0,1.517168611E1
1.553128325E1,1.820364532E0,1.608959152E1,4.217330017E0,1.673244019E1
1.554129125E1,1.467398529E0,1.743679001E1,3.804638214E0,1.790726602E1
1.555129925E1,8.493338013E-1,1.687366104E1,2.795736237E0,1.712477579E1
1.556130825E1,2.791694641E-1,1.389784927E1,1.834584961E0,1.402119296E1
1.557131625E1,-1.088237000E-1,1.105017105E1,1.250349884E0,1.112121835E1
1.558132525E1,-3.800596619E-1,9.291478271E0,8.334667969E-1,9.336524017E0
1.559133325E1,-4.680766296E-1,8.018076324E0,6.610253906E-1,8.058883188E0
1.560134125E1,-4.140390015E-1,7.096442871E0,7.869136047E-1,7.151934196E0
1.561135025E1,-5.980064392E-1,6.578968964E0,7.402107239E-1,6.647432304E0
1.562135825E1,-1.206790466E0,6.501729584E0,7.072792053E-1,6.650494319E0
1.563136625E1,-1.982776794E0,7.154821472E0,4.445755005E-1,7.437776650E0
1.564137525E1,-2.691403198E0,8.576265564E0,-5.905220032E-1,9.008035215E0
1.565138325E1,-3.139122162E0,1.042986099E1,-1.829196167E0,1.104454829E1
1.566139125E1,-3.325933685E0,1.198632431E1,-2.388133850E0,1.266637236E1
1.567140025E1,-3.269201660E0,1.262444733E1,-2.029180298E0,1.319779991E1
1.568140825E1,-3.145858154E0,1.240126144E1,-9.590556335E-1,1.282994531E1
1.569141725E1,-2.746189270E0,1.147334106E1,1.071771240E-1,1.179790649E1
1.570142525E1,-2.086361389E0,1.026610153E1,7.993377686E-1,1.050641163E1
1.571143308E1,-1.599573669E0,9.187145233E0,1.069825287E0,9.386522232E0
1.572144208E1,-1.344953156E0,8.262667694E0,1.119222565E0,8.445900518E0
1.573145008E1,-1.176703033E0,7.556585999E0,1.170565796E0,7.736720640E0
1.574145808E1,-1.143172760E0,7.103029175E0,1.222657471E0,7.297585814E0
1.575146708E1,-1.257534943E0,7.093000031E0,1.192120972E0,7.301588593E0
1.576147508E1,-1.590143280E0,7.567213898E0,1.184786224E0,7.822723325E0
1.577148308E1,-1.975142670E0,8.293653259E0,1.079704742E0,8.593697416E0
1.578149208E1,-2.257006531E0,8.974886627E0,9.433383179E-1,9.302287656E0
1.579150008E1,-2.508333893E0,9.577234039E0,9.099577332E-1,9.941990436E0
1.580150908E1,-2.693199463E0,1.001312759E1,9.425898743E-1,1.041174929E1
1.581151708E1,-2.831362152E0,1.023047562E1,1.068927155E0,1.066873227E1
1.582152508E1,-2.885549469E0,1.007375153E1,1.067579956E0,1.053311884E1
1.583153408E1,-2.783761139E0,9.515562286E0,9.738748169E-1,9.962112420E0
1.584154208E1,-2.417921906E0,8.777746582E0,9.565109253E-1,9.154785336E0
1.585155008E1,-2.041754150E0,8.171656952E0,1.038240967E0,8.486617798E0
1.586155908E1,-1.627864838E0,7.854765930E0,1.331181793E0,8.131379755E0
1.587156708E1,-1.218765564E0,7.799979858E0,1.667981415E0,8.068905582E0
1.588157508E1,-9.520202637E-1,8.034093018E0,2.019749908E0,8.338607971E0
1.589158408E1,-7.691006470E-1,8.427774353E0,2.337838440E0,8.779771348E0
1.590159208E1,-5.960604858E-1,8.790919189E0,2.618205414E0,9.191874014E0
1.591160108E1,-4.047583008E-1,9.060059509E0,2.913541260E0,9.525609181E0
1.592160908E1,-1.523831177E-1,9.214238892E0,3.128643951E0,9.732103161E0
1.593161708E1,9.160949707E-2,9.280251617E0,3.150199127E0,9.800776343E0
1.594162608E1,3.787124634E-1,9.282796326E0,3.037034454E0,9.774318853E0
1.595163408E1,6.912625122E-1,9.257648621E0,2.838098145E0,9.707559061E0
1.596164208E1,1.003513184E0,9.269474030E0,2.502645721E0,9.653674073E0
1.597165108E1,1.457818451E0,9.345515900E0,1.679357758E0,9.606463686E0
1.598165908E1,2.038161621E0,9.524842987E0,1.252894592E-1,9.741274771E0
1.599166808E1,2.560126190E0,9.867330780E0,-1.368304596E0,1.028546160E1
1.600167608E1,2.906056824E0,1.000803818E1,-1.737886047E0,1.056533210E1
1.601168408E1,2.993924103E0,9.839937744E0,-9.253756714E-1,1.032687157E1
1.602169308E1,2.875969391E0,9.537716217E0,5.260061646E-1,9.975766289E0
1.603170108E1,2.715952148E0,9.246571655E0,1.899998932E0,9.822702245E0
1.604170908E1,2.619103546E0,8.909772034E0,2.630928955E0,9.652229185E0
1.605171808E1,2.559677124E0,8.664282532E0,2.653831329E0,9.416186038E0
1.606172608E1,2.427052917E0,8.526568909E0,2.343526611E0,9.169791720E0
1.607173508E1,2.108515320E0,8.541687469E0,1.932182007E0,9.007751606E0
1.608174308E1,1.751507721E0,8.668922882E0,1.530866547E0,8.975608927E0
1.609175108E1,1.457818451E0,8.968450012E0,1.197210388E0,9.164695465E0
1.610176008E1,1.157093811E0,9.304351501E0,1.186582489E0,9.450809540E0
1.611176808E1,7.915539551E-1,9.761500854E0,1.484762421E0,9.905451834E0
1.612177608E1,4.189787292E-1,1.027328659E1,1.887574768E0,1.045365482E1
1.613178508E1,5.388793945E-3,1.079839462E1,2.403402100E0,1.106262614E1
1.614179308E1,-4.638853455E-1,1.127889542E1,2.869832153E0,1.164751510E1
1.615180108E1,-8.783734131E-1,1.181537979E1,3.262615356E0,1.228899501E1
1.616181008E1,-1.181792450E0,1.227028381E1,3.767814789E0,1.289003206E1
1.617181808E1,-1.349892883E0,1.260633499E1,4.323609009E0,1.339535321E1
1.618182708E1,-1.207389221E0,1.283221527E1,4.849764862E0,1.377112039E1
1.619183508E1,-7.676037598E-1,1.272578659E1,5.077740784E0,1.372291191E1
1.620184308E1,-1.682501221E-1,1.234647537E1,4.982538757E0,1.331500863E1
1.621185208E1,6.212081909E-1,1.180445251E1,4.552632751E0,1.266718058E1
1.622186008E1,1.041683807E0,1.134191437E1,3.668870544E0,1.196598252E1
1.623186808E1,5.718109131E-1,1.131287476E1,2.154619446E0,1.153041577E1
1.624187708E1,-2.347119141E-1,1.134041748E1,6.057902527E-1,1.135901141E1
1.625188508E1,-9.867480469E-1,1.116513199E1,-8.228388977E-1,1.123881257E1
1.626189408E1,-1.411115570E0,1.065274750E1,-2.614463196E0,1.105928091E1
1.627190208E1,-1.614542542E0,9.642049255E0,-4.465513916E0,1.074786844E1
1.628191008E1,-1.928888855E0,8.496481476E0,-5.481002197E0,1.029330825E1
1.629191908E1,-2.462978210E0,7.578590240E0,-5.702691193E0,9.799080494E0
1.630192708E1,-3.369642792E0,6.838379517E0,-6.556365967E0,1.005504160E1
1.631193508E1,-4.619842987E0,6.505322113E0,-6.308032379E0,1.017120630E1
1.632194408E1,-5.257816315E0,7.178921356E0,-3.561244354E0,9.584571226E0
1.633195208E1,-4.415966949E0,8.491990814E0,2.134561157E-1,9.573935220E0
1.634196108E1,-2.792742462E0,9.866432648E0,2.877615967E0,1.065019142E1
1.635196908E1,-1.721719666E0,1.094479019E1,3.389850769E0,1.158636436E1
1.636197708E1,-1.134041748E0,1.173185349E1,3.399730225E0,1.226705354E1
1.637198608E1,-4.065545654E-1,1.247610580E1,3.436104584E0,1.294701963E1
1.638199408E1,3.094065857E-1,1.317066147E1,3.072061615E0,1.352773516E1
1.639200208E1,9.677375793E-1,1.409274399E1,1.513203278E0,1.420674957E1
1.640201108E1,2.151176605E0,1.507709702E1,-1.489402771E0,1.530244215E1
1.641201908E1,3.372337189E0,1.552810913E1,-3.661086731E0,1.630639100E1
1.642202808E1,4.384532318E0,1.493758713E1,-3.445534973E0,1.594450827E1
1.643203608E1,5.042114868E0,1.325119400E1,-1.396745453E0,1.424668251E1
1.644204408E1,5.219346313E0,1.111244156E1,1.511556702E0,1.236983173E1
1.645205308E1,5.619613953E0,8.996142426E0,3.660338287E0,1.122090531E1
1.646206108E1,5.438191223E0,7.343728638E0,5.317242737E0,1.057248052E1
1.647206908E1,4.753065948E0,6.071823578E0,6.641987915E0,1.017716468E1
1.648207808E1,3.521726532E0,5.515580292E0,6.721472626E0,9.380958266E0
1.649208608E1,1.713636475E0,6.065087585E0,5.046156464E0,8.073755783E0
1.650209408E1,-3.231779480E-1,7.659122772E0,3.093916168E0,8.266735927E0
1.651210308E1,-2.174228668E0,9.114845581E0,2.307601318E0,9.650528696E0
1.652211108E1,-3.660787354E0,1.006491989E1,2.740800476E0,1.105513291E1
1.653212008E1,-4.483027496E0,1.051218979E1,3.279081116E0,1.188932473E1
1.654212808E1,-4.672683105E0,1.055530014E1,3.403771820E0,1.203469946E1
1.655213608E1,-4.322411499E0,1.020233414E1,3.197800140E0,1.153242337E1
1.656214508E1,-3.751947784E0,9.491761780E0,2.670147400E0,1.054989768E1
1.657215308E1,-3.131787415E0,8.740773468E0,2.273172913E0,9.559107088E0
1.658216108E1,-2.650538177E0,8.182135162E0,2.087708588E0,8.850492393E0
1.659217008E1,-2.204465790E0,7.893684998E0,2.288141785E0,8.509143616E0
1.660217808E1,-1.631607056E0,7.351362762E0,2.861150208E0,8.055486116E0
1.661218708E1,-1.009500732E0,6.866820374E0,3.298989716E0,7.684767200E0
1.662219508E1,-5.929170227E-1,6.834038544E0,3.406615906E0,7.659025091E0
1.663220308E1,-2.839595032E-1,7.128625946E0,3.463198242E0,7.930427665E0
1.664221208E1,6.855743408E-2,7.504644012E0,3.807332611E0,8.415471673E0
1.665222008E1,2.948867798E-1,7.989635468E0,4.016447754E0,8.947238997E0
1.666222808E1,3.659889221E-1,8.585995331E0,3.907624054E0,9.440486717E0
1.667223708E1,6.300398254E-1,9.204509125E0,3.936513977E0,1.003075674E1
1.668224508E1,1.131946106E0,9.914482727E0,4.115541687E0,1.079425556E1
1.669225408E1,1.691332855E0,1.053344559E1,4.271816711E0,1.149184497E1
1.670226208E1,2.196232910E0,1.092772568E1,4.353546753E0,1.196628584E1
1.671227358E1,2.512225800E0,1.115001343E1,4.141886902E0,1.215686247E1
1.672228258E1,2.773432617E0,1.114746872E1,3.754043427E0,1.208514913E1
1.673229058E1,2.653082886E0,1.119971008E1,2.102228394E0,1.170007346E1
1.674229858E1,2.015109558E0,1.124282043E1,-3.433859253E-1,1.142714276E1
1.675230758E1,1.007105713E0,1.094389206E1,-7.481442261E-1,1.101556876E1
1.676231558E1,3.867956543E-1,1.046833099E1,7.047344971E-1,1.049915308E1
1.677232458E1,2.918930054E-2,1.002420456E1,1.879192200E0,1.019886721E1
1.678233258E1,-2.975811768E-1,9.424701233E0,2.277962952E0,9.700652715E0
1.679234058E1,-5.599855042E-1,8.748557281E0,2.202968903E0,9.039021532E0
1.680234958E1,-8.506809998E-1,8.171058197E0,1.982926483E0,8.451144754E0
