"Time (s)","Acceleration x (m/s^2)","Acceleration y (m/s^2)","Acceleration z (m/s^2)","Absolute acceleration (m/s^2)"
-6.150833797E-4,2.689906311E-1,-9.843230896E0,1.224753113E0,9.922780388E0
9.464916657E-3,3.032693481E-1,-9.812395020E0,1.229992218E0,9.893833897E0
1.954391669E-2,3.671864319E-1,-9.790839844E0,1.153800659E0,9.865425824E0
2.962291660E-2,4.754113770E-1,-9.826316071E0,1.093326416E0,9.898376945E0
3.970191663E-2,5.466632080E-1,-9.842332764E0,1.021625519E0,9.910301388E0
4.978091666E-2,5.746549988E-1,-9.816735992E0,9.496252441E-1,9.879287526E0
5.985991668E-2,5.929170227E-1,-9.725575562E0,9.062155151E-1,9.785683275E0
6.993891660E-2,6.141728210E-1,-9.651928711E0,9.404942322E-1,9.717070829E0
8.001891663E-2,6.065386963E-1,-9.621691589E0,1.075064392E0,9.700546463E0
9.009791666E-2,5.406756592E-1,-9.613159332E0,1.184935913E0,9.700991477E0
1.001769166E-1,5.195695496E-1,-9.641600189E0,1.271455994E0,9.738942811E0
1.102559166E-1,4.960684204E-1,-9.700876923E0,1.339714050E0,9.805505121E0
1.203349166E-1,4.957690430E-1,-9.749825134E0,1.384920044E0,9.860166359E0
1.304139167E-1,4.483177185E-1,-9.745783539E0,1.395248566E0,9.855354084E0
1.404929166E-1,3.836521912E-1,-9.726024628E0,1.301543427E0,9.820221960E0
1.505719166E-1,3.399430847E-1,-9.711804199E0,1.172511749E0,9.788232011E0
1.606519166E-1,3.423381042E-1,-9.722581787E0,1.100212097E0,9.790620953E0
1.707309167E-1,4.082011414E-1,-9.750872955E0,1.068627777E0,9.817745000E0
1.808099166E-1,4.882846069E-1,-9.785600739E0,1.004561005E0,9.849139378E0
1.908889166E-1,5.897735596E-1,-9.776020660E0,9.358538818E-1,9.838406136E0
2.009679166E-1,6.480024719E-1,-9.742490387E0,8.334667969E-1,9.799525144E0
2.110460416E-1,6.466552734E-1,-9.708061981E0,7.665559387E-1,9.759725328E0
2.211250416E-1,6.053411865E-1,-9.719737701E0,7.051835632E-1,9.764067943E0
2.312050416E-1,5.275030518E-1,-9.778265991E0,7.009922791E-1,9.817542230E0
2.412840417E-1,4.391867065E-1,-9.804461517E0,7.084767151E-1,9.839831801E0
2.513630416E-1,3.088078308E-1,-9.768386536E0,7.628137207E-1,9.802990491E0
2.614420416E-1,2.442919922E-1,-9.720336456E0,8.331674194E-1,9.759036190E0
2.715210416E-1,1.595681763E-1,-9.691895599E0,8.741821289E-1,9.732548315E0
2.816000417E-1,1.332229614E-1,-9.747130737E0,8.912466431E-1,9.788698920E0
2.916790416E-1,2.180964661E-1,-9.833201752E0,8.762777710E-1,9.874577737E0
3.017590416E-1,3.366499329E-1,-9.986782379E0,9.529183960E-1,1.003778905E1
3.118380416E-1,4.921765137E-1,-1.005893234E1,1.014290771E0,1.012191402E1
3.219170417E-1,5.643264771E-1,-9.966424713E0,9.930349731E-1,1.003166010E1
3.319960416E-1,5.821394348E-1,-9.744586029E0,8.779243469E-1,9.801356761E0
3.420750416E-1,5.571414185E-1,-9.522298279E0,7.457492065E-1,9.567691098E0
3.521540416E-1,5.483097839E-1,-9.402996368E0,6.721023560E-1,9.442918294E0
3.622330417E-1,4.962181091E-1,-9.336833954E0,6.752458191E-1,9.374361717E0
3.723120416E-1,4.010160828E-1,-9.370364227E0,7.005432129E-1,9.405067806E0
3.823920416E-1,3.525169373E-1,-9.414372711E0,8.062234497E-1,9.455404697E0
3.924710416E-1,3.496728516E-1,-9.491462402E0,9.942324829E-1,9.549797268E0
4.025500417E-1,4.025129700E-1,-9.597741394E0,1.204545135E0,9.681404110E0
4.126290416E-1,4.179309082E-1,-9.679471436E0,1.332379303E0,9.779676279E0
4.227080416E-1,4.487667847E-1,-9.787846069E0,1.370100861E0,9.893457367E0
4.327870416E-1,5.322930908E-1,-9.806257782E0,1.326840820E0,9.909920998E0
4.428660417E-1,5.559439087E-1,-9.678273926E0,1.170715485E0,9.764662542E0
4.529460416E-1,5.328918457E-1,-9.525890808E0,9.818083191E-1,9.591168697E0
4.630250416E-1,5.022056580E-1,-9.495653687E0,9.002279663E-1,9.551442815E0
4.731040417E-1,4.646337891E-1,-9.582772522E0,8.804690552E-1,9.634346865E0
4.831830417E-1,4.453239441E-1,-9.732461243E0,9.011260986E-1,9.784229326E0
4.932620416E-1,4.589456177E-1,-9.784852295E0,1.010099487E0,9.847551294E0
5.033410416E-1,5.340893555E-1,-9.743837585E0,1.231489105E0,9.835862329E0
5.134200417E-1,6.011499023E-1,-9.692045288E0,1.448388062E0,9.818093045E0
5.235000417E-1,7.033872986E-1,-9.613458710E0,1.566043396E0,9.765543199E0
5.335790416E-1,7.815248108E-1,-9.516909485E0,1.548380127E0,9.673666740E0
5.436580416E-1,8.282276917E-1,-9.541608124E0,1.423090668E0,9.682635682E0
5.537370417E-1,8.273295593E-1,-9.613159332E0,1.218166809E0,9.725288526E0
5.638160417E-1,7.438032532E-1,-9.695787506E0,1.033899994E0,9.779084203E0
5.738950416E-1,6.207591248E-1,-9.744436340E0,8.896000671E-1,9.804630017E0
5.839740416E-1,5.360353088E-1,-9.761051788E0,8.158035278E-1,9.809740122E0
5.940530417E-1,4.869374084E-1,-9.783355408E0,8.262817383E-1,9.830253943E0
6.041330416E-1,4.402345276E-1,-9.808054047E0,8.816665649E-1,9.857437119E0
6.142120416E-1,4.152365112E-1,-9.805359650E0,9.457333374E-1,9.859610072E0
6.242910416E-1,3.864962769E-1,-9.810898132E0,9.473799133E-1,9.864108182E0
6.343700417E-1,3.323089600E-1,-9.862540741E0,9.503736877E-1,9.913795906E0
6.444490416E-1,4.167333984E-1,-1.006626709E1,9.475296021E-1,1.011934841E1
6.545280416E-1,5.846841431E-1,-1.030202682E1,9.526190186E-1,1.036248499E1
6.646070416E-1,6.689588928E-1,-1.025068359E1,9.313632202E-1,1.031462348E1
6.746870417E-1,6.738986206E-1,-9.965975647E0,7.803273010E-1,1.001916766E1
6.847660416E-1,6.677613831E-1,-9.707163849E0,5.388793945E-1,9.745015457E0
6.948450416E-1,6.572831726E-1,-9.583221588E0,3.291654968E-1,9.611373840E0
7.049240416E-1,5.688171387E-1,-9.641749878E0,2.085163879E-1,9.660764604E0
7.150030417E-1,3.890409851E-1,-9.817783813E0,1.811233521E-1,9.827158163E0
7.250820416E-1,2.782713318E-1,-9.930649109E0,2.594105530E-1,9.937933412E0
7.351610416E-1,1.523831177E-1,-9.929451599E0,3.966751099E-1,9.938540175E0
7.452400416E-1,-6.855743408E-2,-9.835596771E0,5.257067871E-1,9.849874699E0
7.553200417E-1,-2.903961182E-1,-9.566456451E0,6.042933655E-1,9.589921241E0
7.653990416E-1,-4.596940613E-1,-9.281898193E0,7.288343811E-1,9.321810568E0
7.754780416E-1,-5.026547241E-1,-8.970994720E0,8.830137634E-1,9.028350976E0
7.855570416E-1,-4.245172119E-1,-8.607550507E0,1.126407623E0,8.691313751E0
7.956360417E-1,-2.839595032E-1,-8.201295319E0,1.294208679E0,8.307638293E0
8.057150416E-1,-1.794767761E-1,-8.008795624E0,1.566193085E0,8.162473892E0
8.157940416E-1,7.349716187E-2,-8.420140228E0,2.003134460E0,8.655444007E0
8.258740416E-1,2.821632385E-1,-8.880882111E0,2.298021240E0,9.177722200E0
8.359530417E-1,5.682183838E-1,-9.343420258E0,2.237996063E0,9.624500019E0
8.460320416E-1,7.518864441E-1,-9.818532257E0,1.888921967E0,1.002681081E1
8.561110416E-1,6.854246521E-1,-1.011117371E1,1.447340240E0,1.023720833E1
8.661900416E-1,4.147874451E-1,-1.025233017E1,8.631051636E-1,1.029695455E1
8.762690417E-1,2.245330811E-3,-1.049452652E1,1.200503540E-1,1.049521339E1
8.863480416E-1,-6.336323547E-1,-1.089808731E1,-7.033872986E-1,1.093912934E1
8.964280416E-1,-1.368903351E0,-1.120360199E1,-1.328487396E0,1.136483492E1
9.065070417E-1,-1.880090332E0,-1.132529892E1,-1.710792389E0,1.160706448E1
9.165860417E-1,-1.948498077E0,-1.119866226E1,-1.844464417E0,1.151558640E1
9.266650416E-1,-1.677262115E0,-1.086156326E1,-1.831142120E0,1.114180624E1
9.367440416E-1,-1.232536926E0,-1.043210632E1,-1.769320679E0,1.065262809E1
9.468230417E-1,-6.688092041E-1,-9.987081757E0,-1.527872772E0,1.012538903E1
9.569020417E-1,-1.529818726E-1,-9.579778748E0,-1.154399414E0,9.650295452E0
9.669810416E-1,2.186952209E-1,-9.274713135E0,-7.295828247E-1,9.305934796E0
9.770610416E-1,3.447331238E-1,-9.165440369E0,-2.324665833E-1,9.174866691E0
9.871400417E-1,2.893482971E-1,-9.209897919E0,3.207829285E-1,9.220024067E0
9.972190416E-1,1.633103943E-1,-9.385632477E0,8.934919739E-1,9.429480112E0
1.007298042E0,-9.026229858E-2,-9.478289795E0,1.378184052E0,9.578387965E0
1.017377042E0,-6.018983459E-1,-9.305549011E0,1.635049896E0,9.467254733E0
1.027456042E0,-1.047072601E0,-8.950487366E0,1.774859161E0,9.184645347E0
1.037535042E0,-9.961784363E-1,-8.659342804E0,1.847757568E0,8.910151363E0
1.047615042E0,-1.220412140E0,-8.643326111E0,1.444645844E0,8.847795978E0
1.057694042E0,-1.483714600E0,-9.014853516E0,9.325607300E-1,9.183608356E0
1.067773042E0,-1.495839386E0,-9.374555511E0,3.869453430E-1,9.501029060E0
1.077852042E0,-1.337019653E0,-9.685458984E0,-2.387535095E-1,9.780221906E0
1.087931042E0,-1.259780273E0,-9.927954712E0,-9.508227539E-1,1.005263125E1
1.098010042E0,-1.233285370E0,-1.001627106E1,-1.704804840E0,1.023489317E1
1.108089042E0,-1.197809143E0,-9.889634399E0,-2.434986420E0,1.025518280E1
1.118168042E0,-1.057550812E0,-9.544601898E0,-2.974913635E0,1.005325570E1
1.128248042E0,-8.454418945E-1,-9.060508575E0,-3.343297577E0,9.694597791E0
1.138327042E0,-5.825885010E-1,-8.496032410E0,-3.534001007E0,9.220148545E0
1.148406042E0,-3.010240173E-1,-7.898475037E0,-3.525468750E0,8.654793658E0
1.158485042E0,1.760339355E-1,-7.293732605E0,-3.273392944E0,7.996538290E0
1.168564042E0,8.261320496E-1,-6.663842468E0,-3.002456360E0,7.355544494E0
1.178643042E0,1.493893433E0,-6.218368835E0,-1.878144379E0,6.665377324E0
1.188722042E0,1.875899048E0,-6.028413849E0,-6.846762085E-1,6.350555273E0
1.198802042E0,2.020797729E0,-5.868246918E0,1.616638184E-2,6.206464912E0
1.208881458E0,2.063758392E0,-5.772895203E0,3.001258850E-1,6.138036597E0
1.218960458E0,1.961820374E0,-5.883215790E0,7.391629028E-1,6.245584761E0
1.229039458E0,1.755249939E0,-6.377188568E0,1.430724792E0,6.767304472E0
1.239118458E0,1.673819275E0,-7.250173187E0,1.626068573E0,7.616480894E0
1.249197458E0,1.088237000E0,-8.235873413E0,1.047671356E0,8.373260172E0
1.259276458E0,-3.577560425E-2,-8.685538330E0,4.093986511E-1,8.695255214E0
1.269356458E0,-8.491841125E-1,-8.482261047E0,1.052311707E-1,8.525311709E0
1.279435458E0,-1.575024719E0,-7.883206787E0,-2.317181396E-1,8.042347009E0
1.289514458E0,-2.399061127E0,-7.378306732E0,-2.734812927E-1,7.763356010E0
1.299593458E0,-3.074007568E0,-7.317233734E0,1.953437805E-1,7.939117787E0
1.309672458E0,-3.628604279E0,-7.690258026E0,2.186952209E-1,8.506154544E0
1.319751458E0,-4.164040833E0,-8.463699646E0,-1.004561005E0,9.485915378E0
1.329830458E0,-3.880979462E0,-9.751322021E0,-2.490221558E0,1.078663461E1
1.339909458E0,-2.204316101E0,-1.082204544E1,-2.085163879E0,1.123937656E1
1.349989458E0,-7.740403748E-1,-1.091515182E1,-1.649569702E-1,1.094380595E1
1.360068458E0,-4.008663940E-1,-1.027867538E1,1.491498413E0,1.039405739E1
1.370147458E0,-4.917274475E-1,-9.572743378E0,2.098186798E0,9.812318763E0
1.380226458E0,-7.547305298E-1,-9.300459595E0,1.028810577E0,9.387577859E0
1.390305458E0,-1.212927704E0,-1.061397812E1,-1.790426788E0,1.083205212E1
1.400384458E0,-2.502795410E0,-1.375729156E1,-6.777755585E0,1.553914498E1
1.410463458E0,-4.509522400E0,-1.720162903E1,-1.315195038E1,2.211799340E1
1.420543458E0,-5.577850800E0,-1.914743271E1,-1.518547165E1,2.506661421E1
1.430622458E0,-3.792812805E0,-2.010903305E1,-1.280976196E1,2.414225840E1
1.440701458E0,1.972897339E-1,-2.015364029E1,-8.677305450E0,2.194319416E1
1.450780458E0,3.955524445E0,-1.940624451E1,-4.196223907E0,2.024492022E1
1.460859458E0,6.866371307E0,-1.837473953E1,-9.322613525E-1,1.963790261E1
1.470938458E0,8.967551880E0,-1.726210327E1,1.496288452E0,1.950989685E1
1.481017458E0,1.149399811E1,-1.644525192E1,2.248474274E0,2.018945120E1
1.491096458E0,1.307051971E1,-1.623658585E1,5.798941040E-1,2.085189398E1
1.501176458E0,1.442909454E1,-1.663984726E1,-4.478836212E0,2.247539232E1
1.511255458E0,1.512095581E1,-1.794169006E1,-1.005040009E1,2.552563591E1
1.521334458E0,1.312485672E1,-1.894235916E1,-1.156944122E1,2.578617468E1
1.531413458E0,8.726553040E0,-1.790441757E1,-6.757547607E0,2.103295857E1
1.541492458E0,3.762725372E0,-1.694251785E1,1.517843628E-1,1.735598029E1
1.551571458E0,4.737648010E-1,-1.645228729E1,5.022954712E0,1.720849454E1
1.561650458E0,-2.303709412E0,-1.432431244E1,4.040996704E0,1.506063273E1
1.571730458E0,-3.019520874E0,-1.139894577E1,1.690584412E0,1.191266329E1
1.581809458E0,-2.068997498E0,-8.562194824E0,3.334166565E0,9.418524170E0
1.591888458E0,-1.149160309E0,-6.023623810E0,4.895569611E0,7.846732761E0
1.601967458E0,-5.291496277E-1,-3.666475525E0,5.539829865E0,6.664289687E0
1.612046458E0,1.686991882E-1,-1.621128845E0,5.819448395E0,6.043384629E0
1.622125458E0,7.423063660E-1,-5.029541016E-2,5.990991669E0,6.037013297E0
1.632204458E0,1.027164001E0,1.125808868E0,5.833668823E0,6.029444704E0
1.642283458E0,1.075214081E0,2.057770844E0,5.559439087E0,6.024771292E0
1.652363458E0,8.213420105E-1,2.681673431E0,4.770579529E0,5.533932068E0
1.662442458E0,6.242019653E-1,2.987637177E0,3.680845642E0,4.781655428E0
1.672521458E0,2.154020691E-1,3.096460876E0,2.960244141E0,4.289232260E0
1.682600458E0,-5.881269836E-1,2.887794800E0,2.574945374E0,3.913514511E0
1.692679458E0,-1.473086700E0,2.210004272E0,2.199076996E0,3.448194157E0
1.702758458E0,-2.073488159E0,8.758287048E-1,1.598825226E0,2.760918537E0
1.712837458E0,-2.288291473E0,-5.992039490E-1,7.713459778E-1,2.488030920E0
1.722917458E0,-2.490221558E0,-1.598974915E0,5.777984619E-2,2.959943022E0
1.732996458E0,-2.790946198E0,-2.368075562E0,-4.683760071E-1,3.690059434E0
1.743075458E0,-3.087329865E0,-3.131188660E0,-7.060816956E-1,4.453593995E0
1.753154458E0,-3.029699707E0,-4.001179504E0,-6.369255066E-1,5.059070255E0
1.763233458E0,-2.792143707E0,-5.006788330E0,-3.487747192E-1,5.743312604E0
1.773312458E0,-2.663261719E0,-6.509064331E0,-1.622625732E-1,7.034714677E0
1.783391458E0,-1.707349548E0,-9.147028656E0,2.239343262E-1,9.307702310E0
1.793471458E0,4.827461243E-1,-1.274015671E1,6.514453125E-1,1.276593192E1
1.803550458E0,2.849624176E0,-1.579754883E1,2.894979858E-1,1.605511495E1
1.813629458E0,5.483995972E0,-1.928799042E1,-4.215384064E0,2.049073569E1
1.823708458E0,6.946155396E0,-2.241648468E1,-7.858208771E0,2.474872331E1
1.833787458E0,7.487429810E0,-2.407069473E1,-5.380261688E0,2.577609679E1
1.843866458E0,1.075797867E1,-2.551279587E1,-5.986351318E0,2.832795898E1
1.853945458E0,1.381686768E1,-2.603955048E1,-8.735234985E0,3.074521673E1
1.864024458E0,1.329116089E1,-2.315684509E1,-9.181606750E0,2.823466548E1
1.874104458E0,1.077399536E1,-1.774724442E1,-8.353977814E0,2.237928966E1
1.884183458E0,9.075477448E0,-1.258148666E1,-4.970114594E0,1.628987835E1
1.894262458E0,6.889872437E0,-9.390272827E0,3.034190369E-1,1.165073513E1
1.904341458E0,5.172493744E0,-7.645501099E0,3.839665375E0,9.997570143E0
1.914420458E0,4.805756378E0,-6.094725952E0,4.391118622E0,8.917561413E0
1.924499458E0,5.566773834E0,-4.825215912E0,2.333048401E0,7.727534818E0
1.934578458E0,7.221732330E0,-4.086651764E0,-2.547252960E0,8.680013717E0
1.944658458E0,8.258027344E0,-5.749094696E0,-9.561067657E0,1.388024208E1
1.954737458E0,4.669988708E0,-1.033645523E1,-6.529721375E0,1.308771800E1
1.964816458E0,2.578986969E0,-1.280332535E1,-7.924520874E-1,1.308450588E1
1.974895458E0,1.050066376E0,-1.471889191E1,2.671943665E0,1.499625624E1
1.984974458E0,-7.125183105E-1,-1.612117584E1,4.058360596E0,1.663941957E1
1.995053458E0,-1.133442993E0,-1.750534744E1,3.669020233E0,1.792159568E1
2.005132458E0,-1.169967041E0,-1.958138031E1,1.513802032E0,1.967462514E1
2.015211458E0,-1.533411255E0,-2.181832855E1,-2.506238251E0,2.201526836E1
2.025291458E0,-2.450703735E0,-2.187131836E1,-7.406897278E0,2.322116799E1
2.035370458E0,-2.812052307E0,-1.841096420E1,-9.245374146E0,2.079298401E1
2.045449458E0,-1.312321014E0,-1.406565033E1,-5.093757477E0,1.501702603E1
2.055528458E0,5.140310669E-1,-1.078537170E1,-6.520440674E-1,1.081728396E1
2.065607458E0,1.451980591E0,-8.389304352E0,1.235680389E0,8.603230856E0
2.075686458E0,1.786534882E0,-6.439309387E0,1.366208954E0,6.820772623E0
2.085765458E0,1.955084381E0,-4.812192993E0,9.038204956E-1,5.272233666E0
2.095845458E0,2.111359406E0,-3.480262756E0,1.933978271E-1,4.075226388E0
2.105924458E0,2.382295990E0,-2.552791443E0,-6.777905273E-1,3.556891667E0
2.116003458E0,2.655777283E0,-1.773511963E0,-2.105521545E0,3.825142956E0
2.126082458E0,3.175047455E0,-1.457968140E0,-4.075874176E0,5.368365462E0
2.136161458E0,3.156036987E0,-2.571801910E0,-5.248834991E0,6.642665376E0
2.146240458E0,2.264640656E0,-3.973487091E0,-4.768633575E0,6.607349176E0
2.156319458E0,2.007625122E0,-4.857099609E0,-2.897225189E0,6.001323941E0
2.166399458E0,2.006726990E0,-5.973627777E0,-1.308878174E0,6.436174648E0
2.176478458E0,1.657203827E0,-7.396568756E0,-1.944755859E0,7.825447542E0
2.186557458E0,1.704655151E0,-8.843759308E0,-4.313130798E0,9.986041516E0
2.196636458E0,2.520458679E0,-9.837842102E0,-5.340294800E0,1.147408374E1
2.206715458E0,3.659440155E0,-9.968969421E0,-3.548969879E0,1.119674242E1
2.216793667E0,3.585044861E0,-9.330547028E0,-3.814068604E-1,1.000285588E1
2.226872667E0,2.391876068E0,-7.931705933E0,2.900069275E0,8.777438802E0
2.236951667E0,1.720073090E0,-6.480473785E0,3.418291626E0,7.525949080E0
2.247031667E0,1.169817352E0,-5.528303833E0,2.073488159E0,6.019133580E0
2.257110667E0,4.918771362E-1,-4.830455017E0,9.660910034E-1,4.950613156E0
2.267189667E0,4.354444885E-1,-5.103487244E0,-3.384461975E-1,5.133199760E0
2.277268667E0,5.158273315E-1,-7.173233185E0,-6.097420349E0,9.428673665E0
2.287347667E0,-1.959425354E-1,-9.794582062E0,-1.369337448E1,1.683688617E1
2.297426667E0,1.740879822E-1,-1.205907303E1,-1.179621964E1,1.687016143E1
2.307505667E0,1.296603699E0,-1.387120468E1,-5.544919281E0,1.499458670E1
2.317585667E0,1.749412079E0,-1.517723877E1,-3.677552490E0,1.571411504E1
2.327664667E0,1.387614441E0,-1.559217590E1,-5.743107147E0,1.667407278E1
2.337743667E0,1.218017120E0,-1.508982056E1,-8.278983765E0,1.725479129E1
2.347822667E0,1.729503479E0,-1.449510727E1,-9.156459045E0,1.723194880E1
2.357901667E0,2.733316040E0,-1.371672592E1,-8.514444122E0,1.637422808E1
2.367980667E0,4.568200378E0,-1.252250931E1,-6.781497803E0,1.495561455E1
2.378059667E0,6.242468719E0,-1.202943466E1,-4.425547028E0,1.425696954E1
2.388138667E0,7.470664673E0,-1.142738663E1,-1.539398804E0,1.373920465E1
2.398218667E0,7.484735413E0,-1.082099762E1,5.625302124E-1,1.316934675E1
2.408297667E0,6.380631409E0,-1.010937744E1,1.097817078E0,1.200488116E1
2.418376667E0,4.675377502E0,-9.348958740E0,9.696835327E-1,1.049773645E1
2.428455667E0,3.207380219E0,-8.252488861E0,1.116528168E0,8.923984279E0
2.438534667E0,2.533331909E0,-7.364834747E0,4.333488464E-1,7.800407210E0
2.448613667E0,2.936443634E0,-6.753805389E0,-1.163829803E0,7.455943151E0
2.458692667E0,3.994144135E0,-6.353986816E0,-2.611619110E0,7.946501759E0
2.468771667E0,5.059029694E0,-6.529272308E0,-2.615660706E0,8.664113298E0
2.478851667E0,5.430407410E0,-7.186705170E0,-1.841620331E0,9.193999199E0
2.488930667E0,5.431006165E0,-7.980055389E0,-1.612147522E0,9.786528067E0
2.499009667E0,5.247936859E0,-8.601413269E0,-1.558109894E0,1.019572744E1
2.509088667E0,4.837191010E0,-9.013805695E0,-1.364861755E0,1.032036616E1
2.519167667E0,4.479135590E0,-9.019793243E0,-1.438059540E0,1.017287280E1
2.529246667E0,4.188589783E0,-8.337512054E0,-1.770667877E0,9.497034082E0
2.539325667E0,3.953578491E0,-7.274422760E0,-1.855391693E0,8.484720839E0
2.549405667E0,3.811823273E0,-6.241869965E0,-1.586401062E0,7.483822930E0
2.559484667E0,3.597469025E0,-5.201084290E0,-1.497485962E0,6.498886472E0
2.569563667E0,3.190615082E0,-4.195625153E0,-1.546883240E0,5.493281604E0
2.579642667E0,2.754871216E0,-3.427123260E0,-1.718875580E0,4.721125133E0
2.589721667E0,2.660118256E0,-3.124302979E0,-2.149530029E0,4.632275638E0
2.599800667E0,2.647095337E0,-3.135978699E0,-2.733615417E0,4.930935953E0
2.609879667E0,2.625390472E0,-3.542383575E0,-2.600841522E0,5.119134024E0
2.619958667E0,2.261646881E0,-4.301305389E0,-1.670077057E0,5.138621609E0
2.630038667E0,2.030527496E0,-5.337151337E0,-1.128652954E0,5.820831882E0
2.640117667E0,2.409689026E0,-6.647825775E0,-1.431622925E0,7.214550086E0
2.650196667E0,2.598596191E0,-8.134534149E0,-2.084714813E0,8.790300555E0
2.660275667E0,2.310295715E0,-9.597292328E0,-2.873274994E0,1.028110867E1
2.670354667E0,1.914518738E0,-1.066756668E1,-4.050127716E0,1.157004302E1
2.680433667E0,1.432371368E0,-1.137963593E1,-5.301824799E0,1.263555095E1
2.690512667E0,5.310955811E-1,-1.172691376E1,-6.909331970E0,1.362135959E1
2.700591667E0,-6.137237549E-2,-1.142514130E1,-7.635322266E0,1.374175267E1
2.710671667E0,-2.070195007E-1,-1.056443115E1,-7.166197815E0,1.276731976E1
2.720750667E0,5.013075256E-1,-9.469458160E0,-5.519322510E0,1.097200383E1
2.730829667E0,1.977088623E0,-8.286917267E0,-3.144211578E0,9.081186247E0
2.740908667E0,3.562591553E0,-7.527696075E0,-1.388213196E0,8.443068320E0
2.750987667E0,4.436324615E0,-7.536677399E0,-7.934999084E-1,8.781350944E0
2.761066667E0,4.856949921E0,-7.878716125E0,-1.014290771E0,9.310903076E0
2.771145667E0,5.451663208E0,-8.270451508E0,-1.892664185E0,1.008479933E1
2.781225667E0,6.542444916E0,-8.640781403E0,-3.986510010E0,1.154811460E1
2.791304667E0,8.168663177E0,-9.315428467E0,-7.433841248E0,1.444874601E1
2.801383667E0,8.746012573E0,-1.088416626E1,-8.798403625E0,1.650362740E1
2.811462667E0,7.264992371E0,-1.279344589E1,-7.819738770E0,1.666135308E1
2.821541667E0,5.126988373E0,-1.390488464E1,-6.519093475E0,1.619044182E1
2.831620667E0,3.241509247E0,-1.370400238E1,-5.085075531E0,1.497214269E1
2.841699667E0,2.030826874E0,-1.277533356E1,-3.468137970E0,1.339258699E1
2.851778667E0,1.520538025E0,-1.211924789E1,-1.633553009E0,1.232301509E1
2.861858667E0,1.207688599E0,-1.210487778E1,-6.432124329E-1,1.218196618E1
2.871937667E0,1.134341125E0,-1.226250000E1,-2.454895020E-1,1.231730089E1
2.882016667E0,1.278790741E0,-1.198033676E1,3.954776001E-1,1.205488188E1
2.892095667E0,1.693727875E0,-1.110735214E1,1.233135681E0,1.130321235E1
2.902174667E0,2.280956726E0,-9.691446533E0,2.377356262E0,1.023614782E1
2.912253667E0,1.993105316E0,-8.355025635E0,3.004402313E0,9.099744800E0
2.922332667E0,1.226699066E0,-7.696245575E0,2.952909393E0,8.334066260E0
2.932412667E0,8.996292114E-1,-7.931406555E0,2.835703125E0,8.470994916E0
2.942491667E0,7.252418518E-1,-8.607700195E0,2.670895844E0,9.041690274E0
2.952570667E0,5.763015747E-1,-9.559271393E0,2.666255493E0,9.940860698E0
2.962649667E0,7.652087402E-1,-1.056368271E1,2.871029663E0,1.097359322E1
2.972728667E0,1.188528442E0,-1.139655075E1,3.175646210E0,1.189027745E1
2.982807667E0,1.730401611E0,-1.180729660E1,3.594624939E0,1.246306027E1
2.992886667E0,2.243534546E0,-1.222358093E1,3.917204132E0,1.303049755E1
3.002965667E0,3.034040680E0,-1.309836182E1,4.019142151E0,1.403303206E1
3.013045667E0,3.921395416E0,-1.420695648E1,4.069287872E0,1.528967162E1
3.023124667E0,4.360731812E0,-1.526555511E1,4.096680908E0,1.639621753E1
3.033203667E0,4.560566254E0,-1.617491409E1,3.977079620E0,1.726973575E1
3.043282667E0,4.475842438E0,-1.593601089E1,3.141068115E0,1.684802415E1
3.053361667E0,3.876488800E0,-1.445319443E1,1.952240295E0,1.509083287E1
3.063440667E0,3.186423798E0,-1.301318893E1,9.107061768E-1,1.342854306E1
3.073519667E0,2.415227509E0,-1.193303513E1,7.484436035E-4,1.217500110E1
3.083599667E0,1.593137054E0,-1.113279922E1,-7.722441101E-1,1.127269556E1
3.093678667E0,9.330097961E-1,-1.054601944E1,-1.131197662E0,1.064747113E1
3.103757667E0,5.468128967E-1,-1.014575180E1,-8.241860962E-1,1.019384945E1
3.113836667E0,4.433779907E-1,-9.936187592E0,-1.531315613E-1,9.947253750E0
3.123915667E0,5.325924683E-1,-9.814340973E0,5.310955811E-1,9.843119728E0
3.133994667E0,6.378236389E-1,-9.650132446E0,1.103505249E0,9.733940572E0
3.144073667E0,7.933502197E-1,-9.466314697E0,1.630259857E0,9.638374641E0
3.154152667E0,8.686436462E-1,-9.175170135E0,1.919907532E0,9.414049805E0
3.164232667E0,8.372090149E-1,-8.820707245E0,1.994302826E0,9.082017342E0
3.174311667E0,6.655160522E-1,-8.595874786E0,1.843865662E0,8.816564838E0
3.184390667E0,3.805087280E-1,-8.438551941E0,1.575024719E0,8.592709038E0
3.194469667E0,2.200424194E-2,-8.343200226E0,1.302591248E0,8.444300927E0
3.204548667E0,-3.610491943E-1,-8.375233612E0,9.596543884E-1,8.437762211E0
3.214628583E0,-6.692582703E-1,-8.761879578E0,2.201921082E-1,8.790160689E0
3.224707583E0,-8.925938416E-1,-9.504185944E0,-8.449928284E-1,9.583333820E0
3.234786583E0,-1.033001862E0,-1.042327469E1,-1.981878662E0,1.066018720E1
3.244866583E0,-1.215023346E0,-1.123279129E1,-3.292702789E0,1.176833776E1
3.254945583E0,-1.177152100E0,-1.157093811E1,-5.154231720E0,1.272157225E1
3.265024583E0,-7.619155884E-1,-1.120105728E1,-7.372468872E0,1.343121353E1
3.275103583E0,-1.616638184E-2,-1.040516235E1,-7.761360168E0,1.298100060E1
3.285182583E0,7.497908020E-1,-9.908046112E0,-5.595214691E0,1.140342016E1
3.295261583E0,1.305435333E0,-9.798623657E0,-3.221001892E0,1.039673219E1
3.305340583E0,1.459764404E0,-9.796528015E0,-1.879491577E0,1.008143650E1
3.315420583E0,1.213227081E0,-9.721833344E0,-1.440454559E0,9.902569002E0
3.325499583E0,8.553213501E-1,-9.698481903E0,-1.603764954E0,9.867329318E0
3.335578583E0,6.483018494E-1,-9.892328796E0,-2.100731506E0,1.013368330E1
3.345657583E0,8.202941895E-1,-1.044003983E1,-2.426753540E0,1.074971845E1
3.355736583E0,1.386865997E0,-1.139714951E1,-2.999761963E0,1.186663330E1
3.365815583E0,2.045795746E0,-1.267414398E1,-4.329746246E0,1.354864969E1
3.375894583E0,2.773881683E0,-1.365415604E1,-5.928421783E0,1.514188170E1
3.385973583E0,3.756438446E0,-1.391850632E1,-7.366930389E0,1.618972857E1
3.396053583E0,4.683161316E0,-1.348590591E1,-7.176676025E0,1.597830833E1
3.406132583E0,5.127287750E0,-1.278281799E1,-3.655548248E0,1.424965082E1
3.416211583E0,5.615871735E0,-1.248598526E1,3.245251465E-1,1.369463982E1
3.426290583E0,6.304739227E0,-1.247505798E1,3.175346832E0,1.433386326E1
3.436369583E0,7.182962952E0,-1.277069321E1,4.870122528E0,1.544032562E1
3.446448583E0,8.265511780E0,-1.317260742E1,5.454956360E0,1.648007343E1
3.456527583E0,9.765093384E0,-1.361478790E1,5.409600677E0,1.760634198E1
3.466606583E0,1.121916962E1,-1.374905869E1,4.663851471E0,1.834823948E1
3.476686583E0,1.189935516E1,-1.363304993E1,3.566782837E0,1.844387821E1
3.486765583E0,1.175655212E1,-1.376283005E1,1.737886047E-1,1.810144224E1
3.496844583E0,1.099448685E1,-1.408945084E1,-8.707692261E0,1.988002189E1
3.506923583E0,1.092697723E1,-1.322918976E1,-1.215966385E1,2.103016210E1
3.517002583E0,1.105735611E1,-1.206221649E1,-6.030359802E0,1.743924970E1
3.527081583E0,7.847730560E0,-1.113369736E1,9.756710815E-1,1.365642800E1
3.537160583E0,3.838467865E0,-9.743388519E0,6.261179810E0,1.220122240E1
3.547240583E0,1.086440735E0,-8.390352173E0,7.475454712E0,1.128985324E1
3.557319583E0,-9.174421692E-1,-7.119944000E0,5.827681274E0,9.246468068E0
3.567398583E0,-1.785487061E0,-5.605243835E0,3.709136810E0,6.954453133E0
3.577477583E0,-2.462080078E0,-4.378245392E0,2.082170105E0,5.437490540E0
3.587556583E0,-2.224374390E0,-3.422632599E0,1.264570312E0,4.273335162E0
3.597635583E0,-8.704399109E-1,-2.796035614E0,1.726809082E0,3.399610330E0
3.607714583E0,3.121009827E-1,-2.579735413E0,2.486928406E0,3.596839546E0
3.617793583E0,1.237177277E0,-2.369123383E0,2.968626709E0,3.994508449E0
3.627873583E0,1.904788971E0,-2.155068512E0,3.421135712E0,4.469531393E0
3.637952583E0,2.208507385E0,-1.856439514E0,3.712729340E0,4.701939141E0
3.648031583E0,2.166594543E0,-1.578018494E0,3.829037476E0,4.673949323E0
3.658110583E0,1.985022125E0,-1.375339966E0,3.723357239E0,4.437934428E0
3.668189583E0,1.547032928E0,-1.264869690E0,3.578757935E0,4.098867474E0
3.678268583E0,9.581575012E-1,-1.465153198E0,3.475921783E0,3.891885396E0
3.688347583E0,2.580633545E-1,-2.075134735E0,3.339255981E0,3.939976063E0
3.698426583E0,-4.031117249E-1,-2.836750946E0,3.027005310E0,4.168023049E0
3.708506583E0,-9.490264893E-1,-3.645369415E0,2.735112305E0,4.655127149E0
3.718585583E0,-1.331780548E0,-4.557422791E0,2.420466614E0,5.329390260E0
3.728664583E0,-1.492396545E0,-5.504802704E0,1.990859985E0,6.040995261E0
3.738743583E0,-1.269060974E0,-6.326294403E0,1.596579895E0,6.646922896E0
3.748822583E0,-9.228309631E-1,-7.215146027E0,1.273102570E0,7.384493166E0
3.758901583E0,-5.679190063E-1,-8.180488586E0,6.629713440E-1,8.226934819E0
3.768980583E0,1.015787659E0,-9.479337616E0,-4.798271942E0,1.067300707E1
3.779059583E0,7.915090485E0,-1.204919357E1,-2.665926178E1,3.030755618E1
3.789139583E0,9.581575012E0,-1.496348328E1,-2.278741333E1,2.889599657E1
3.799218583E0,5.904770966E0,-1.559457092E1,-1.311842010E1,2.121673652E1
3.809297583E0,3.692820740E0,-1.442460388E1,-6.910828857E0,1.641540976E1
3.819376583E0,2.539020081E0,-1.318383408E1,-2.480491791E0,1.365331254E1
3.829455583E0,2.541864166E0,-1.252086273E1,-2.505789185E-1,1.277872712E1
3.839534583E0,3.131488037E0,-1.231593887E1,3.459306335E-1,1.271252279E1
3.849613583E0,4.133504333E0,-1.233958969E1,2.547702026E-1,1.301599937E1
3.859692583E0,5.792953491E0,-1.252954468E1,-1.367556152E0,1.387148189E1
3.869772583E0,9.194779358E0,-1.291753784E1,-8.356223145E0,1.792298013E1
3.879851583E0,9.190588074E0,-1.292322601E1,-1.197285233E1,1.987022578E1
3.889930583E0,4.685406647E0,-1.256831406E1,-8.796457672E0,1.604036225E1
3.900009583E0,2.116299133E0,-1.240560242E1,-6.392307129E0,1.411521462E1
3.910088583E0,1.376238098E0,-1.192016190E1,-4.339625702E0,1.275996247E1
3.920167583E0,1.217568054E0,-1.120659576E1,-1.519490204E0,1.137449388E1
3.930246583E0,1.205293579E0,-1.066906357E1,1.365610199E0,1.082342558E1
3.940326583E0,1.379680939E0,-1.035172348E1,2.374212799E0,1.070974252E1
3.950405583E0,2.058519287E0,-1.055350388E1,1.872456207E0,1.091421266E1
3.960484583E0,2.721790009E0,-1.113639175E1,6.963519287E-1,1.148530662E1
3.970563583E0,3.225941620E0,-1.135104538E1,-9.068142700E-1,1.183533872E1
3.980642583E0,3.287463684E0,-1.076651093E1,-2.962938538E0,1.164062626E1
3.990721583E0,2.955154724E0,-1.013183075E1,-5.123844910E0,1.173203820E1
4.000800583E0,2.032623138E0,-9.562414856E0,-4.109254761E0,1.060458907E1
4.010879583E0,8.391549683E-1,-8.855734406E0,2.649490356E-1,8.899348904E0
4.020959583E0,6.451583862E-2,-8.248746643E0,4.239783325E0,9.274790894E0
4.031038583E0,-6.301895142E-2,-7.834707642E0,4.968318329E0,9.277435111E0
4.041117583E0,6.930587769E-2,-7.770191803E0,4.513563995E0,8.986264179E0
4.051196583E0,9.247769165E-1,-8.750203857E0,4.522245941E0,9.893027254E0
4.061275583E0,2.153871002E0,-1.119087845E1,4.530478821E0,1.226377426E1
4.071354583E0,3.655997314E0,-1.449810104E1,4.106710052E0,1.550568662E1
4.081433583E0,5.299729156E0,-1.757974274E1,3.667223969E0,1.872386219E1
4.091513583E0,6.181096344E0,-2.030796936E1,3.262315979E0,2.147701742E1
4.101592583E0,4.621040497E0,-2.138797348E1,2.049687653E0,2.197727564E1
4.111671583E0,1.821711731E0,-1.814766174E1,-1.218017120E0,1.827949195E1
4.121750583E0,1.298399963E0,-1.225411743E1,-1.124805954E1,1.668436633E1
4.131829583E0,2.019600220E0,-8.214168549E0,-1.666544403E1,1.868925827E1
4.141908583E0,1.487456818E0,-8.100105743E0,-5.716163177E0,1.002490710E1
4.151987583E0,1.111139374E0,-9.051527252E0,1.140328674E0,9.190491053E0
4.162066583E0,9.666897583E-1,-8.986113281E0,3.356769562E0,9.641194059E0
4.172146583E0,1.243464203E0,-8.671168213E0,4.289629669E0,9.753783066E0
4.182225583E0,1.601070557E0,-8.006550293E0,3.938908997E0,9.065499358E0
4.192304583E0,1.681752777E0,-6.898853760E0,2.943029938E0,7.686605286E0
4.202383583E0,1.891017609E0,-5.644611969E0,1.422042847E0,6.120440975E0
4.212462417E0,2.602488098E0,-4.577481079E0,-2.184557190E0,5.700751481E0
4.222541417E0,4.171076202E0,-4.632716217E0,-8.418493652E0,1.047525520E1
4.232620417E0,4.551584930E0,-5.408702545E0,-1.047985703E1,1.264113887E1
4.242699417E0,3.225642242E0,-5.955365753E0,-7.497309265E0,1.010350411E1
4.252779417E0,2.065854034E0,-6.590794373E0,-4.376449127E0,8.176773833E0
4.262858417E0,1.406325531E0,-7.204368439E0,-1.413360901E0,7.475176596E0
4.272937417E0,9.880952454E-1,-7.459587708E0,2.088906097E0,7.809309167E0
4.283016417E0,1.002165985E0,-7.457342377E0,4.221072235E0,8.627499220E0
4.293095417E0,9.141490173E-1,-7.325765991E0,3.052153015E0,7.988626528E0
4.303174417E0,2.984793091E-1,-7.064708862E0,4.222718811E-1,7.083608879E0
4.313253417E0,-4.598437500E-1,-6.634653168E0,-2.617756348E0,7.147218146E0
4.323332417E0,-7.060816956E-1,-6.099515991E0,-3.407813416E0,7.022523689E0
4.333412417E0,-2.493814087E-1,-5.669609985E0,5.399272156E-1,5.700718364E0
4.343491417E0,1.278341675E-1,-5.868396606E0,1.872156830E0,6.161119338E0
4.353570417E0,-1.377136230E-1,-6.077960815E0,-8.322692871E-2,6.080090414E0
4.363649417E0,-8.476872253E-1,-7.031328278E0,-2.294578400E0,7.444678704E0
4.373728417E0,-1.773811340E-1,-9.326505432E0,-5.969436493E0,1.107471623E1
4.383807417E0,1.402134247E0,-1.183349213E1,-1.002165985E1,1.557020175E1
4.393886417E0,2.676584015E0,-1.241877502E1,-4.742438049E0,1.356026525E1
4.403965417E0,1.882934418E0,-1.173290131E1,4.043092346E-1,1.188990669E1
4.414045417E0,-6.200106812E-1,-1.050754944E1,1.269959106E0,1.060216037E1
4.424124417E0,-3.110082550E0,-9.625433807E0,-3.177442474E0,1.060272277E1
4.434203417E0,-4.195026398E0,-9.611662445E0,-1.070962921E1,1.498927814E1
4.444282417E0,-4.022884369E0,-1.154549103E1,-1.341360626E1,1.814956734E1
4.454361417E0,-3.323538666E0,-1.515673141E1,-1.273132507E1,2.007134910E1
4.464440417E0,-8.985813904E-1,-1.835737564E1,-1.075333832E1,2.129401263E1
4.474519417E0,3.167862396E0,-1.948153793E1,-7.510481873E0,2.111807307E1
4.484599417E0,6.557413788E0,-1.875360168E1,-6.757248230E0,2.098470051E1
4.494678417E0,8.695567474E0,-1.652159317E1,-6.168821869E0,1.966291682E1
4.504757417E0,1.018122803E1,-1.358050919E1,-4.732109528E0,1.762045670E1
4.514836417E0,1.090003326E1,-1.133817215E1,-2.365680542E0,1.590475769E1
4.524915417E0,1.080273560E1,-1.001088226E1,5.044509888E-2,1.472818403E1
4.534994417E0,1.003019211E1,-9.214238892E0,1.928140411E0,1.375589610E1
4.545073417E0,8.930728455E0,-8.512198792E0,2.231409760E0,1.253772820E1
4.555152417E0,7.531438293E0,-8.234825592E0,9.854008484E-1,1.120294292E1
4.565232417E0,5.804778900E0,-8.775650940E0,-7.102729797E-1,1.054570980E1
4.575311417E0,4.293072510E0,-9.728269958E0,-1.361269226E0,1.072020344E1
4.585390417E0,3.505260773E0,-1.020532791E1,-6.643185425E-1,1.081096157E1
4.595469417E0,3.694766693E0,-9.938432922E0,3.347039795E-1,1.060828811E1
4.605548417E0,3.812272339E0,-9.419911194E0,5.436694336E-1,1.017662634E1
4.615627417E0,3.490890656E0,-8.551417236E0,1.032852173E-2,9.236512383E0
4.625706417E0,3.203937378E0,-7.411687317E0,-7.457492065E-1,8.108912719E0
4.635785417E0,3.096011810E0,-5.990093536E0,-9.110055542E-1,6.804148795E0
4.645865417E0,3.089575195E0,-4.416116638E0,-9.535171509E-1,5.473276533E0
4.655944417E0,3.337010651E0,-2.839744720E0,-1.199904785E0,4.543078434E0
4.666023417E0,3.670217743E0,-1.513951721E0,-1.053209839E0,4.107529557E0
4.676102417E0,3.891307983E0,-6.237528992E-1,-2.763253784E-1,3.950658327E0
4.686181417E0,3.848047943E0,-1.737886047E-1,1.715432739E-1,3.855788187E0
4.696260417E0,3.699257355E0,-3.242257690E-1,-2.499801636E-2,3.713522886E0
4.706339417E0,3.287912750E0,-9.957293701E-1,-5.370831299E-1,3.477111663E0
4.716419417E0,2.859054565E0,-2.148631897E0,-1.195563812E0,3.770966039E0
4.726498417E0,2.457140350E0,-3.629053345E0,-2.212698669E0,4.909541963E0
4.736577417E0,1.794618073E0,-5.229076080E0,-3.244802399E0,6.410353601E0
4.746656417E0,7.659571838E-1,-6.748566284E0,-3.448678436E0,7.617297438E0
4.756735417E0,-1.360670471E-1,-8.125552826E0,-2.935844879E0,8.640735392E0
4.766814417E0,-7.743397522E-1,-9.135053558E0,-2.752027130E0,9.571962123E0
4.776893417E0,-1.308279419E0,-9.746082916E0,-3.096460876E0,1.030950034E1
4.786972417E0,-1.512454834E0,-9.882449341E0,-3.729793854E0,1.067059918E1
4.797052417E0,-1.114881592E0,-9.764794006E0,-4.564757538E0,1.083656654E1
4.807131417E0,-1.556762695E-2,-9.790390778E0,-6.051914978E0,1.150989439E1
4.817210417E0,1.547931061E0,-1.029244675E1,-8.329279175E0,1.333069549E1
4.827289417E0,2.626438293E0,-1.099313965E1,-9.943522339E0,1.505393417E1
4.837368417E0,2.350262604E0,-1.130194748E1,-9.168583832E0,1.474180045E1
4.847447417E0,1.507515106E0,-1.100855759E1,-7.560777283E0,1.343972824E1
4.857526417E0,1.158441010E0,-1.035920792E1,-5.902825012E0,1.197908667E1
4.867605417E0,1.443897400E0,-9.783205719E0,-4.460574188E0,1.084862553E1
4.877685417E0,2.455344086E0,-9.461374969E0,-3.788172455E0,1.048315704E1
4.887764417E0,3.706741791E0,-9.480385437E0,-3.470083923E0,1.075449326E1
4.897843417E0,4.865482178E0,-9.643995209E0,-3.499123535E0,1.135444521E1
4.907922417E0,5.851631470E0,-9.891430664E0,-3.696712646E0,1.207260021E1
4.918001417E0,6.490652618E0,-1.025756927E1,-3.687881012E0,1.268647962E1
4.928080417E0,7.277117157E0,-1.075663147E1,-4.494403839E0,1.374267880E1
4.938159417E0,8.682095490E0,-1.112142288E1,-6.940616913E0,1.572377156E1
4.948238417E0,9.423354034E0,-1.115450409E1,-7.784412231E0,1.654749638E1
4.958318417E0,8.330027618E0,-1.138562347E1,-4.827760620E0,1.491070269E1
4.968397417E0,7.112758942E0,-1.207359283E1,-2.783461761E0,1.428672961E1
4.978476417E0,6.048771515E0,-1.232716553E1,-1.541045380E0,1.381743347E1
4.988555417E0,4.527784424E0,-1.211805038E1,1.002914429E-2,1.293630850E1
4.998634417E0,2.961890717E0,-1.191641968E1,1.294807434E0,1.234707985E1
5.008713417E0,1.619781647E0,-1.150312912E1,1.735341339E0,1.174551326E1
5.018792417E0,6.322851562E-1,-1.069705536E1,1.730401611E0,1.085454134E1
5.028872417E0,5.373825073E-1,-9.568851471E0,1.875150604E0,9.765648377E0
5.038951417E0,1.104253693E0,-8.514144745E0,1.998943176E0,8.815089947E0
5.049030417E0,1.395547943E0,-7.976612549E0,2.081721039E0,8.361068371E0
5.059109417E0,7.261399841E-1,-7.628586273E0,2.348316650E0,8.014811220E0
5.069188417E0,-3.547622681E-1,-7.353907471E0,2.739303589E0,7.855545526E0
5.079267417E0,-1.075363770E0,-7.616611176E0,2.819387054E0,8.192564702E0
5.089346417E0,-6.878196716E-1,-9.831255798E0,1.985620880E0,1.005332665E1
5.099425417E0,-3.284170532E-1,-1.582119965E1,-2.321821747E0,1.599403239E1
5.109505417E0,-3.509751434E0,-2.418415878E1,-1.824376190E1,3.049633977E1
5.119584417E0,-6.779851227E0,-2.747626282E1,-2.265179535E1,3.624934804E1
5.129663417E0,-4.427792358E-1,-2.116718262E1,-1.045725403E0,2.119762286E1
5.139742417E0,3.035687256E0,-1.561657516E1,5.234913940E0,1.674804887E1
5.149821417E0,4.199666748E0,-1.222088654E1,4.608766022E0,1.371962072E1
5.159900417E0,4.586761780E0,-1.003109024E1,4.071682892E0,1.175754041E1
5.169979417E0,4.715344391E0,-8.463999023E0,3.593726807E0,1.033385816E1
5.180058417E0,4.741988983E0,-7.396718445E0,2.992427216E0,9.281838391E0
5.190138417E0,4.465214539E0,-6.578519897E0,2.468816071E0,8.325269828E0
5.200217417E0,4.246369629E0,-5.884862366E0,2.039508820E0,7.538093679E0
5.210295917E0,4.144431610E0,-5.261558533E0,1.269659729E0,6.817062959E0
5.220374917E0,4.106710052E0,-4.934338989E0,-5.995033264E-1,6.447648638E0
5.230453917E0,3.552113342E0,-5.128185883E0,-6.884633331E0,9.290531511E0
5.240532917E0,3.208877106E0,-6.737489319E0,-1.145986908E1,1.367549831E1
5.250611917E0,3.412902832E0,-8.160130920E0,-7.494614868E0,1.159331249E1
5.260690917E0,2.960842896E0,-8.679700470E0,-3.536695404E0,9.829140618E0
5.270770917E0,2.000739441E0,-8.766519928E0,-2.346370697E0,9.293023480E0
5.280849917E0,1.441352692E0,-8.028554535E0,-4.223616943E0,9.185538938E0
5.290928917E0,1.993853760E0,-6.816824341E0,-6.550528107E0,9.661985582E0
5.301007917E0,2.270927582E0,-5.878874817E0,-6.724316711E0,9.216003279E0
5.311086917E0,1.539548492E0,-5.415288849E0,-3.829636230E0,6.808940926E0
5.321165917E0,8.548722839E-1,-5.317691803E0,-7.370672607E-1,5.436167849E0
5.331244917E0,1.859133911E-1,-5.626799011E0,-2.106120300E-1,5.633807623E0
5.341323917E0,3.442840576E-2,-5.770649872E0,2.995271301E-1,5.778520724E0
5.351403917E0,1.511856079E-1,-5.708828430E0,1.781146088E0,5.982145144E0
5.361482917E0,-6.286926270E-2,-5.772146759E0,2.439327393E0,6.266733510E0
5.371561917E0,-3.935316467E-1,-6.016139374E0,1.772164764E0,6.284056657E0
5.381640917E0,-6.054908752E-1,-6.875202942E0,3.502716064E-2,6.901902752E0
5.391719917E0,-2.234852600E-1,-8.159981232E0,-1.311273193E0,8.267688719E0
5.401798917E0,6.107299805E-2,-9.456135864E0,-2.603835297E0,9.808271695E0
5.411877917E0,6.870712280E-2,-1.048270111E1,-3.407963104E0,1.102297400E1
5.421956917E0,5.104385376E-2,-1.095302307E1,-1.802252197E0,1.110042490E1
5.432036917E0,-9.280700684E-3,-1.134954849E1,-2.628533936E-1,1.135259570E1
5.442115917E0,-2.487826538E-1,-1.206790466E1,-6.483018494E-1,1.208786627E1
5.452194917E0,-6.965016174E-1,-1.246443008E1,-3.395389252E0,1.293737995E1
5.462273917E0,-1.491498413E0,-1.210308151E1,-7.232210541E0,1.417794128E1
5.472352917E0,-1.904190216E0,-1.167557053E1,-8.377478943E0,1.449575941E1
5.482431917E0,-1.445543976E0,-1.209185486E1,-6.858437805E0,1.397643447E1
5.492510917E0,-1.348695374E-1,-1.296618668E1,-6.568191376E0,1.453551941E1
5.502590917E0,1.155147858E0,-1.364652191E1,-8.126600647E0,1.592493532E1
5.512669917E0,2.800975342E0,-1.353739883E1,-8.727151794E0,1.634838856E1
5.522748917E0,4.811294861E0,-1.318443283E1,-8.439150696E0,1.637672409E1
5.532827917E0,6.735693054E0,-1.314132248E1,-8.358767853E0,1.696858619E1
5.542906917E0,8.313561859E0,-1.319236633E1,-7.916138306E0,1.748768384E1
5.552985917E0,9.383237457E0,-1.283865189E1,-5.106630707E0,1.670191021E1
5.563064917E0,9.726773071E0,-1.201401672E1,-1.469643860E0,1.552760655E1
5.573143917E0,8.753047943E0,-1.138158188E1,7.749385071E-1,1.437903975E1
5.583223917E0,7.703430634E0,-1.069061874E1,1.114432526E0,1.322399836E1
5.593302917E0,6.431226196E0,-9.655970306E0,1.452579346E0,1.169223758E1
5.603381917E0,4.791685638E0,-8.976533203E0,5.646258545E-1,1.019103537E1
5.613460917E0,2.927612000E0,-8.654702454E0,-4.643344116E-1,9.148245352E0
5.623539917E0,1.460512848E0,-8.613388367E0,-3.082090759E-1,8.741770402E0
5.633618917E0,1.262624359E0,-8.504864044E0,4.975653076E-1,8.612462129E0
5.643697917E0,2.100132751E0,-8.302035828E0,9.774673462E-1,8.619153025E0
5.653776917E0,3.019221497E0,-7.901019745E0,1.130898285E0,8.533507039E0
5.663856917E0,3.499273224E0,-7.205266571E0,1.316811676E0,8.117559513E0
5.673935917E0,3.634292450E0,-6.552474060E0,1.196312256E0,7.587763895E0
5.684014917E0,3.545377350E0,-5.960305481E0,7.852670288E-1,6.979368617E0
5.694093917E0,3.341501312E0,-5.212909698E0,3.143463135E-1,6.199909044E0
5.704172917E0,3.121758270E0,-4.351151733E0,-3.667373657E-1,5.367717616E0
5.714251917E0,3.032094727E0,-3.360661469E0,-8.936416626E-1,4.613701264E0
5.724330917E0,2.900069275E0,-2.522105255E0,-1.272354126E0,4.048493762E0
5.734409917E0,2.621947632E0,-1.963616638E0,-1.276395721E0,3.515620247E0
5.744489917E0,2.295775909E0,-1.725312195E0,-7.643106079E-1,2.971777229E0
5.754568917E0,2.170785828E0,-1.940564575E0,-2.745291138E-1,2.924631295E0
5.764647917E0,2.188449097E0,-2.523153076E0,2.101629639E-1,3.346607142E0
5.774726917E0,2.407294006E0,-3.435356140E0,6.403683472E-1,4.243442926E0
5.784805917E0,2.833757172E0,-4.812492371E0,5.837860107E-1,5.615253212E0
5.794884917E0,3.096161499E0,-6.478976898E0,4.954696655E-1,7.197836332E0
5.804963917E0,3.235671387E0,-7.966733093E0,3.424877930E-1,8.605562352E0
5.815042917E0,3.332669678E0,-9.204658813E0,-2.650987244E-1,9.792992821E0
5.825122917E0,3.404669952E0,-1.018811371E1,-2.095043335E0,1.094434306E1
5.835201917E0,4.226610718E0,-1.105720642E1,-6.735393677E0,1.361952936E1
5.845280917E0,5.139412537E0,-1.144969025E1,-1.089239914E1,1.661786168E1
5.855359917E0,4.776417389E0,-1.105376358E1,-1.095766342E1,1.628097786E1
5.865438917E0,4.735103302E0,-1.009006760E1,-1.038854691E1,1.523655388E1
5.875517917E0,4.681664429E0,-9.217831421E0,-8.631051636E0,1.346779307E1
5.885596917E0,3.878883820E0,-8.978329468E0,-6.352789307E0,1.166250709E1
5.895675917E0,2.139201508E0,-9.364676056E0,-4.867128754E0,1.076857851E1
5.905755917E0,6.155200195E-1,-9.942025452E0,-4.215384064E0,1.081629316E1
5.915834917E0,1.920506287E-1,-1.038914566E1,-3.586392059E0,1.099242644E1
5.925913917E0,5.390290833E-1,-1.083551743E1,-2.511926422E0,1.113592226E1
5.935992917E0,9.758207703E-1,-1.140493332E1,-1.803449707E0,1.158780225E1
5.946071917E0,1.533860321E0,-1.221879089E1,-1.641187134E0,1.242356928E1
5.956150917E0,2.054477692E0,-1.311003754E1,-1.532064056E0,1.335818787E1
5.966229917E0,2.668500824E0,-1.413375870E1,-1.526675262E0,1.446425833E1
5.976308917E0,3.538192291E0,-1.542886551E1,-2.126777344E0,1.597159596E1
5.986388917E0,3.931723938E0,-1.652982605E1,-3.243754578E0,1.729784802E1
5.996467917E0,3.320844269E0,-1.652758072E1,-5.254672852E0,1.765787410E1
6.006546917E0,3.151696014E0,-1.496483047E1,-6.176755371E0,1.649338188E1
6.016625917E0,4.331841888E0,-1.260094620E1,-4.694837036E0,1.412763936E1
6.026704917E0,5.569767609E0,-1.056817337E1,-2.434687042E0,1.219164881E1
6.036783917E0,6.475234680E0,-9.178912354E0,-1.113085327E0,1.128804922E1
6.046862917E0,7.177873535E0,-8.160430298E0,-1.069825287E0,1.092057770E1
6.056941917E0,7.279661865E0,-7.558382263E0,-1.172362061E0,1.055921645E1
6.067021917E0,6.245013428E0,-7.756570129E0,-1.478325806E0,1.006727471E1
6.077100917E0,4.233346710E0,-8.913963318E0,-1.241518250E0,9.945920468E0
6.087179917E0,2.572400665E0,-9.645791473E0,-5.673202515E-2,9.983073517E0
6.097258917E0,1.291663971E0,-9.889484711E0,1.091829529E0,1.003306510E1
6.107337917E0,4.790039063E-2,-1.011282028E1,1.905836792E0,1.029094954E1
6.117416917E0,-8.521778870E-1,-1.040591080E1,2.199226685E0,1.066985401E1
6.127495917E0,-1.207239532E0,-1.076681030E1,2.066452789E0,1.102959013E1
6.137574917E0,-7.704478455E-1,-1.145986908E1,1.529369659E0,1.158711184E1
6.147654917E0,6.286926270E-3,-1.258642639E1,2.412982178E-1,1.258874075E1
6.157733917E0,6.315367126E-1,-1.400502640E1,-2.095642090E0,1.417502447E1
6.167812917E0,1.121318207E0,-1.557047104E1,-4.873565369E0,1.635385466E1
6.177891917E0,1.959575043E0,-1.631277740E1,-7.051536255E0,1.787934016E1
6.187970917E0,4.008963318E0,-1.503757919E1,-7.282505951E0,1.718241740E1
6.198049917E0,5.623505859E0,-1.182361267E1,-4.655319214E0,1.389581346E1
6.208128917E0,5.558840332E0,-8.700956268E0,-1.489402771E0,1.043195410E1
6.218208833E0,5.171745300E0,-6.745123444E0,9.701325989E-1,8.554811335E0
6.228288833E0,4.409829712E0,-5.372627563E0,2.021546173E0,7.238672113E0
6.238367833E0,3.688779144E0,-3.825894012E0,6.529421997E-1,5.354520528E0
6.248446833E0,3.329526215E0,-2.077230377E0,-2.223176880E0,4.510337714E0
6.258525833E0,2.736609192E0,-1.105600891E0,-3.220852203E0,4.368669376E0
6.268604833E0,2.089504852E0,-1.350791016E0,-2.649490356E0,3.634620482E0
6.278683833E0,1.369801483E0,-2.921325073E0,-1.687740326E0,3.641285995E0
6.288762833E0,8.189469910E-1,-5.211712189E0,-9.328601074E-1,5.357503718E0
6.298841833E0,4.782554626E-1,-6.794221344E0,-8.414002991E-1,6.862807474E0
6.308921833E0,2.564167786E-1,-7.800728302E0,-1.083746338E0,7.879823458E0
6.319000833E0,3.495231628E-1,-8.389903107E0,-2.678080902E0,8.813895728E0
6.329079833E0,1.567240906E0,-8.523425446E0,-4.692891083E0,9.855366665E0
6.339158833E0,3.132835236E0,-8.220305786E0,-4.372257843E0,9.823681717E0
6.349237833E0,3.453169098E0,-8.102500763E0,-1.921703796E0,9.014867770E0
6.359316833E0,3.068319397E0,-8.578959961E0,-3.359014893E-1,9.117344336E0
6.369395833E0,2.407892761E0,-9.516759796E0,-4.552033997E-1,9.827200756E0
6.379474833E0,1.158291321E0,-1.063583267E1,-2.433040466E0,1.097188504E1
6.389554833E0,-6.408174133E-1,-1.152228928E1,-5.946833496E0,1.298224271E1
6.399633833E0,-2.564766541E0,-1.203407501E1,-7.759264526E0,1.454658636E1
6.409712833E0,-3.822900238E0,-1.269345383E1,-8.313561859E0,1.564780007E1
6.419791833E0,-3.135230255E0,-1.387973694E1,-8.721164246E0,1.668938201E1
6.429870833E0,-1.550775146E-1,-1.470257584E1,-9.518705750E0,1.751558005E1
6.439949833E0,3.220552826E0,-1.490285934E1,-1.038151154E1,1.844567589E1
6.450028833E0,5.871540070E0,-1.513263153E1,-9.466165009E0,1.879041777E1
6.460107833E0,8.050409088E0,-1.470931183E1,-5.880371704E0,1.776940383E1
6.470187833E0,9.845326538E0,-1.330223785E1,-3.439846802E0,1.690303324E1
6.480266833E0,1.067400330E1,-1.110810059E1,-9.626481628E-1,1.543537938E1
6.490345833E0,1.027882507E1,-8.996591492E0,2.230960693E0,1.384088469E1
6.500424833E0,9.518556061E0,-7.607929230E0,3.537294159E0,1.268841781E1
6.510503833E0,8.073610840E0,-7.167245636E0,2.707120514E0,1.113018883E1
6.520582833E0,5.456303558E0,-7.333400116E0,2.799179077E-1,9.144854281E0
6.530661833E0,2.905308380E0,-8.147557068E0,-1.560953979E0,8.789771344E0
6.540740833E0,1.060095520E0,-1.006671616E1,-1.178050232E0,1.019070062E1
6.550820833E0,6.053411865E-1,-1.242146942E1,5.947132874E-1,1.245042266E1
6.560899833E0,1.255139923E0,-1.390069336E1,1.080752563E0,1.399902419E1
6.570978833E0,2.068398743E0,-1.339459579E1,-1.480571136E0,1.363398551E1
6.581057833E0,2.732118530E0,-1.081680634E1,-4.221970367E0,1.192865478E1
6.591136833E0,2.620151367E0,-7.498506775E0,-4.545597382E0,9.151789584E0
6.601215833E0,2.500250702E0,-4.742737427E0,-3.604953461E0,6.460688920E0
6.611294833E0,2.565065918E0,-2.762655029E0,-2.037562866E0,4.285264100E0
6.621373833E0,2.694097595E0,-1.447489929E0,-6.161187744E-1,3.119774237E0
6.631453833E0,2.830613708E0,-6.273454285E-1,-7.020401001E-2,2.900149109E0
6.641532833E0,2.910846863E0,-1.582209778E-1,-2.058219910E-1,2.922400730E0
6.651611833E0,2.911146240E0,-1.351689148E-1,-2.118095398E-1,2.921969601E0
6.661690833E0,2.886447601E0,-3.857478333E-1,-2.276765442E-1,2.920996021E0
6.671769833E0,3.029100952E0,-1.069076843E0,-6.030958557E-1,3.268348587E0
6.681848833E0,3.395988007E0,-2.395767975E0,-1.030606842E0,4.281890843E0
6.691927833E0,3.548371124E0,-3.748055878E0,-1.151405640E0,5.288156148E0
6.702006833E0,3.630250854E0,-5.244643707E0,-8.864566040E-1,6.439783707E0
6.712086833E0,4.046385498E0,-6.689588928E0,-4.622387695E-1,7.831826116E0
6.722165833E0,4.454736328E0,-7.930059357E0,-1.799258423E-1,9.097411196E0
6.732244833E0,4.843178558E0,-9.350305939E0,-1.953437805E-1,1.053198741E1
6.742323833E0,5.325625305E0,-1.087623276E1,-1.119222565E0,1.216171793E1
6.752402833E0,5.526208191E0,-1.221923996E1,-3.702101440E0,1.391238144E1
6.762481833E0,5.308860168E0,-1.305150925E1,-7.714956665E0,1.606382415E1
6.772560833E0,4.169429626E0,-1.275063492E1,-8.928932190E0,1.611485849E1
6.782639833E0,2.818788300E0,-1.148456772E1,-8.898994446E0,1.479976234E1
6.792719833E0,1.752256165E0,-1.017853363E1,-8.807983704E0,1.357400182E1
6.802798833E0,6.709048462E-1,-9.173822937E0,-8.167166290E0,1.230088394E1
6.812877833E0,6.242019653E-2,-8.444988556E0,-6.944359131E0,1.093370256E1
6.822956833E0,3.592529297E-3,-8.188571777E0,-5.857768707E0,1.006807702E1
6.833035833E0,7.601193237E-1,-8.515641632E0,-4.382586365E0,9.607340789E0
6.843114833E0,1.550625458E0,-9.005423126E0,-2.325414276E0,9.429190662E0
6.853193833E0,2.129471741E0,-9.558822327E0,-1.076411591E0,9.852126475E0
6.863272833E0,3.100502472E0,-1.028151947E1,-5.899232483E-1,1.075503452E1
6.873351833E0,4.258344727E0,-1.101244949E1,-5.194198608E-1,1.181851685E1
6.883431833E0,5.388644257E0,-1.161315033E1,-1.280736694E0,1.286635278E1
6.893510833E0,6.538253632E0,-1.193004135E1,-4.842130737E0,1.444025198E1
6.903589833E0,6.235583038E0,-1.155387360E1,-5.790259094E0,1.434927145E1
6.913668833E0,5.422324219E0,-1.050006500E1,-2.436034241E0,1.206595325E1
6.923747833E0,5.751938782E0,-9.688901825E0,2.570155334E-1,1.127056677E1
6.933826833E0,6.035149841E0,-9.715097351E0,2.486629028E0,1.170425026E1
6.943905833E0,6.143075409E0,-1.011356873E1,3.467239838E0,1.233058798E1
6.953984833E0,6.846313019E0,-1.025951523E1,3.173550568E0,1.273581870E1
6.964064833E0,7.303911438E0,-1.007704468E1,2.866239624E0,1.277142440E1
6.974143833E0,7.629185028E0,-9.672436066E0,2.285447388E0,1.252931576E1
6.984222833E0,7.374265137E0,-8.724008331E0,1.338815918E0,1.150132756E1
6.994301833E0,5.098996582E0,-8.151149597E0,4.587959290E-1,9.625564898E0
7.004380833E0,3.052602081E0,-8.606352997E0,3.502716064E-2,9.131753297E0
7.014459833E0,2.243085480E0,-1.001088226E1,-3.281176758E-1,1.026434885E1
7.024538833E0,3.084635468E0,-1.409094772E1,-2.104623413E0,1.457735310E1
7.034617833E0,2.713706818E0,-2.098052078E1,-8.484207001E0,2.279316181E1
7.044697833E0,-1.231489105E0,-2.815674774E1,-1.824136688E1,3.357181071E1
7.054776833E0,-1.426533508E0,-2.734124359E1,-9.312584381E0,2.891890086E1
7.064855833E0,1.436862030E0,-2.127840134E1,2.840493164E0,2.151518853E1
7.074934833E0,1.582509155E0,-1.596041016E1,4.907844086E0,1.677277440E1
7.085013833E0,1.144819336E0,-1.219454132E1,4.681963806E0,1.311252205E1
7.095092833E0,5.216651917E-1,-9.590107269E0,4.107458496E0,1.044574111E1
7.105171833E0,3.742218018E-3,-7.612569580E0,3.533402252E0,8.392625399E0
7.115250833E0,-3.921844482E-1,-5.976920929E0,3.138673096E0,6.762297038E0
7.125330833E0,-5.683680725E-1,-4.359983368E0,2.701881409E0,5.160684100E0
7.135409833E0,-3.996688843E-1,-3.284170532E0,2.091301117E0,3.913956012E0
7.145488833E0,9.404942322E-1,-3.401975555E0,1.386267242E0,3.792058010E0
7.155567833E0,2.225721588E0,-4.690645752E0,3.820056152E-1,5.205950677E0
7.165646833E0,2.198029175E0,-6.434818726E0,-1.025068359E0,6.876699021E0
7.175725833E0,1.387464752E0,-8.151748352E0,-4.114344177E0,9.236010375E0
7.185804833E0,1.090033264E0,-9.632918243E0,-7.892786865E0,1.250109479E1
7.195883833E0,2.042352905E0,-1.008901978E1,-7.522906036E0,1.274965257E1
7.205963833E0,3.427422638E0,-8.829239502E0,-5.439388733E0,1.092197994E1
7.216042542E0,4.024980011E0,-6.529421997E0,-3.893703003E0,8.602019459E0
7.226121542E0,4.305646362E0,-5.097200317E0,-2.968327332E0,7.302808283E0
7.236200542E0,4.511468353E0,-4.582869873E0,-2.631527710E0,6.948451703E0
7.246279542E0,4.260739746E0,-4.623884583E0,-1.993704071E0,6.596140367E0
7.256358542E0,3.504662018E0,-5.048401794E0,-3.495231628E-1,6.155581449E0
7.266437542E0,2.711611176E0,-5.299729156E0,1.121617584E0,6.057886620E0
7.276516542E0,1.724713440E0,-5.731281738E0,7.861651611E-1,6.036578706E0
7.286595542E0,7.933502197E-1,-6.433022461E0,-7.484436035E-1,6.524825697E0
7.296675542E0,8.910969543E-1,-6.619235229E0,-1.304088135E0,6.805069777E0
7.306754542E0,1.278341675E0,-6.558910675E0,-7.554789734E-1,6.724895178E0
7.316833542E0,1.490151215E0,-6.929390259E0,-1.164578247E-1,7.088763110E0
7.326912542E0,1.650617523E0,-7.639363861E0,-8.008346558E-2,7.816062421E0
7.336991542E0,1.993105316E0,-8.483159180E0,-1.058299255E0,8.778180665E0
7.347070542E0,2.187251587E0,-9.544601898E0,-2.311642914E0,1.006117229E1
7.357149542E0,1.982926483E0,-1.087009552E1,-5.265001373E0,1.223973911E1
7.367228542E0,7.662565613E-1,-1.211475723E1,-7.693401489E0,1.437160111E1
7.377308542E0,-7.340734863E-1,-1.266875519E1,-5.785918121E0,1.394679427E1
7.387387542E0,-1.093775482E0,-1.322799225E1,-4.086202698E0,1.388787875E1
7.397466542E0,-2.338137817E-1,-1.403765854E1,-5.125341797E0,1.494589090E1
7.407545542E0,1.722468109E0,-1.469104980E1,-7.538623352E0,1.660194816E1
7.417624542E0,3.645219727E0,-1.461231354E1,-9.086853790E0,1.758915136E1
7.427703542E0,5.426216125E0,-1.373304199E1,-8.223000183E0,1.690141993E1
7.437782542E0,6.849755859E0,-1.307965073E1,-6.472689972E0,1.612117036E1
7.447861542E0,7.595205688E0,-1.283925064E1,-4.996609497E0,1.573212042E1
7.457941542E0,7.898175659E0,-1.268567001E1,-3.646566925E0,1.538196518E1
7.468020542E0,7.707322540E0,-1.220007980E1,-1.491199036E0,1.450753055E1
7.478099542E0,6.955286407E0,-1.207014999E1,1.658551025E-1,1.393169185E1
7.488178542E0,5.806575165E0,-1.238389755E1,6.147715759E-1,1.369142717E1
7.498257542E0,4.264032898E0,-1.217298615E1,1.120719452E0,1.294679807E1
7.508336542E0,2.559826813E0,-1.105062012E1,1.545835419E0,1.144807955E1
7.518415542E0,1.001267853E0,-9.807006226E0,1.585353241E0,9.984650886E0
7.528494542E0,-2.719844055E-1,-8.791667633E0,1.050066376E0,8.858331371E0
7.538573542E0,-6.601272583E-1,-8.145311737E0,2.465373230E-1,8.175735560E0
7.548653542E0,3.650907898E-1,-8.120313721E0,-6.730004883E-1,8.156329804E0
7.558732542E0,2.344275055E0,-8.310119019E0,-1.627266083E0,8.786449712E0
7.568811542E0,3.694766693E0,-8.197553101E0,-2.192191315E0,9.255100243E0
7.578890542E0,4.288881226E0,-7.900570679E0,-2.030527496E0,9.216103359E0
7.588969542E0,4.587659912E0,-7.378905487E0,-2.332749023E0,8.996476403E0
7.599048542E0,4.612208862E0,-6.561006317E0,-2.378703461E0,8.365255802E0
7.609127542E0,4.371359711E0,-5.536536713E0,-1.938019867E0,7.315596045E0
7.619206542E0,4.135001221E0,-4.446054382E0,-1.159638519E0,6.181455829E0
7.629286542E0,4.096830597E0,-3.366050262E0,-8.786727905E-2,5.303021400E0
7.639365542E0,4.071383514E0,-2.579436035E0,7.430548096E-1,4.876657096E0
7.649444542E0,3.879183197E0,-2.235151978E0,8.409512329E-1,4.555344731E0
7.659523542E0,3.601510620E0,-2.342778168E0,4.303550720E-1,4.317950182E0
7.669602542E0,3.353476410E0,-2.853516083E0,-1.598675537E-1,4.406122525E0
7.679681542E0,3.217259674E0,-3.396137695E0,-7.973918152E-1,4.745560532E0
7.689760542E0,3.325634308E0,-3.913611603E0,-1.280287628E0,5.292951515E0
7.699839542E0,3.623215485E0,-4.590803375E0,-1.339714050E0,5.999833316E0
7.709919542E0,3.732039185E0,-5.513035583E0,-1.457668762E0,6.815165151E0
7.719998542E0,3.621718597E0,-6.761589203E0,-1.786235504E0,7.875694980E0
7.730077542E0,3.526366882E0,-8.286917267E0,-2.182910614E0,9.266788005E0
7.740156542E0,3.405119019E0,-9.736652527E0,-3.162772980E0,1.078890036E1
7.750235542E0,2.930156708E0,-1.074809921E1,-5.062921600E0,1.223685540E1
7.760314542E0,1.923799438E0,-1.141166931E1,-8.236771545E0,1.420463327E1
7.770393542E0,6.301895142E-1,-1.169532944E1,-1.065169968E1,1.583150579E1
7.780472542E0,-2.993774414E-3,-1.140657990E1,-1.022373962E1,1.531779768E1
7.790552542E0,-3.667373657E-2,-1.090961334E1,-7.947423248E0,1.349750142E1
7.800631542E0,2.418969727E-1,-9.987830200E0,-5.607339478E0,1.145676753E1
7.810710542E0,6.695576477E-1,-8.941056976E0,-3.546275482E0,9.641933265E0
7.820789542E0,1.547332306E0,-8.284522247E0,-2.079326019E0,8.680503604E0
7.830868542E0,2.338886261E0,-8.246351624E0,-1.523681488E0,8.705992724E0
7.840947542E0,3.039130096E0,-8.647816772E0,-1.208586731E0,9.245632945E0
7.851026542E0,3.756288757E0,-9.209149475E0,-7.017407227E-1,9.970485411E0
7.861105542E0,4.345313873E0,-9.832004242E0,-2.670446777E-1,1.075273793E1
7.871184542E0,4.966372375E0,-1.050290909E1,6.122268677E-2,1.161807652E1
7.881264542E0,5.688770142E0,-1.115480347E1,1.582209778E-1,1.252265068E1
7.891343542E0,6.590944061E0,-1.187600372E1,-2.567161560E-1,1.358476762E1
7.901422542E0,7.530540161E0,-1.263851807E1,-1.637444916E0,1.480278352E1
7.911501542E0,7.261399841E0,-1.310330154E1,-3.728895721E0,1.543791120E1
7.921580542E0,5.470224609E0,-1.323113571E1,-7.560028839E0,1.619074876E1
7.931659542E0,3.980821838E0,-1.295106812E1,-9.895322571E0,1.677779832E1
7.941738542E0,4.158053284E0,-1.203093155E1,-6.324348450E0,1.421372943E1
7.951817542E0,4.352947998E0,-1.078911392E1,-4.460723877E-1,1.164268509E1
7.961897542E0,4.550686798E0,-9.814490662E0,3.277733917E0,1.130382753E1
7.971976542E0,4.983586578E0,-9.363029480E0,3.504362640E0,1.117063175E1
7.982055542E0,5.246140594E0,-9.066645813E0,3.023113403E0,1.090253512E1
7.992134542E0,4.500840454E0,-8.915909271E0,3.171754303E0,1.047907574E1
8.002213542E0,3.087928619E0,-9.058412933E0,3.783382416E0,1.029097325E1
8.012292542E0,2.146835632E0,-9.708061981E0,3.473676453E0,1.053194183E1
8.022371542E0,1.720821533E0,-1.089434509E1,2.766696625E0,1.137112976E1
8.032450542E0,1.771266632E0,-1.246068787E1,2.055675201E0,1.275272238E1
8.042529542E0,2.111958160E0,-1.436397995E1,1.435065765E0,1.458916382E1
8.052609542E0,1.536405029E0,-1.780771866E1,-5.857169952E0,1.880908887E1
8.062688542E0,-2.508633270E0,-2.151610703E1,-2.918959991E1,3.634926197E1
8.072767542E0,-3.137475586E0,-1.860181732E1,-1.871258698E1,2.657126779E1
8.082846542E0,-2.305206299E-1,-1.430036224E1,3.022215271E-1,1.430541289E1
8.092925542E0,2.004182281E0,-1.193917236E1,7.274572449E0,1.412373844E1
8.103004542E0,2.638413391E0,-1.021999741E1,6.408473511E0,1.234820250E1
8.113083542E0,2.841840363E0,-8.481662292E0,5.139861603E0,1.031662877E1
8.123162542E0,3.272195435E0,-7.004983063E0,4.096980286E0,8.749988465E0
8.133242542E0,3.385809174E0,-5.558241577E0,3.419788513E0,7.352054588E0
8.143321542E0,3.364852753E0,-4.265679474E0,3.004252625E0,6.208364459E0
8.153400542E0,3.437751160E0,-3.675756226E0,2.180066528E0,5.484706641E0
8.163479542E0,3.416195984E0,-3.583847351E0,1.433718567E0,5.154600447E0
8.173558542E0,3.326233063E0,-3.819457397E0,8.086184692E-1,5.128932153E0
8.183637542E0,3.180136871E0,-5.022805023E0,-4.742138672E-1,5.963784001E0
8.193716542E0,1.587598572E0,-7.259004822E0,-7.329358521E0,1.043710288E1
8.203795542E0,-7.453001404E-1,-9.769584045E0,-1.417731812E1,1.723358911E1
8.213875833E0,-7.933502197E-3,-1.041833496E1,-7.462581482E0,1.281529901E1
8.223954833E0,1.112785950E0,-1.013078293E1,-6.227050781E-1,1.021072069E1
8.234033833E0,1.107097778E0,-9.731862488E0,1.059496765E0,9.851768692E0
8.244112833E0,6.324348450E-1,-8.639134827E0,3.394940186E-1,8.668903078E0
8.254191833E0,1.083446960E0,-7.190447388E0,-9.608518982E-1,7.334822924E0
8.264270833E0,2.424657898E0,-6.520590363E0,-2.869832153E0,7.525490096E0
8.274349833E0,3.046913910E0,-6.560257874E0,-3.187621307E0,7.904530178E0
8.284428833E0,2.193987579E0,-7.151678009E0,-4.800517273E-1,7.496034252E0
8.294507833E0,1.141376495E0,-7.860454102E0,1.440304871E0,8.072419532E0
8.304587833E0,4.453239441E-1,-8.583600311E0,1.100661163E0,8.665331079E0
8.314666833E0,2.200424194E-1,-9.444460144E0,-9.262738037E-1,9.492324754E0
8.324745833E0,5.788462830E-1,-1.056832306E1,-5.075944519E0,1.173838694E1
8.334824833E0,1.245110779E0,-1.098805023E1,-5.520220642E0,1.235962721E1
8.344903833E0,1.464853821E0,-1.056607773E1,-1.631307678E0,1.079115193E1
8.354982833E0,6.032455444E-1,-1.017763550E1,2.543211365E-1,1.019866897E1
8.365061833E0,-7.830216980E-1,-1.041354492E1,-2.226320343E0,1.067761879E1
8.375140833E0,-1.328038330E0,-1.109507767E1,-6.132148132E0,1.274628083E1
8.385220833E0,-8.300239563E-1,-1.199380875E1,-6.655759277E0,1.374188923E1
8.395299833E0,6.391708374E-2,-1.281709671E1,-5.794151001E0,1.406606694E1
8.405378833E0,1.064436493E0,-1.325628342E1,-7.110812988E0,1.508064111E1
8.415457833E0,1.823507996E0,-1.285197418E1,-8.713679810E0,1.563414972E1
8.425536833E0,2.740950165E0,-1.226294907E1,-8.833730164E0,1.535993217E1
8.435615833E0,3.941453705E0,-1.215831665E1,-7.325915680E0,1.473189606E1
8.445694833E0,4.881648560E0,-1.237596405E1,-5.982309723E0,1.458708362E1
8.455773833E0,5.609734497E0,-1.251442612E1,-5.334307251E0,1.471512202E1
8.465853833E0,5.857768707E0,-1.237446716E1,-3.447929993E0,1.411839626E1
8.475932833E0,5.797144775E0,-1.195264435E1,-1.657503204E0,1.338730411E1
8.486011833E0,5.635031891E0,-1.130823441E1,2.336640930E-1,1.263662727E1
8.496090833E0,5.664819946E0,-1.036414764E1,1.637744293E0,1.192425879E1
8.506169833E0,5.802383881E0,-9.627679138E0,2.345322876E0,1.148304854E1
8.516248833E0,6.076763306E0,-9.178463287E0,2.471809845E0,1.128189188E1
8.526327833E0,6.551426239E0,-9.101523285E0,2.192191315E0,1.142648741E1
8.536406833E0,7.282955017E0,-9.598340149E0,1.495540009E0,1.214109580E1
8.546485833E0,7.863896942E0,-1.051293823E1,3.838018799E-1,1.313430810E1
8.556565833E0,7.386090546E0,-1.119985977E1,-8.662486267E-1,1.344401648E1
8.566644833E0,5.836961975E0,-1.103101089E1,-1.739832001E0,1.260080719E1
8.576723833E0,4.375401306E0,-1.030951126E1,-1.538650360E0,1.130476023E1
8.586802833E0,3.679049377E0,-9.532626801E0,-8.578660583E-1,1.025389254E1
8.596881833E0,3.809278564E0,-8.956923981E0,-4.180805969E-1,9.742272926E0
8.606960833E0,4.265230408E0,-8.558751984E0,-4.953199768E-1,9.575477420E0
8.617039833E0,4.933740234E0,-8.122858429E0,-1.000519409E0,9.556341394E0
8.627118833E0,5.509293365E0,-7.452851715E0,-1.443598022E0,9.379834078E0
8.637198833E0,5.647755432E0,-6.758595428E0,-1.779948578E0,8.985764883E0
8.647277833E0,5.419779510E0,-6.291117554E0,-2.102228394E0,8.565718548E0
8.657356833E0,5.088368683E0,-6.111940155E0,-2.316582642E0,8.283348565E0
8.667435833E0,4.805307312E0,-6.191724243E0,-2.236648865E0,8.150523027E0
8.677514833E0,4.450245667E0,-6.506968689E0,-1.932481384E0,8.116637993E0
8.687593833E0,4.079915771E0,-6.998995514E0,-1.544488220E0,8.247247709E0
8.697672833E0,3.595672760E0,-7.493866425E0,-1.320254517E0,8.416054216E0
8.707751833E0,2.995420990E0,-7.889942780E0,-1.312770081E0,8.540907988E0
8.717830833E0,2.441423035E0,-8.146209869E0,-1.313069458E0,8.604965605E0
8.727910833E0,2.110311584E0,-8.369096375E0,-1.259031830E0,8.722405073E0
8.737989833E0,2.011666718E0,-8.562194824E0,-1.236129456E0,8.881779057E0
8.748068833E0,2.060165863E0,-8.751850433E0,-1.147813110E0,9.064030247E0
8.758147833E0,2.057321777E0,-9.013356628E0,-1.144519958E0,9.315744551E0
8.768226833E0,2.191742249E0,-9.202413483E0,-1.136586456E0,9.527852684E0
8.778305833E0,2.660118256E0,-9.201066284E0,-1.206491089E0,9.653572947E0
8.788384833E0,3.404071198E0,-8.913663940E0,-1.222956848E0,9.619601292E0
8.798463833E0,4.057013397E0,-8.601562958E0,-1.069974976E0,9.570323373E0
8.808542833E0,4.348906403E0,-8.689729614E0,-1.195563812E0,9.790493374E0
8.818622833E0,4.651726685E0,-8.978030090E0,-1.560504913E0,1.023126390E1
8.828701833E0,5.141807556E0,-9.167835388E0,-2.280208282E0,1.075577707E1
8.838780833E0,5.871989136E0,-9.362879791E0,-3.531456299E0,1.160236864E1
8.848859833E0,6.551276550E0,-9.739047546E0,-4.218377838E0,1.247248905E1
8.858938833E0,6.599476318E0,-1.050455566E1,-3.731440430E0,1.295462948E1
8.869017833E0,6.254593506E0,-1.155806488E1,-2.808908844E0,1.343870428E1
8.879096833E0,6.004613342E0,-1.259795242E1,-2.128124542E0,1.411710667E1
8.889175833E0,5.773044891E0,-1.313353867E1,-1.847308502E0,1.446479982E1
8.899255833E0,4.838837585E0,-1.266471359E1,-1.859732666E0,1.368458714E1
8.909334833E0,3.485950928E0,-1.150432663E1,-1.742975464E0,1.214657765E1
8.919413833E0,2.392325134E0,-1.065918411E1,-1.183588715E0,1.098828047E1
8.929492833E0,1.508862305E0,-1.011057495E1,-2.841091919E-1,1.022649057E1
8.939571833E0,8.604107666E-1,-9.682764587E0,5.888754272E-1,9.738737650E0
8.949650833E0,6.315367126E-1,-9.411229248E0,1.283880157E0,9.519370927E0
8.959729833E0,8.506809998E-1,-9.333840179E0,1.760189667E0,9.536377631E0
8.969808833E0,1.310225372E0,-9.233698425E0,2.188000031E0,9.579416541E0
8.979887833E0,1.806443481E0,-9.108708344E0,2.536475372E0,9.626292799E0
8.989967833E0,2.168091431E0,-8.727301483E0,2.771786041E0,9.410058952E0
9.000046833E0,2.429447937E0,-8.179889832E0,2.888393555E0,9.008642088E0
9.010125833E0,2.825224915E0,-7.907456360E0,2.689756622E0,8.817287144E0
9.020204833E0,3.280877380E0,-8.214018860E0,2.063159637E0,9.082449554E0
9.030283833E0,3.599864044E0,-8.722212067E0,1.325493622E0,9.528532826E0
9.040362833E0,3.888164520E0,-9.191785583E0,6.682104492E-1,1.000266218E1
9.050441833E0,4.155957642E0,-9.572593689E0,1.480421448E-1,1.043687934E1
9.060520833E0,4.469555511E0,-1.004306534E1,-2.869532776E-1,1.099647353E1
9.070600833E0,4.789589996E0,-1.075004517E1,-7.057823181E-1,1.178990128E1
9.080679833E0,4.985083466E0,-1.141630966E1,-1.290915527E0,1.252396289E1
9.090758833E0,5.094356232E0,-1.177496384E1,-2.278711395E0,1.303053201E1
9.100837833E0,4.985831909E0,-1.173275162E1,-3.680995331E0,1.326897535E1
9.110916833E0,4.504133606E0,-1.104597977E1,-4.700076141E0,1.282152894E1
9.120995833E0,4.042194214E0,-9.921368408E0,-3.940256195E0,1.141483701E1
9.131074833E0,3.699257355E0,-8.937464447E0,-1.726060638E0,9.825581970E0
9.141153833E0,3.190465393E0,-8.521329803E0,1.225950623E-1,9.099843987E0
9.151232833E0,2.649340668E0,-8.308622131E0,1.132544861E0,8.794024423E0
9.161312833E0,2.291584625E0,-8.245154114E0,1.923200684E0,8.771124633E0
9.171391833E0,2.072739716E0,-8.383316803E0,2.673290863E0,9.040062753E0
9.181470833E0,1.913470917E0,-8.652457123E0,3.298540649E0,9.455514562E0
9.191549833E0,1.840871887E0,-8.930279388E0,3.855382690E0,9.899630041E0
9.201628833E0,1.890119476E0,-9.166338501E0,4.475543060E0,1.037423727E1
9.211707833E0,2.055974579E0,-9.392368469E0,4.850812683E0,1.076912256E1
9.221786292E0,2.315534821E0,-9.516610107E0,4.825365601E0,1.091841209E1
9.231865292E0,2.612816620E0,-9.639504547E0,4.403243408E0,1.091491691E1
9.241945292E0,2.965333557E0,-9.556876373E0,3.769012299E0,1.069263966E1
9.252024292E0,3.316652985E0,-9.450447693E0,3.153941345E0,1.050040450E1
9.262103292E0,3.622766418E0,-9.424701233E0,2.615660706E0,1.043029773E1
9.272182292E0,3.866609344E0,-9.424551544E0,2.194736023E0,1.042063846E1
9.282261292E0,4.097279663E0,-9.374705200E0,1.894759827E0,1.040494657E1
9.292340292E0,4.275708618E0,-9.303603058E0,1.494342499E0,1.034754916E1
9.302419292E0,4.333189087E0,-9.187444611E0,8.243357849E-1,1.019142756E1
9.312498292E0,4.254303131E0,-9.035809937E0,7.738906860E-2,9.987539507E0
9.322577292E0,4.108955383E0,-8.959319000E0,-6.233038330E-1,9.876305937E0
9.332657292E0,3.958368530E0,-8.990005188E0,-1.168320465E0,9.892110362E0
9.342736292E0,3.741170197E0,-9.079519043E0,-1.488354950E0,9.932231418E0
9.352815292E0,3.427871704E0,-9.153764648E0,-1.491199036E0,9.887638051E0
9.362894292E0,3.067421265E0,-9.141939240E0,-9.135502625E-1,9.686005387E0
9.372973292E0,2.971321106E0,-9.255253601E0,-2.769241333E-2,9.720557351E0
9.383052292E0,2.940485229E0,-9.351054382E0,7.376660156E-1,9.830199520E0
9.393131292E0,2.929258575E0,-9.359287262E0,1.340462494E0,9.898164151E0
9.403210292E0,2.927462311E0,-9.276060333E0,1.803599396E0,9.892840930E0
9.413289292E0,2.971321106E0,-9.236841888E0,2.164199524E0,9.941416235E0
9.423369292E0,2.949466553E0,-9.221423950E0,2.409689026E0,9.977004251E0
9.433448292E0,2.904559937E0,-9.252708893E0,2.528092804E0,1.002199299E1
9.443527292E0,2.816393280E0,-9.283095703E0,2.577490082E0,1.003749929E1
9.453606292E0,2.842738495E0,-9.279652863E0,2.522853699E0,1.002785671E1
9.463685292E0,2.959944763E0,-9.341923370E0,2.255359955E0,1.005581691E1
9.473764292E0,2.995720367E0,-9.329050140E0,1.937720490E0,9.988006695E0
9.483843292E0,2.957250366E0,-9.287137299E0,1.674118652E0,9.889333759E0
9.493922292E0,2.912792816E0,-9.306147766E0,1.423988800E0,9.854770030E0
9.504001292E0,2.933599548E0,-9.341773682E0,1.136287079E0,9.857276001E0
9.514081292E0,2.923271027E0,-9.274563446E0,8.720864868E-1,9.763379305E0
9.524160292E0,2.908601532E0,-9.159602509E0,6.480024719E-1,9.632143489E0
9.534239292E0,2.896776123E0,-9.096284180E0,5.604345703E-1,9.562833508E0
9.544318292E0,2.837649078E0,-9.120533752E0,5.580395508E-1,9.568061265E0
9.554397292E0,2.815046082E0,-9.209299164E0,6.936575317E-1,9.654886654E0
9.564476292E0,2.875670013E0,-9.286089478E0,9.268725586E-1,9.765245954E0
9.574555292E0,2.908302155E0,-9.308093719E0,1.146914978E0,9.819075521E0
9.584634292E0,2.946772156E0,-9.285191345E0,1.329684906E0,9.831902481E0
9.594714292E0,2.949616241E0,-9.266779633E0,1.439107361E0,9.830791968E0
9.604793292E0,2.936892700E0,-9.277856598E0,1.514999542E0,9.848816446E0
9.614872292E0,2.897075500E0,-9.293723602E0,1.527124329E0,9.853854757E0
9.624951292E0,2.844534760E0,-9.300459595E0,1.411414948E0,9.827615114E0
9.635030292E0,2.857258301E0,-9.317374420E0,1.274000702E0,9.828553753E0
9.645109292E0,2.852019196E0,-9.271120605E0,1.170116730E0,9.770202860E0
9.655188292E0,2.804867249E0,-9.232051849E0,1.058149567E0,9.706582413E0
9.665267292E0,2.781964874E0,-9.241033173E0,1.004860382E0,9.702874164E0
9.675346292E0,2.780917053E0,-9.226962433E0,9.937834167E-1,9.688030805E0
9.685426292E0,2.791095886E0,-9.240883484E0,1.043180695E0,9.709395953E0
9.695505292E0,2.826272736E0,-9.276060333E0,1.108295288E0,9.760196275E0
9.705584292E0,2.856509857E0,-9.363628235E0,1.108444977E0,9.852199376E0
9.715663292E0,2.952909393E0,-9.392518158E0,1.134041748E0,9.910858788E0
9.725742292E0,2.990481262E0,-9.362430725E0,1.159638519E0,9.896607942E0
9.735821292E0,3.010090485E0,-9.294022980E0,1.186133423E0,9.841057889E0
9.745900292E0,2.963088226E0,-9.234895935E0,1.184037781E0,9.770626399E0
9.755979292E0,2.937192078E0,-9.220974884E0,1.138532410E0,9.744215267E0
9.766058292E0,2.978057098E0,-9.237440643E0,1.085841980E0,9.766175635E0
9.776138292E0,3.070564728E0,-9.258397064E0,1.076710968E0,9.813541178E0
9.786217292E0,3.131338348E0,-9.247320099E0,1.108145599E0,9.825792362E0
9.796296292E0,3.136427765E0,-9.242080994E0,1.129551086E0,9.824923708E0
9.806375292E0,3.027604065E0,-9.203610992E0,1.147064667E0,9.756464474E0
9.816454292E0,2.960094452E0,-9.189240875E0,1.171613617E0,9.725069948E0
9.826533292E0,3.002456360E0,-9.226812744E0,1.272952881E0,9.786175282E0
9.836612292E0,3.011287994E0,-9.181906128E0,1.390159149E0,9.762571279E0
9.846691292E0,3.024460602E0,-9.149872742E0,1.440753937E0,9.743885520E0
9.856770292E0,3.037483521E0,-9.181457062E0,1.379830627E0,9.768796880E0
9.866850292E0,3.026855621E0,-9.181606750E0,1.233285370E0,9.746012019E0
9.876929292E0,3.024610291E0,-9.222471771E0,1.088237000E0,9.766601904E0
9.887008292E0,2.952460327E0,-9.241033173E0,1.054856415E0,9.758403462E0
9.897087292E0,2.892734528E0,-9.274862823E0,1.053359528E0,9.772438781E0
9.907166292E0,2.845432892E0,-9.385632477E0,1.073118439E0,9.866010770E0
9.917245292E0,2.787503357E0,-9.433682556E0,1.084045715E0,9.896448689E0
9.927324292E0,2.771187286E0,-9.398805084E0,1.088985443E0,9.859153376E0
9.937403292E0,2.780767365E0,-9.344917145E0,1.159488831E0,9.818582277E0
9.947483292E0,2.855312347E0,-9.286089478E0,1.246308289E0,9.794771602E0
9.957562292E0,2.951113129E0,-9.201365662E0,1.353635101E0,9.757383190E0
9.967641292E0,3.052003326E0,-9.163943481E0,1.417851562E0,9.762319780E0
9.977720292E0,3.119063873E0,-9.181457062E0,1.452579346E0,9.804983426E0
9.987799292E0,3.145409088E0,-9.200916595E0,1.425785065E0,9.827681699E0
9.997878292E0,3.153043213E0,-9.251062317E0,1.359472961E0,9.867725281E0