"Time (s)","Acceleration x (m/s^2)","Acceleration y (m/s^2)","Acceleration z (m/s^2)","Absolute acceleration (m/s^2)"
-1.260416666E-3,8.573271790E0,4.680766296E0,2.279609528E0,1.003031315E1
8.747583333E-3,8.524772644E0,4.488865356E0,2.212548981E0,9.885192654E0
1.875558333E-2,8.577313385E0,4.452341309E0,2.190395050E0,9.909161342E0
2.876458333E-2,8.443940735E0,4.523892517E0,2.396965485E0,9.874775044E0
3.877258333E-2,8.367599487E0,4.551285553E0,2.485281830E0,9.844163100E0
4.878058333E-2,8.272696838E0,4.564308472E0,2.445015564E0,9.759535128E0
5.878958333E-2,8.277636566E0,4.583318939E0,2.495760040E0,9.785443158E0
6.879758333E-2,8.234825592E0,4.635560303E0,2.532134399E0,9.783275345E0
7.880558333E-2,8.320297852E0,4.654870148E0,2.555785217E0,9.870522302E0
8.881458333E-2,8.314459991E0,4.664450226E0,2.487976227E0,9.852784711E0
9.882258333E-2,8.225993958E0,4.702620850E0,2.438129883E0,9.783971421E0
1.088305833E-1,8.162076874E0,4.724475403E0,2.415077820E0,9.735130590E0
1.188385833E-1,8.268056488E0,4.687202911E0,2.502046967E0,9.828065336E0
1.288475833E-1,8.409512329E0,4.572391663E0,2.674188995E0,9.938709670E0
1.388555833E-1,8.424780579E0,4.492757263E0,2.706521759E0,9.924064473E0
1.488635833E-1,8.362659760E0,4.518952789E0,2.623294830E0,9.860866510E0
1.588725833E-1,8.303981781E0,4.512815552E0,2.595003662E0,9.800799030E0
1.688805833E-1,8.347840576E0,4.539310455E0,2.634671173E0,9.860693378E0
1.788885833E-1,8.284372559E0,4.515509949E0,2.475552063E0,9.754435750E0
1.888975833E-1,8.184530182E0,4.625231781E0,2.164049835E0,9.646886286E0
1.989055833E-1,8.259374542E0,4.701123962E0,2.330803070E0,9.785217284E0
2.089135833E-1,8.315657501E0,4.636608124E0,2.578088837E0,9.863814507E0
2.189215833E-1,8.273445282E0,4.745132446E0,2.620750122E0,9.891132896E0
2.289305833E-1,8.230933685E0,4.802912292E0,2.593656464E0,9.876400644E0
2.389385833E-1,8.240364075E0,4.799768829E0,2.463726654E0,9.849432975E0
2.489465833E-1,8.365204468E0,4.783303070E0,2.287093964E0,9.903909978E0
2.589555833E-1,8.495134277E0,4.661905518E0,2.496807861E0,1.000673368E1
2.689635833E-1,8.419541473E0,4.547992401E0,2.653831329E0,9.930545515E0
2.789715833E-1,8.233328705E0,4.519551544E0,2.616259460E0,9.749813398E0
2.889805833E-1,8.088879089E0,4.513713684E0,2.497855682E0,9.593896974E0
2.989885833E-1,8.008496246E0,4.483925629E0,2.338137817E0,9.471456574E0
3.089965833E-1,8.024962006E0,4.509522400E0,2.305056610E0,9.489420079E0
3.190045833E-1,8.250542908E0,4.566404114E0,2.258653107E0,9.696649868E0
3.290135833E-1,8.287665710E0,4.597239990E0,2.254461823E0,9.741797399E0
3.390215833E-1,8.156837769E0,4.634213104E0,2.349364471E0,9.671062346E0
3.490289167E-1,8.036488037E0,4.668192444E0,2.321073303E0,9.579381083E0
3.590379167E-1,7.973319397E0,4.727319489E0,2.310445404E0,9.552985382E0
3.690459167E-1,7.949518890E0,4.804259491E0,2.258503418E0,9.559110708E0
3.790539167E-1,7.968679047E0,4.841681671E0,2.225571899E0,9.586182631E0
3.890629167E-1,8.096363525E0,4.737947388E0,2.424358521E0,9.689002117E0
3.990709167E-1,8.317603455E0,4.587959290E0,2.570454712E0,9.840687735E0
4.090789167E-1,8.465795288E0,4.525389404E0,2.787353668E0,9.995908142E0
4.190879167E-1,8.543034668E0,4.563260651E0,3.096011810E0,1.016818953E1
4.290959167E-1,8.541537781E0,4.536017303E0,3.145259399E0,1.016985631E1
4.391039167E-1,8.528514862E0,4.466262360E0,3.040177917E0,1.009582820E1
4.491119167E-1,8.403824158E0,4.475692749E0,2.865790558E0,9.943281228E0
4.591209167E-1,8.262218628E0,4.502037964E0,2.886597290E0,9.842004186E0
4.691289167E-1,8.240064697E0,4.427043915E0,3.025059357E0,9.830990192E0
4.791369167E-1,8.292306061E0,4.516258392E0,3.032094727E0,9.917284311E0
4.891459167E-1,8.316705322E0,4.548890533E0,3.147504730E0,9.988332120E0
4.991539167E-1,8.404572601E0,4.411625977E0,3.444936218E0,1.009786462E1
5.091619167E-1,8.537645874E0,4.185146942E0,3.581003265E0,1.016023801E1
5.191709167E-1,8.578959961E0,4.106560364E0,3.523073730E0,1.014270381E1
5.291789167E-1,8.513695679E0,4.068539429E0,3.375480652E0,1.002147179E1
5.391869167E-1,8.368647308E0,3.909719696E0,3.093317413E0,9.741087131E0
5.491949167E-1,8.289911041E0,3.791615295E0,2.678829346E0,9.501320870E0
5.592039167E-1,8.275840302E0,3.633843384E0,2.346520386E0,9.338121243E0
5.692119167E-1,8.347990265E0,3.703598328E0,2.179168396E0,9.389055167E0
5.792199167E-1,8.335715790E0,3.890858917E0,2.317331085E0,9.486462154E0
5.892289167E-1,8.149353333E0,4.231700134E0,2.647843781E0,9.556689932E0
5.992369167E-1,8.253087616E0,4.378245392E0,2.949316864E0,9.796987183E0
6.092449167E-1,8.486452332E0,4.245770874E0,3.305576019E0,1.004854598E1
6.192539167E-1,8.242759094E0,3.888164520E0,3.373085632E0,9.717952845E0
6.292619167E-1,8.182434540E0,3.473826141E0,3.156036987E0,9.432935520E0
6.392699167E-1,8.402776337E0,3.350033569E0,2.837050323E0,9.480412946E0
6.492779167E-1,8.405770111E0,3.246598663E0,2.496957550E0,9.350517154E0
6.592869167E-1,8.178093567E0,3.397035828E0,2.362088013E0,9.165180117E0
6.692949167E-1,8.065827026E0,3.575764160E0,2.430346069E0,9.151515556E0
6.793029167E-1,8.274343414E0,3.567830658E0,2.644550629E0,9.390837160E0
6.893119167E-1,8.717272339E0,3.433559875E0,2.599045258E0,9.722921716E0
6.993199167E-1,9.017996979E0,3.715573425E0,2.411335602E0,1.004710380E1
7.093279167E-1,9.149573364E0,3.958967285E0,2.068847809E0,1.018176046E1
7.193359167E-1,8.985813904E0,3.658991089E0,1.854343872E0,9.877836732E0
7.293449167E-1,8.737180939E0,3.725602570E0,1.293460236E0,9.586004624E0
7.393529167E-1,8.080646210E0,4.193828888E0,1.411864014E0,9.212947623E0
7.493609167E-1,7.362290039E0,4.539460144E0,1.732646942E0,8.821115488E0
7.593699167E-1,6.871610413E0,5.539231110E0,1.853595428E0,9.018754180E0
7.693779167E-1,6.495742035E0,7.308102722E0,2.095043335E0,9.999611820E0
7.793859167E-1,6.534062347E0,8.047115936E0,2.012415161E0,1.055934943E1
7.893949167E-1,7.693551178E0,5.760770416E0,1.389560394E0,9.711234917E0
7.994029167E-1,8.957822113E0,2.086511078E0,5.652246094E-1,9.214965238E0
8.094109167E-1,9.192833405E0,1.211879883E0,4.677772522E-1,9.284161481E0
8.194189167E-1,8.733738098E0,1.813329163E0,3.414399719E-1,8.926529285E0
8.294279167E-1,7.965834961E0,2.763104095E0,2.547702026E-1,8.435293636E0
8.394359167E-1,7.105723572E0,3.901786194E0,4.840933228E-1,8.120935249E0
8.494439167E-1,6.532116394E0,5.325026550E0,1.152603149E0,8.506053513E0
8.594529167E-1,5.895490265E0,6.881639557E0,2.248174896E0,9.336383605E0
8.694609167E-1,4.932842102E0,8.662037201E0,6.444847870E0,1.187012568E1
8.794689167E-1,3.809128876E0,1.009380981E1,1.103265747E1,1.543094262E1
8.894779167E-1,3.971690826E0,9.975256348E0,7.980953522E0,1.337817949E1
8.994859167E-1,5.208119659E0,8.977431335E0,4.909340973E0,1.148130709E1
9.094939167E-1,6.935976563E0,7.757468262E0,2.872526550E0,1.079525329E1
9.195019167E-1,7.897127838E0,6.114484863E0,2.116748199E0,1.020941605E1
9.295109167E-1,7.986342316E0,5.868845673E0,3.180436249E0,1.040865927E1
9.395189167E-1,7.996820526E0,6.180198212E0,3.715274048E0,1.076788047E1
9.495269167E-1,8.121211853E0,5.914650421E0,3.278931427E0,1.056828098E1
9.595359167E-1,7.906707916E0,5.668262787E0,2.993774414E0,1.017879749E1
9.695439167E-1,7.377258911E0,5.718408508E0,2.614163818E0,9.693193353E0
9.795519167E-1,7.070397034E0,5.527854767E0,2.296224976E0,9.263926904E0
9.895609167E-1,6.971153412E0,5.225483551E0,2.100432129E0,8.961834263E0
9.995689167E-1,6.810836792E0,4.820126495E0,2.318528595E0,8.660063053E0
1.009576917E0,6.975045319E0,4.068988495E0,2.668500824E0,8.504635278E0
1.019584917E0,7.019203491E0,3.630101166E0,2.743045807E0,8.364876115E0
1.029593917E0,6.654112701E0,3.791016541E0,3.147055664E0,8.279672796E0
1.039601917E0,7.045548706E0,3.899540863E0,2.814147949E0,8.530275740E0
1.049609917E0,7.500452728E0,4.015100555E0,2.319875793E0,8.818143075E0
1.059618917E0,7.729177094E0,4.464166718E0,2.057022400E0,9.159710922E0
1.069626917E0,8.396938477E0,4.142036591E0,1.366957397E0,9.462220428E0
1.079634917E0,9.225914612E0,3.438200226E0,1.211879883E0,9.920049096E0
1.089643917E0,9.834998016E0,3.079396362E0,7.400610352E-1,1.033235492E1
1.099651917E0,1.008467880E1,3.155887299E0,2.875520325E-1,1.057085888E1
1.109659917E0,9.394464111E0,3.978426819E0,7.125183105E-2,1.020239740E1
1.119667917E0,7.495363312E0,5.790558472E0,-6.575825500E-1,9.494390628E0
1.129676917E0,5.433401184E0,7.519762573E0,-1.689985657E0,9.429990939E0
1.139684917E0,4.242178345E0,7.855813751E0,-1.611099701E0,9.072239473E0
1.149692917E0,3.464395752E0,7.524552612E0,-1.267863464E0,8.380239120E0
1.159701917E0,2.990630951E0,7.160509644E0,-1.047671356E0,7.830350382E0
1.169709917E0,2.049537964E0,7.118596802E0,-6.448590088E-1,7.435783041E0
1.179717917E0,9.848020935E-1,7.106022949E0,2.005828857E-2,7.173966800E0
1.189725917E0,1.719923401E-1,6.874604187E0,4.523593140E-1,6.891617593E0
1.199734917E0,-3.266207886E-1,6.198011169E0,9.172924805E-1,6.274029733E0
1.209742917E0,-3.582051086E-1,5.093009033E0,1.765129395E0,5.402104561E0
1.219750917E0,-3.664379883E-1,4.821473694E0,1.420545959E0,5.039725806E0
1.229759917E0,-1.901046753E-1,5.096601562E0,7.665559387E-1,5.157431074E0
1.239767917E0,9.729766846E-3,5.802084503E0,1.284329224E-1,5.803513958E0
1.249775917E0,2.576142883E-1,7.810907135E0,-4.489164734E-1,7.828036880E0
1.259784917E0,2.326162720E-1,1.169982010E1,-8.246351624E-1,1.173115185E1
1.269792917E0,5.019062805E-1,1.654195084E1,-8.021818542E-1,1.656899342E1
1.279800917E0,6.614744568E-1,2.123409348E1,3.016227722E-1,2.124653502E1
1.289808917E0,5.267546082E-1,2.503618698E1,1.582060089E0,2.509165286E1
1.299817917E0,1.155596924E-1,2.658651306E1,1.779948578E0,2.664628019E1
1.309825917E0,-6.649172974E-1,2.452485031E1,6.896159363E-1,2.454355247E1
1.319833917E0,-9.089099121E-1,1.898008072E1,1.854643250E-1,1.900273608E1
1.329842917E0,-3.345542908E-1,1.389485550E1,5.297483826E-1,1.390897441E1
1.339850917E0,2.501298523E-1,1.049826874E1,9.994715881E-1,1.054870394E1
1.349858917E0,7.767347717E-1,8.175249481E0,1.241667938E0,8.305405484E0
1.359868167E0,1.274749146E0,6.743327179E0,1.257984009E0,6.977103310E0
1.369876167E0,1.892963562E0,6.125561829E0,1.078207855E0,6.501411458E0
1.379884167E0,2.649789734E0,6.140081635E0,7.711962891E-1,6.731770334E0
1.389892167E0,3.376079407E0,6.780749359E0,4.321513367E-1,7.587043483E0
1.399901167E0,3.890260162E0,7.830666046E0,2.725831604E-1,8.748014428E0
1.409909167E0,3.976480865E0,9.050030365E0,3.062631226E-1,9.889855751E0
1.419917167E0,3.722908173E0,1.013048355E1,5.369334412E-1,1.080625003E1
1.429926167E0,3.633544006E0,1.054811508E1,7.563771057E-1,1.118201593E1
1.439934167E0,3.869902496E0,1.035037628E1,6.301895142E-1,1.106813324E1
1.449942167E0,3.915407867E0,1.000998413E1,3.064128113E-1,1.075286426E1
1.459950167E0,3.729793854E0,9.615704041E0,-6.256988525E-2,1.031392464E1
1.469959167E0,3.419189758E0,9.340127106E0,-3.107537842E-1,9.951150731E0
1.479967167E0,2.942281494E0,9.263935547E0,-4.194277954E-1,9.729000045E0
1.489975167E0,2.454445953E0,9.224417725E0,-4.890330505E-1,9.557894152E0
1.499984167E0,2.054926758E0,9.117240601E0,-5.665718079E-1,9.363108659E0
1.509992167E0,1.756746826E0,8.965605927E0,-6.173162842E-1,9.156927893E0
1.520000167E0,1.611548767E0,8.927135925E0,-6.664141846E-1,9.095875611E0
1.530009167E0,1.546733551E0,8.998537445E0,-7.288343811E-1,9.159544769E0
1.540017167E0,1.598675537E0,9.132957916E0,-9.874964905E-1,9.324260458E0
1.550025167E0,1.797611847E0,9.397757263E0,-1.454525299E0,9.678062501E0
1.560034167E0,2.098037109E0,9.819131012E0,-1.852098541E0,1.021015977E1
1.570042167E0,2.321971436E0,1.021266266E1,-1.932930450E0,1.065017606E1
1.580050167E0,2.440075836E0,1.061158310E1,-1.693129120E0,1.101936260E1
1.590058167E0,2.479893036E0,1.106319397E1,-1.249152374E0,1.140633648E1
1.600067167E0,2.421364746E0,1.151749924E1,-7.179071045E-1,1.179114865E1
1.610075167E0,2.219734039E0,1.182346298E1,-1.540296936E-1,1.203101082E1
1.620083167E0,1.782792664E0,1.179996185E1,4.225712585E-1,1.194135737E1
1.630092167E0,1.291813660E0,1.146929947E1,1.389859772E0,1.162520206E1
1.640100167E0,1.084494781E0,1.119477036E1,3.037333832E0,1.165008193E1
1.650108167E0,9.110055542E-1,1.096903976E1,4.753365326E0,1.198933886E1
1.660116167E0,4.953199768E-1,1.095137650E1,5.990991669E0,1.249279673E1
1.670125167E0,-1.128652954E-1,1.124790985E1,6.166426849E0,1.282782268E1
1.680133167E0,-4.502636719E-1,1.137948624E1,5.005740509E0,1.243997116E1
1.690141167E0,-4.376898193E-1,1.111932724E1,3.408711548E0,1.163831281E1
1.700150167E0,-1.672023010E-1,1.082279388E1,2.129471741E0,1.103156716E1
1.710158167E0,4.364923096E-1,1.069690567E1,1.403032379E0,1.079735228E1
1.720166167E0,1.231938171E0,1.074256073E1,1.192120972E0,1.087848496E1
1.730175167E0,1.740430756E0,1.094643677E1,1.211281128E0,1.114992283E1
1.740183167E0,1.929188232E0,1.117935242E1,1.214574280E0,1.140942060E1
1.750191167E0,2.015109558E0,1.138397690E1,1.205742645E0,1.162365742E1
1.760199167E0,1.991458740E0,1.147977768E1,1.133892059E0,1.170627672E1
1.770208167E0,1.937720490E0,1.159728333E1,1.040336609E0,1.180398414E1
1.780216167E0,1.915566559E0,1.169637726E1,1.004860382E0,1.189472070E1
1.790224167E0,1.875599670E0,1.167691772E1,1.009949799E0,1.186963691E1
1.800233167E0,1.741777954E0,1.157692566E1,8.062234497E-1,1.173494757E1
1.810241167E0,1.507664795E0,1.153995255E1,1.725910950E-1,1.163930176E1
1.820249167E0,1.029259644E0,1.145253433E1,-7.542814636E-1,1.152340482E1
1.830258167E0,4.257147217E-1,1.131811386E1,-1.535955963E0,1.142978981E1
1.840266167E0,-1.646575928E-2,1.109298203E1,-2.205812988E0,1.131017826E1
1.850274167E0,-2.269281006E-1,1.079659836E1,-3.302881622E0,1.129278794E1
1.860282167E0,-1.962419128E-1,1.075947556E1,-5.642067261E0,1.215062748E1
1.870291167E0,2.013313293E-1,1.080453186E1,-5.181175690E0,1.198428240E1
1.880299167E0,1.774110718E0,1.119297409E1,-1.605561218E0,1.144587107E1
1.890307167E0,2.027384033E0,1.069406158E1,3.417393494E-1,1.088990473E1
1.900316167E0,1.678908691E0,9.532926178E0,1.507515106E0,9.796326745E0
1.910324167E0,1.653611298E0,8.473130035E0,2.429148560E0,8.968228679E0
1.920332167E0,1.806443481E0,7.884553986E0,3.475472717E0,8.803882110E0
1.930341167E0,1.508113861E0,7.865842896E0,3.649560699E0,8.801430859E0
1.940349167E0,9.256750488E-1,8.386460266E0,2.796035614E0,8.888610985E0
1.950357167E0,6.224057007E-1,8.909173279E0,1.710493011E0,9.093214157E0
1.960365167E0,3.576063538E-1,9.134155426E0,8.461903381E-1,9.180235059E0
1.970374167E0,-4.640350342E-2,8.974886627E0,6.113287354E-1,8.995802692E0
1.980382167E0,-4.159849548E-1,8.585845642E0,5.421725464E-1,8.612998313E0
1.990390167E0,-7.945477295E-1,8.136629791E0,4.260140991E-1,8.186424034E0
2.000399167E0,-1.147364044E0,7.725135498E0,3.356021118E-1,7.817083311E0
2.010407167E0,-1.426234131E0,7.486681366E0,5.610333252E-1,7.641943474E0
2.020415167E0,-1.666783905E0,7.243437195E0,1.323697357E0,7.549683813E0
2.030424167E0,-1.770817566E0,6.875352631E0,2.141147461E0,7.415576923E0
2.040432167E0,-1.727707214E0,6.532266083E0,2.702031097E0,7.277117867E0
2.050440167E0,-1.590742035E0,6.347550201E0,2.832409973E0,7.130525930E0
2.060448167E0,-1.329834595E0,6.257587280E0,2.666255493E0,6.930712588E0
2.070457167E0,-9.958790588E-1,6.022725677E0,2.871329041E0,6.746075166E0
2.080465167E0,-4.665797424E-1,5.633235626E0,3.749103699E0,6.782832655E0
2.090473167E0,2.878514099E-1,5.363197174E0,4.950505371E0,7.304399071E0
2.100482167E0,1.032552795E0,5.188809814E0,6.491550751E0,8.374374228E0
2.110490167E0,1.651964722E0,5.273683319E0,8.240962830E0,9.922408556E0
2.120498167E0,2.131866760E0,5.782026215E0,1.062535446E1,1.228311200E1
2.130507167E0,2.604284363E0,6.884783020E0,1.297935928E1,1.492133713E1
2.140515167E0,3.033441925E0,8.237070923E0,1.374860962E1,1.631181700E1
2.150523167E0,2.974165192E0,9.300010529E0,1.221579712E1,1.563846392E1
2.160532167E0,2.285896454E0,9.657018127E0,9.059011688E0,1.343685285E1
2.170540167E0,1.151106262E0,8.935518494E0,5.528752899E0,1.057050827E1
2.180548167E0,-1.422042847E-2,7.256460114E0,2.179617462E0,7.576750483E0
2.190556167E0,-9.135502625E-1,5.378465424E0,-3.273692322E-1,5.465311977E0
2.200565167E0,-1.597328339E0,4.231700134E0,-1.891915741E0,4.902865389E0
2.210573167E0,-1.921105042E0,4.192332001E0,-2.500400391E0,5.245788244E0
2.220581167E0,-1.894610138E0,5.049748993E0,-2.305655365E0,5.865625212E0
2.230590167E0,-1.566043396E0,7.791297913E0,-7.581733704E-1,7.983210002E0
2.240598167E0,-7.168592834E-1,1.332753525E1,3.263214111E0,1.373992902E1
2.250606167E0,2.478845215E-1,2.024569885E1,8.497678986E0,2.195814921E1
2.260615167E0,1.011147308E0,2.491463974E1,8.996591492E0,2.650849582E1
2.270623167E0,1.149160309E0,2.459580276E1,4.482728119E0,2.502736371E1
2.280631167E0,1.895059204E-1,1.984692810E1,6.316864014E-2,1.984793334E1
2.290639167E0,-5.508544922E-1,1.353874603E1,-3.013982391E0,1.388110855E1
2.300648167E0,-8.187973022E-1,8.771759033E0,-4.025429077E0,9.685982904E0
2.310656167E0,-8.328680420E-1,5.777984619E0,-3.885170746E0,7.012369582E0
2.320664167E0,-3.682342529E-1,4.025728455E0,-3.244503021E0,5.183520610E0
2.330673167E0,4.358935547E-1,3.692521362E0,-2.868784332E0,4.696236871E0
2.340681167E0,1.430275726E0,4.829407196E0,-3.689377899E0,6.243426287E0
2.350689167E0,2.354902954E0,6.699019318E0,-5.007237396E0,8.688777479E0
2.360697542E0,3.069816284E0,8.444838867E0,-5.748196564E0,1.066681017E1
2.370705542E0,3.454965363E0,9.621092834E0,-5.516029358E0,1.161588537E1
2.380713542E0,3.737128601E0,1.042072998E1,-4.190086670E0,1.183700003E1
2.390722542E0,4.518503723E0,1.112172226E1,-1.745669861E0,1.213082624E1
2.400730542E0,5.485642548E0,1.162497574E1,2.364632721E0,1.306995880E1
2.410738542E0,5.541177063E0,1.150687134E1,3.776047668E0,1.331808046E1
2.420746542E0,4.780758362E0,1.085153412E1,2.479743347E0,1.211447772E1
2.430755542E0,3.677402802E0,1.016805542E1,1.491049347E0,1.091493795E1
2.440763542E0,1.893113251E0,9.817484436E0,1.741328888E0,1.014884746E1
2.450771542E0,1.514849854E-1,9.846973114E0,2.861898651E0,1.025554928E1
2.460780542E0,-6.668632507E-1,9.764045563E0,2.783162384E0,1.017483588E1
2.470788542E0,-5.411247253E-1,9.649533691E0,1.203048248E0,9.739283419E0
2.480796542E0,1.122665405E-2,9.693093109E0,-7.027885437E-1,9.718543708E0
2.490805542E0,7.830216980E-1,9.824370117E0,-2.429298248E0,1.015051039E1
2.500813542E0,1.486708374E0,9.972112885E0,-3.306025085E0,1.061052021E1
2.510821542E0,2.138602753E0,9.817185059E0,-3.281027069E0,1.056957345E1
2.520830542E0,2.631677399E0,9.408983917E0,-2.418670349E0,1.006502213E1
2.530838542E0,3.018023987E0,8.925339661E0,-5.523513794E-1,9.437968473E0
2.540846542E0,3.490740967E0,8.511749725E0,1.642833710E0,9.345269310E0
2.550854542E0,4.009262695E0,8.316855011E0,2.703677673E0,9.620506099E0
2.560863542E0,4.225562897E0,8.506211243E0,1.679208069E0,9.645245007E0
2.570871542E0,4.190236359E0,8.927584991E0,2.128573608E-1,9.864337929E0
2.580879542E0,4.099075928E0,9.412726135E0,-9.946815491E-1,1.031461236E1
2.590888542E0,4.034111023E0,9.685309296E0,-1.455573120E0,1.059235389E1
2.600896542E0,4.023034058E0,9.635313263E0,-1.199156342E0,1.051009232E1
2.610904542E0,3.966751099E0,9.294322357E0,-7.008425903E-1,1.012969509E1
2.620913542E0,3.756737823E0,8.948092346E0,-2.404000854E-1,9.707689113E0
2.630921542E0,3.406765594E0,8.802295532E0,1.342707825E-1,9.439517313E0
2.640929542E0,3.018622742E0,8.764124908E0,4.487667847E-1,9.280267253E0
2.650937542E0,2.731070709E0,8.796307983E0,6.194119263E-1,9.231329942E0
2.660946542E0,2.545606384E0,8.916657715E0,5.950126648E-1,9.291982390E0
2.670954542E0,2.448159027E0,9.039402466E0,4.661306763E-1,9.376649581E0
2.680962542E0,2.321971436E0,9.138197021E0,3.766168213E-1,9.436102817E0
2.690971542E0,2.099683685E0,9.242230682E0,3.670367432E-1,9.484841355E0
2.700979542E0,1.756297760E0,9.338031464E0,5.574407959E-1,9.518096116E0
2.710987542E0,1.311722260E0,9.309440918E0,8.683442688E-1,9.441415533E0
2.720996542E0,8.942404175E-1,9.031618652E0,1.352886658E0,9.176061449E0
2.731004542E0,7.601193237E-1,8.676856384E0,1.314716034E0,8.808751123E0
2.741012542E0,9.301657104E-1,8.467142487E0,6.881190491E-1,8.545830443E0
2.751021542E0,1.321601715E0,8.620124359E0,1.212478638E-1,8.721689980E0
2.761029542E0,1.857187958E0,9.222471771E0,8.577163696E-2,9.408001353E0
2.771037542E0,3.007545776E0,9.824070740E0,2.531236267E-1,1.027724521E1
2.781046542E0,4.151616669E0,1.014650024E1,-2.050735474E-2,1.096302005E1
2.791054542E0,4.340074768E0,1.030472122E1,5.896238708E-1,1.119692747E1
2.801062542E0,4.026925964E0,1.038240967E1,2.119143219E0,1.133584277E1
2.811070542E0,3.771407318E0,1.055919205E1,3.109783173E0,1.163575529E1
2.821079542E0,4.047133942E0,1.084734283E1,2.128124542E0,1.177170564E1
2.831087542E0,4.783901825E0,1.116138977E1,1.121168518E-1,1.214392476E1
2.841095542E0,5.513784027E0,1.154938293E1,-1.477128296E0,1.288301085E1
2.851104542E0,5.964047699E0,1.232521957E1,-2.405048676E0,1.390198409E1
2.861112542E0,6.274053040E0,1.329430435E1,-2.559826813E0,1.492162803E1
2.871120542E0,6.820416870E0,1.397898056E1,-2.155367889E0,1.570272570E1
2.881129542E0,7.466922455E0,1.424033707E1,-1.198108521E0,1.612382072E1
2.891137542E0,7.913892975E0,1.422851166E1,4.267625427E-1,1.628687730E1
2.901145542E0,7.254813538E0,1.399409912E1,2.036215668E0,1.589381339E1
2.911154542E0,4.613556061E0,1.349099533E1,2.115850067E0,1.441418316E1
2.921162542E0,2.298021240E0,1.296049850E1,1.756447449E0,1.327932719E1
2.931170542E0,1.388961639E0,1.270572830E1,1.373394012E0,1.285499736E1
2.941178542E0,1.315015411E0,1.240904526E1,3.128494263E-1,1.248244946E1
2.951187542E0,1.588796082E0,1.226714035E1,-5.763015747E-1,1.238301776E1
2.961195542E0,1.908082123E0,1.215098190E1,-1.331481171E0,1.237174122E1
2.971203542E0,2.305805054E0,1.194411209E1,-2.371069336E0,1.239356770E1
2.981212542E0,2.098186798E0,1.215681976E1,-2.658022614E0,1.261965684E1
2.991220542E0,1.666783905E0,1.331481171E1,-1.678609314E0,1.352331722E1
3.001228542E0,1.552721100E0,1.469254669E1,-3.135978699E-1,1.477769315E1
3.011237542E0,2.005379791E0,1.605396561E1,2.043101349E0,1.630722610E1
3.021245542E0,2.627935181E0,1.624960876E1,2.596201172E0,1.666421582E1
3.031253542E0,3.114423523E0,1.563798065E1,1.067879333E0,1.598081472E1
3.041262542E0,3.184777222E0,1.434661606E1,-8.244854736E-1,1.471896649E1
3.051270542E0,3.077151031E0,1.281649796E1,-2.023492126E0,1.333514150E1
3.061278542E0,2.795287170E0,1.084449875E1,-2.485281830E0,1.147141706E1
3.071286542E0,2.534828796E0,8.763376465E0,-2.044448547E0,9.348898007E0
3.081295542E0,2.625390472E0,7.041656799E0,-1.721270599E0,7.709758627E0
3.091303542E0,2.999911652E0,5.823789368E0,-1.746717682E0,6.779897874E0
3.101311542E0,3.465293884E0,4.600982208E0,-1.619033203E0,5.983190411E0
3.111320542E0,4.121978302E0,3.478616180E0,-9.714797974E-1,5.480442377E0
3.121328542E0,4.752916260E0,2.717898102E0,4.864883423E-2,5.475358415E0
3.131336542E0,4.864134979E0,2.355801086E0,4.331991577E-1,5.421924876E0
3.141345542E0,4.310735779E0,2.569257202E0,1.541793823E-1,5.020686886E0
3.151353542E0,3.247197418E0,3.692072296E0,-6.870712280E-1,4.964650621E0
3.161361542E0,2.128124542E0,4.776716766E0,-1.261426849E0,5.379324756E0
3.171370542E0,1.120420074E0,5.288951569E0,-1.439855804E0,5.594777438E0
3.181378542E0,3.004252625E-1,5.449118500E0,-1.458716583E0,5.648982371E0
3.191386542E0,-3.679348755E-1,5.343587952E0,-1.253493347E0,5.500959356E0
3.201395542E0,-8.937913513E-1,5.126090240E0,-9.231303406E-1,5.284679154E0
3.211403542E0,-1.262025604E0,4.874613190E0,-4.138893127E-1,5.052313009E0
3.221411542E0,-1.485660553E0,4.616549835E0,5.066963196E-1,4.876111239E0
3.231419542E0,-1.710193634E0,4.303251343E0,1.890418854E0,5.001641513E0
3.241428542E0,-1.792372742E0,4.059109039E0,2.938239899E0,5.321862450E0
3.251436542E0,-1.554367676E0,4.111200714E0,3.713477783E0,5.753950593E0
3.261444542E0,-8.810678101E-1,4.730762329E0,4.727319489E0,6.745660994E0
3.271453542E0,1.297801208E-1,5.847140808E0,6.252497864E0,8.561520195E0
3.281461542E0,1.511107635E0,7.238198090E0,7.835755463E0,1.077376543E1
3.291469542E0,3.016527100E0,8.977880402E0,9.257498932E0,1.324398198E1
3.301478542E0,4.472848663E0,1.057535843E1,1.033959869E1,1.545159805E1
3.311486542E0,5.591322784E0,1.159683426E1,1.042058029E1,1.656315033E1
3.321494542E0,6.104156342E0,1.193408295E1,9.887239380E0,1.665654715E1
3.331503542E0,5.544919281E0,1.162527512E1,9.680369568E0,1.611219123E1
3.341511542E0,4.045337677E0,1.066397415E1,9.440717926E0,1.480581834E1
3.351519542E0,2.852168884E0,9.238937531E0,8.451125793E0,1.284189866E1
3.361528458E0,2.296973419E0,7.699688416E0,6.560856628E0,1.037333737E1
3.371536458E0,2.022743683E0,6.504274292E0,3.994293823E0,7.896294018E0
3.381544458E0,1.467997284E0,5.560786285E0,1.643881531E0,5.981614048E0
3.391552458E0,4.791535950E-1,4.885091400E0,4.430786133E-2,4.908733986E0
3.401561458E0,-5.962101746E-1,5.066214752E0,-1.010099487E0,5.200221097E0
3.411569458E0,-8.716374207E-1,6.403982849E0,-1.472038879E0,6.628547849E0
3.421577458E0,-4.020639038E-1,8.819659424E0,-6.851252747E-1,8.855362464E0
3.431586458E0,3.700305176E-1,1.267459305E1,2.491269379E0,1.292240901E1
3.441594458E0,2.026485901E0,1.816278030E1,7.052883453E0,1.958919086E1
3.451602458E0,5.152435455E0,2.532628372E1,1.008243347E1,2.774209262E1
3.461611458E0,6.366860046E0,2.840029129E1,7.795040131E0,3.013098244E1
3.471619458E0,3.934867401E0,2.383673126E1,4.117487640E0,2.450768539E1
3.481627458E0,1.156794434E0,1.691886703E1,-3.772155762E-2,1.695840965E1
3.491636458E0,-3.245251465E-1,1.133323242E1,-3.960763550E0,1.200979274E1
3.501644458E0,-5.014572144E-1,7.220983887E0,-5.575006714E0,9.136452675E0
3.511652458E0,-4.763095093E-1,4.022285614E0,-5.118755493E0,6.527427526E0
3.521661458E0,-5.325924683E-1,2.148482208E0,-4.024530945E0,4.593090448E0
3.531669458E0,-2.492317200E-1,9.295669556E-1,-2.984942780E0,3.136254864E0
3.541677458E0,1.169517975E0,6.047424316E-2,-1.949845276E0,2.274494675E0
3.551686458E0,2.778971100E0,1.259630585E0,-2.510579224E0,3.951247603E0
3.561694458E0,3.714525604E0,4.016447754E0,-3.756438446E0,6.636292852E0
3.571702458E0,4.600084076E0,6.772965546E0,-3.534300385E0,8.917685518E0
3.581710458E0,5.629493408E0,9.032067719E0,-1.526076508E0,1.075166744E1
3.591719458E0,6.580166473E0,1.081231567E1,1.391805725E0,1.273349458E1
3.601727458E0,6.591692505E0,1.145971939E1,3.118315430E0,1.358305819E1
3.611735458E0,5.732778625E0,1.162662231E1,1.999990997E0,1.311651864E1
3.621744458E0,5.019062805E0,1.167976181E1,7.408094788E-1,1.273407343E1
3.631752458E0,4.611460419E0,1.170401138E1,1.372046814E0,1.265432583E1
3.641760458E0,3.736679535E0,1.155746613E1,3.580703888E0,1.266330279E1
3.651769458E0,1.743574219E0,1.092428284E1,4.057312775E0,1.178311476E1
3.661777458E0,6.444099426E-1,1.012988480E1,2.407743073E0,1.043202075E1
3.671785458E0,8.183482361E-1,9.577982483E0,-7.667056274E-1,9.643406027E0
3.681794458E0,1.404828644E0,9.501641235E0,-3.737278290E0,1.030640474E1
3.691802458E0,2.122586060E0,9.651180267E0,-5.468278656E0,1.129392419E1
3.701810458E0,2.738405457E0,9.730964355E0,-5.719755707E0,1.161491012E1
3.711819458E0,2.817441101E0,9.508077850E0,-4.350702667E0,1.082913350E1
3.721827458E0,2.408042450E0,9.160051575E0,-4.902305603E-1,9.483962215E0
3.731835458E0,2.040257263E0,8.898545380E0,4.674329681E0,1.025651586E1
3.741844458E0,2.185904388E0,8.678652649E0,5.306165771E0,1.040445025E1
3.751852458E0,2.693947906E0,8.576564941E0,2.552342377E0,9.345013276E0
3.761860458E0,3.083437958E0,8.516988831E0,1.146615601E-1,9.058688407E0
3.771868458E0,3.218457184E0,8.479566650E0,-1.406774597E0,9.178264105E0
3.781877458E0,3.144660645E0,8.405321045E0,-1.696871338E0,9.133328242E0
3.791885458E0,2.910547485E0,8.255183258E0,-1.245709534E0,8.841443860E0
3.801893458E0,2.615211639E0,8.154143372E0,-3.844006348E-1,8.571881351E0
3.811902458E0,2.243085480E0,8.019124146E0,7.104226685E-1,8.357181636E0
3.821910458E0,1.984123993E0,7.889044647E0,1.433119812E0,8.260000355E0
3.831918458E0,1.921254730E0,7.856262817E0,1.448238373E0,8.216415251E0
3.841927458E0,2.085463257E0,7.870333557E0,6.815327454E-1,8.170421909E0
3.851935458E0,2.189197540E0,7.924670563E0,-7.484436035E-3,8.221498976E0
3.861943458E0,2.261497192E0,8.099207611E0,-3.373983765E-1,8.415781077E0
3.871952458E0,2.323468323E0,8.466543732E0,-6.198609924E-1,8.801425763E0
3.881960458E0,2.324665833E0,8.806786194E0,-8.304730225E-1,9.146214503E0
3.891968458E0,2.271077271E0,9.113199005E0,-8.002359009E-1,9.425951706E0
3.901977458E0,2.298320618E0,9.370364227E0,-7.189549255E-1,9.674859151E0
3.911985458E0,2.433339844E0,9.565857697E0,-7.397616577E-1,9.898182842E0
3.921993458E0,2.652184753E0,9.775421906E0,-8.503816223E-1,1.016445307E1
3.932002458E0,2.911445618E0,9.968819733E0,-8.848100281E-1,1.042289649E1
3.942010458E0,3.210523682E0,1.011790970E1,-7.987390137E-1,1.064507130E1
3.952018458E0,3.693718872E0,1.002420456E1,-5.724096680E-1,1.069840591E1
3.962027458E0,4.482279053E0,9.611512756E0,-6.111790466E-1,1.062287827E1
3.972035458E0,5.150639191E0,9.365274811E0,-8.976832581E-1,1.072582359E1
3.982043458E0,5.555098114E0,9.419761505E0,-8.878038025E-1,1.097174633E1
3.992051458E0,5.917644196E0,9.672885132E0,-8.857081604E-1,1.137399220E1
4.002060458E0,6.337221680E0,1.026355682E1,-1.481020203E0,1.215295841E1
4.012068458E0,6.848258972E0,1.118429214E1,-1.894909515E0,1.325057447E1
4.022076458E0,7.578590240E0,1.223046661E1,-1.584604797E0,1.447516204E1
4.032085458E0,8.508157196E0,1.332843338E1,-9.440867615E-1,1.584068102E1
4.042093458E0,9.190588074E0,1.437071594E1,-3.318598938E-1,1.706149222E1
4.052101458E0,9.232351227E0,1.525612473E1,1.728904724E-1,1.783299027E1
4.062110458E0,8.221503296E0,1.573542801E1,9.083111572E-1,1.777700313E1
4.072118458E0,6.188431091E0,1.505329651E1,2.991080017E0,1.654826199E1
4.082126458E0,3.827390900E0,1.324700272E1,4.320914612E0,1.444999326E1
4.092135458E0,2.079026642E0,1.202718933E1,2.735261993E0,1.250828898E1
4.102143458E0,1.444047089E0,1.199979630E1,2.156266022E0,1.227720922E1
4.112151458E0,1.238374786E0,1.217657867E1,1.729204102E0,1.236093796E1
4.122160458E0,8.280780029E-1,1.215637070E1,1.731748810E0,1.230699052E1
4.132168458E0,5.912704468E-1,1.199904785E1,1.134939880E0,1.206709736E1
4.142176458E0,6.358776855E-1,1.162093414E1,-2.600093079E-1,1.164122226E1
4.152185458E0,8.216413879E-1,1.092907288E1,-1.622326355E0,1.107933533E1
4.162193458E0,9.165440369E-1,1.035771103E1,-2.223176880E0,1.063319078E1
4.172201458E0,7.676037598E-1,1.029978149E1,-2.124082947E0,1.054449822E1
4.182210458E0,5.971083069E-1,1.046399002E1,-1.952988739E0,1.066141597E1
4.192218458E0,3.775149536E-1,1.092098969E1,-1.752405853E0,1.106713421E1
4.202226458E0,1.787283325E-1,1.164952469E1,-1.081501007E0,1.170098345E1
4.212235458E0,1.826202393E-1,1.268971161E1,-1.645079041E-1,1.269209178E1
4.222243458E0,5.671705627E-1,1.398167496E1,4.589456177E-1,1.400069813E1
4.232251458E0,8.729846191E-1,1.442520264E1,-8.741821289E-2,1.445185854E1
4.242260458E0,1.093326416E0,1.416639084E1,-1.085542603E0,1.424992613E1
4.252268458E0,1.532962189E0,1.399245255E1,-1.175056458E-1,1.407666540E1
4.262276458E0,2.160606995E0,1.322260345E1,1.381776581E0,1.346903008E1
4.272284458E0,2.807711334E0,1.216131042E1,1.633702698E0,1.258768043E1
4.282293458E0,3.205583954E0,1.050500473E1,2.857557678E-1,1.098692629E1
4.292301458E0,3.417393494E0,8.662935333E0,-9.490264893E-1,9.360858836E0
4.302309458E0,3.757037201E0,6.901548157E0,-2.093097382E0,8.131897204E0
4.312318458E0,4.163591766E0,5.388344879E0,-2.110161896E0,7.128992927E0
4.322326458E0,4.480333099E0,4.156855774E0,-1.416654053E0,6.273734399E0
4.332334458E0,4.823120270E0,3.246149597E0,-1.018931122E0,5.902389090E0
4.342343458E0,4.907095642E0,2.562072144E0,-6.867718506E-1,5.578123061E0
4.352351458E0,4.508175201E0,2.103725281E0,-3.483256531E-1,4.987046668E0
4.362360042E0,3.560495911E0,2.326761475E0,-2.415975952E-1,4.260201813E0
4.372369042E0,2.326611786E0,3.206332397E0,-2.685415649E-1,3.970617637E0
4.382377042E0,1.185085602E0,3.787424011E0,-2.303709412E-1,3.975182926E0
4.392385042E0,2.005828857E-1,3.975882111E0,-1.559756470E-1,3.983993029E0
4.402394042E0,-5.264552307E-1,4.017196198E0,-6.810836792E-2,4.052117860E0
4.412402042E0,-1.079405365E0,4.141288147E0,1.020877075E-1,4.280865025E0
4.422410042E0,-1.478026428E0,4.349056091E0,4.619393921E-1,4.616518061E0
4.432419042E0,-1.688488770E0,4.732857971E0,1.160836029E0,5.157371345E0
4.442427042E0,-1.777403870E0,5.368286591E0,2.483186188E0,6.176073111E0
4.452435042E0,-1.573228455E0,6.310726776E0,4.431833954E0,7.870290491E0
4.462444042E0,-8.322692871E-1,7.533683624E0,6.843169556E0,1.021166150E1
4.472452042E0,4.273612976E-1,8.811875610E0,9.220974884E0,1.276158953E1
4.482460042E0,1.945803680E0,9.941426697E0,1.075648178E1,1.477565623E1
4.492469042E0,3.107088776E0,1.104133942E1,1.147768204E1,1.622659427E1
4.502477042E0,4.017944641E0,1.164937500E1,1.181433197E1,1.707132851E1
4.512485042E0,4.819527740E0,1.118519028E1,1.167482208E1,1.687121216E1
4.522493042E0,5.355113983E0,9.763895874E0,1.062909668E1,1.539443421E1
4.532502042E0,5.557642822E0,8.285270691E0,9.206155701E0,1.357521296E1
4.542510042E0,5.444777527E0,7.122638397E0,7.654632111E0,1.178859503E1
4.552518042E0,5.130131836E0,6.333030396E0,5.545817413E0,9.858073718E0
4.562527042E0,4.507127380E0,5.944438477E0,3.291954346E0,8.153987334E0
4.572535042E0,3.614234161E0,5.831872559E0,1.626966705E0,7.051272706E0
4.582543042E0,2.697241058E0,6.059698792E0,1.304986267E0,6.760033131E0
4.592552042E0,1.805395660E0,6.530320129E0,2.186203766E0,7.119271128E0
4.602560042E0,1.046773224E0,7.222181396E0,1.826352081E0,7.522712292E0
4.612568042E0,6.942562866E-1,8.466543732E0,-1.730401611E-1,8.496722748E0
4.622577042E0,5.725593567E-1,1.070349197E1,-4.697232056E-1,1.072908219E1
4.632585042E0,7.375163269E-1,1.485406082E1,2.353106689E0,1.505736246E1
4.642593042E0,2.071991272E0,2.160187866E1,5.709427185E0,2.243951578E1
4.652602042E0,1.960173798E0,2.502735535E1,5.136119385E0,2.562402231E1
4.662610042E0,-6.417155457E-1,2.213387238E1,3.491489410E0,2.241674828E1
4.672618042E0,-2.306254120E0,1.738245300E1,6.098318481E-1,1.754538046E1
4.682627042E0,-2.313289490E0,1.243943207E1,-1.743424530E0,1.277224755E1
4.692635042E0,-1.757944336E0,8.375083923E0,-2.842588806E0,9.017356050E0
4.702643042E0,-1.207688599E0,5.254822540E0,-3.253035278E0,6.297135079E0
4.712652042E0,-4.471202087E-1,3.107687531E0,-3.332070923E0,4.578245833E0
4.722660042E0,7.427554321E-1,2.198927307E0,-4.404141541E0,4.978295857E0
4.732668042E0,2.207908630E0,2.747386780E0,-6.312223663E0,7.229603185E0
4.742677042E0,3.102298737E0,4.503085785E0,-7.305707703E0,9.125535824E0
4.752685042E0,3.732488251E0,6.553821259E0,-6.723568268E0,1.010398000E1
4.762693042E0,4.553231506E0,8.634644165E0,-4.882696381E0,1.091465625E1
4.772702042E0,5.827381897E0,1.057535843E1,9.888436890E-1,1.211504839E1
4.782710042E0,7.166497192E0,1.217044144E1,8.201445007E0,1.633223888E1
4.792718042E0,6.485563202E0,1.215771790E1,6.000422058E0,1.502922817E1
4.802727042E0,4.941074982E0,1.183977905E1,2.373464355E0,1.304714233E1
4.812735042E0,3.743864594E0,1.165925446E1,4.763095093E-1,1.225486056E1
4.822743042E0,2.580633545E0,1.113324829E1,2.350112915E-2,1.142844868E1
4.832752042E0,1.067280579E0,1.044827271E1,8.978329468E-1,1.054094846E1
4.842760042E0,1.582209778E-1,9.896220703E0,1.044976959E0,9.952496919E0
4.852768042E0,4.236190796E-2,9.558073883E0,-5.167254639E-1,9.572124952E0
4.862777042E0,4.445755005E-1,9.413474579E0,-2.496059418E0,9.748921153E0
4.872785042E0,1.127156067E0,9.429491272E0,-4.081562347E0,1.033658249E1
4.882793042E0,1.764380951E0,9.555978241E0,-4.917124786E0,1.089072433E1
4.892802042E0,2.190245361E0,9.383087769E0,-4.779860229E0,1.075576936E1
4.902810042E0,2.245630188E0,9.078920288E0,-3.719165955E0,1.006488171E1
4.912818042E0,2.038910065E0,8.552465057E0,-8.884025574E-1,8.836915294E0
4.922827042E0,2.072140961E0,7.835306396E0,3.578308868E0,8.859463237E0
4.932835042E0,2.548749847E0,7.373965759E0,4.547543335E0,9.030595063E0
4.942843042E0,3.015479279E0,7.644303589E0,2.244582367E0,8.518605675E0
4.952851042E0,3.367696838E0,8.359516296E0,-3.213816833E-1,9.018102954E0
4.962860042E0,3.551065521E0,9.092092896E0,-1.497336273E0,9.875132175E0
4.972868042E0,3.466641083E0,9.428742828E0,-1.131946106E0,1.010940620E1
4.982876042E0,3.189567261E0,9.380243683E0,-2.978805542E-2,9.907734261E0
4.992885042E0,3.009192352E0,9.147926788E0,6.721023560E-1,9.653575748E0
5.002893042E0,2.976709900E0,8.784931641E0,5.671705627E-1,9.292874055E0
5.012901042E0,2.935695190E0,8.430319061E0,2.806663513E-1,8.931257433E0
5.022910042E0,2.801574097E0,8.309220886E0,1.196012878E-1,8.769622205E0
5.032918042E0,2.589315491E0,8.287216644E0,1.800755310E-1,8.684177659E0
5.042926042E0,2.391277313E0,8.397387543E0,2.770738220E-1,8.735622166E0
5.052935042E0,2.372117157E0,8.559799805E0,1.525328064E-1,8.883714243E0
5.062943042E0,2.472707977E0,8.741521912E0,-1.703457642E-1,9.086116208E0
5.072951042E0,2.601440277E0,8.890162811E0,-4.102967834E-1,9.272045609E0
5.082960042E0,2.778072968E0,9.044042816E0,-5.647755432E-1,9.477941300E0
5.092968042E0,3.003204803E0,9.300459595E0,-7.759863281E-1,9.804077853E0
5.102976042E0,3.289409637E0,9.554331665E0,-8.021818542E-1,1.013651642E1
5.112985042E0,3.628753967E0,9.723330231E0,-4.924758911E-1,1.039006923E1
5.122993042E0,4.159849548E0,9.807006226E0,1.002914429E-1,1.065325198E1
5.133001042E0,4.902006226E0,9.711804199E0,4.989125061E-1,1.089025801E1
5.143010042E0,5.426365814E0,9.482630768E0,4.433779907E-1,1.093445546E1
5.153018042E0,5.603597260E0,9.217232666E0,1.857637024E-1,1.078852114E1
5.163026042E0,5.609285431E0,9.008566589E0,5.837860107E-2,1.061234013E1
5.173035042E0,5.666466522E0,8.801247711E0,2.091151428E-1,1.046969595E1
5.183043042E0,6.011199646E0,8.688083038E0,2.700384521E-1,1.056835980E1
5.193051042E0,6.691983948E0,9.125323792E0,-3.887416077E-1,1.132277808E1
5.203060042E0,7.374414825E0,1.079944244E1,-1.449735260E0,1.315719132E1
5.213068042E0,7.626041565E0,1.265019379E1,-2.174827423E0,1.493029762E1
5.223076042E0,7.881709900E0,1.366044296E1,-1.963466949E0,1.589289953E1
5.233085042E0,8.105644226E0,1.428299835E1,-1.138682098E0,1.646214163E1
5.243093042E0,7.904612274E0,1.475885880E1,-3.983216858E-1,1.674710328E1
5.253101042E0,6.820566559E0,1.477352829E1,3.424877930E-1,1.627558184E1
5.263110042E0,4.852010193E0,1.379366592E1,1.683399353E0,1.471873146E1
5.273118042E0,2.797831879E0,1.253403534E1,1.823507996E0,1.297131784E1
5.283126042E0,1.533560944E0,1.221983871E1,8.816665649E-1,1.234721035E1
5.293135042E0,9.951306152E-1,1.255229736E1,8.018824768E-1,1.261718945E1
5.303143042E0,8.240364075E-1,1.281829422E1,1.004111938E0,1.288394130E1
5.313151042E0,1.042132874E0,1.302980438E1,7.478448486E-1,1.309278867E1
5.323160042E0,1.355730743E0,1.291723846E1,-5.987548828E-4,1.298818909E1
5.333168042E0,1.509311371E0,1.258403137E1,-8.589138794E-1,1.270329089E1
5.343176042E0,1.257684631E0,1.251143234E1,-1.260229340E0,1.263747949E1
5.353185042E0,8.767268372E-1,1.264555344E1,-1.334025879E0,1.274591294E1
5.363192542E0,4.426295471E-1,1.277727951E1,-1.477876740E0,1.287007818E1
5.373200542E0,6.735992432E-3,1.286754181E1,-1.301693115E0,1.293321625E1
5.383209542E0,-2.101629639E-1,1.324445801E1,-9.069639587E-1,1.327713900E1
5.393217542E0,-1.133143616E-1,1.365969452E1,-6.487509155E-1,1.367556113E1
5.403225542E0,1.972897339E-1,1.367616028E1,-1.241817627E0,1.373384120E1
5.413234542E0,6.403683472E-1,1.323083633E1,-2.793191528E0,1.353761503E1
5.423242542E0,1.195114746E0,1.254077133E1,-1.978585510E0,1.275202123E1
5.433250542E0,1.815574493E0,1.161210251E1,5.403762817E-2,1.175330402E1
5.443259542E0,2.226470032E0,1.069256470E1,2.054926758E0,1.111354276E1
5.453267542E0,2.630030823E0,9.773026886E0,2.620301056E0,1.045442941E1
5.463275542E0,2.821333008E0,8.507558441E0,1.652862854E0,9.114297899E0
5.473284542E0,3.171754303E0,7.190148010E0,6.870712280E-2,7.858942323E0
5.483292542E0,3.673959961E0,5.869145050E0,-1.345551910E0,7.053747611E0
5.493300542E0,4.185895386E0,4.503983917E0,-2.061063995E0,6.485027070E0
5.503309542E0,4.600383453E0,3.338806915E0,-1.882036285E0,5.987755850E0
5.513317542E0,4.846322021E0,2.482737122E0,-1.367406464E0,5.614322861E0
5.523325542E0,4.870571594E0,2.044598236E0,-9.095086670E-1,5.360042501E0
5.533334542E0,4.271816711E0,2.152972870E0,-5.397775269E-1,4.814049228E0
5.543342542E0,2.917283478E0,3.012934570E0,-2.790197754E-1,4.203114280E0
5.553350542E0,1.532662811E0,3.939507751E0,-2.460882568E-1,4.234304671E0
5.563359542E0,4.293072510E-1,4.504582672E0,-2.442919922E-1,4.531583426E0
5.573367542E0,-3.797602844E-1,4.926555176E0,-1.116677856E-1,4.942431939E0
5.583375542E0,-8.735833740E-1,5.232219543E0,2.414479065E-1,5.310138073E0
5.593384542E0,-1.206191711E0,5.479654999E0,8.021818542E-1,5.667893178E0
5.603392542E0,-1.476379852E0,5.791606293E0,1.684447174E0,6.209650811E0
5.613400542E0,-1.617985382E0,6.128256226E0,3.026406555E0,7.023712530E0
5.623409542E0,-1.432670746E0,6.444997559E0,4.306993561E0,7.882939333E0
5.633417542E0,-8.650511169E-1,6.822961578E0,5.294340363E0,8.679352396E0
5.643425542E0,7.963439941E-2,7.305258636E0,6.287674713E0,9.638879535E0
5.653434542E0,1.554517365E0,7.833360443E0,7.179969177E0,1.073918141E1
5.663442542E0,2.948867798E0,8.660091248E0,8.147257690E0,1.225033916E1
5.673450542E0,4.063599701E0,9.562265167E0,9.083111572E0,1.380045918E1
5.683459542E0,4.975054321E0,1.011296997E1,9.830507355E0,1.495534025E1
5.693467542E0,5.783223724E0,1.021565643E1,9.949060822E0,1.538795387E1
5.703475542E0,6.222410431E0,9.973609772E0,9.151219940E0,1.489752026E1
5.713484542E0,5.915099487E0,9.515262909E0,8.282725983E0,1.393313245E1
5.723492542E0,5.273234253E0,9.031319275E0,7.636819153E0,1.294962293E1
5.733500542E0,4.514611816E0,8.622369690E0,7.037315826E0,1.201044516E1
5.743509542E0,3.795207825E0,8.222401428E0,6.011798401E0,1.086983016E1
5.753517542E0,3.143612823E0,7.718848572E0,4.504882050E0,9.474011143E0
5.763525542E0,2.397264862E0,7.213798828E0,3.280578003E0,8.279369806E0
5.773534542E0,1.631756744E0,6.996301117E0,2.373314667E0,7.565942235E0
5.783542542E0,1.132993927E0,7.379803619E0,9.957293701E-1,7.532373708E0
5.793550542E0,9.708810425E-1,8.464747467E0,-7.153623962E-1,8.550222397E0
5.803559542E0,1.004411316E0,1.024813889E1,-1.192570038E0,1.036607042E1
5.813567542E0,1.196012878E0,1.305076080E1,-1.905537415E-1,1.310683467E1
5.823575542E0,1.791773987E0,1.730626144E1,2.416425018E0,1.756576924E1
5.833584542E0,2.701132965E0,2.224778549E1,4.890480194E0,2.293854562E1
5.843592542E0,1.284478912E0,2.256767029E1,4.588857422E0,2.306528215E1
5.853600542E0,-1.380130005E0,1.760099854E1,3.070714417E0,1.792007799E1
5.863609542E0,-2.397115173E0,1.166718796E1,9.476792908E-1,1.194853682E1
5.873617542E0,-1.975292358E0,7.882308655E0,-8.060737610E-1,8.165924598E0
5.883625542E0,-1.671424255E0,5.346881104E0,-1.705253906E0,5.855825088E0
5.893634542E0,-1.433119812E0,3.537593536E0,-2.036814423E0,4.326316380E0
5.903642542E0,-7.123686218E-1,2.518213348E0,-2.457589417E0,3.590071484E0
5.913650542E0,7.653584290E-1,3.041225739E0,-4.093986511E0,5.157087654E0
5.923659542E0,1.883832550E0,4.860991516E0,-6.119125214E0,8.038765886E0
5.933667542E0,2.531385956E0,6.936275940E0,-6.783892822E0,1.002701554E1
5.943675542E0,3.182082825E0,8.620872803E0,-5.964047699E0,1.095513414E1
5.953684542E0,3.956123199E0,1.026101212E1,-4.707859955E0,1.196257605E1
5.963692542E0,5.066813507E0,1.173559570E1,-1.175505524E0,1.283661244E1
5.973700542E0,7.092101898E0,1.266591110E1,7.769443359E0,1.646473393E1
5.983709542E0,7.141349487E0,1.258103760E1,7.407945099E0,1.625296989E1
5.993717542E0,5.642965393E0,1.198692307E1,2.946772156E0,1.357250342E1
6.003725542E0,4.437522125E0,1.158186539E1,1.133442993E0,1.245455344E1
6.013734542E0,3.309018860E0,1.080258591E1,1.041534119E0,1.134593590E1
6.023742542E0,1.671424255E0,9.968969421E0,1.683399353E0,1.024733349E1
6.033750542E0,6.502478027E-1,9.390123138E0,6.309379578E-1,9.433732955E0
6.043759542E0,6.444099426E-1,9.056466980E0,-1.757495270E0,9.247899651E0
6.053767542E0,9.593550110E-1,9.066047058E0,-3.556005249E0,9.785639715E0
6.063775542E0,1.391356659E0,9.364077301E0,-4.612358551E0,1.053070123E1
6.073784542E0,1.841470642E0,9.534273376E0,-4.719385986E0,1.079657293E1
6.083792542E0,2.092049561E0,9.440717926E0,-3.813320160E0,1.039448108E1
6.093800542E0,2.060914307E0,9.179511108E0,-1.776954803E0,9.574359526E0
6.103809542E0,1.979783020E0,8.889564056E0,1.557511139E0,9.239574171E0
6.113817542E0,2.288740540E0,8.669072571E0,3.645519104E0,9.678892604E0
6.123825542E0,2.797682190E0,8.579409027E0,2.566113739E0,9.381802844E0
6.133834542E0,3.112627258E0,8.600664825E0,5.984555054E-1,9.166135111E0
6.143842542E0,3.242856445E0,8.708740082E0,-6.640191650E-1,9.316608460E0
6.153850542E0,3.165167999E0,8.825347595E0,-9.454339600E-1,9.423316508E0
6.163859542E0,3.032244415E0,8.778195648E0,-7.120692444E-1,9.314411825E0
6.173867542E0,2.861299896E0,8.551117859E0,-3.293151855E-1,9.023142591E0
6.183875542E0,2.671195221E0,8.222102051E0,4.490661621E-2,8.645245089E0
6.193884542E0,2.505340118E0,7.965834961E0,3.209326172E-1,8.356689146E0
6.203892542E0,2.322719879E0,7.858957214E0,5.210664368E-1,8.211561749E0
6.213900542E0,2.186503143E0,7.910899200E0,6.168672180E-1,8.230652910E0
6.223909542E0,2.171683960E0,8.117020569E0,6.063890076E-1,8.424365956E0
6.233917542E0,2.187101898E0,8.309819641E0,5.060975647E-1,8.607708866E0
6.243925542E0,2.268831940E0,8.532556458E0,3.106040955E-1,8.834511474E0
6.253934542E0,2.413880310E0,8.798703003E0,5.089416504E-2,9.123956538E0
6.263942542E0,2.566263428E0,9.089997253E0,-1.486408997E-1,9.446473001E0
6.273950542E0,2.668500824E0,9.373657379E0,-1.118174744E-1,9.746735477E0
6.283959542E0,2.671943665E0,9.588909760E0,1.204994202E-1,9.954948188E0
6.293967542E0,2.786305847E0,9.740694122E0,1.204994202E-1,1.013208480E1
6.303976542E0,3.145259399E0,9.668693848E0,-2.025288391E-1,1.016943043E1
6.313984542E0,3.668122101E0,9.390123138E0,-4.144880676E-1,1.008966465E1
6.323992542E0,4.223616943E0,9.177116089E0,-2.652484131E-1,1.010587733E1
6.334001542E0,4.727918243E0,9.142837372E0,-1.197509766E-1,1.029364010E1
6.344009542E0,5.039121094E0,9.119485931E0,2.305206299E-1,1.042165557E1
6.354017542E0,5.193749542E0,9.109157410E0,3.511697388E-1,1.049166828E1
6.364026667E0,5.333259430E0,9.147178345E0,1.907034302E-1,1.059013199E1
6.374034667E0,5.485492859E0,9.197773132E0,1.730401611E-1,1.071072385E1
6.384042667E0,5.649252319E0,9.465266876E0,-3.712280273E-2,1.102300807E1
6.394051667E0,5.906866608E0,1.011341904E1,-7.659571838E-1,1.173707835E1
6.404059667E0,6.447392578E0,1.142065063E1,-1.413211212E0,1.319080354E1
6.414067667E0,6.947502594E0,1.281095947E1,-1.374890900E0,1.463826492E1
6.424076667E0,7.031777344E0,1.374905869E1,-5.733078003E-1,1.545351705E1
6.434084667E0,6.495742035E0,1.411504761E1,4.308041382E-1,1.554396429E1
6.444092667E0,5.432952118E0,1.361867981E1,1.069076843E0,1.470130381E1
6.454101667E0,4.316274261E0,1.254735764E1,1.530267792E0,1.335695050E1
6.464109667E0,3.157982941E0,1.171703430E1,1.539249115E0,1.223237659E1
6.474117667E0,2.049238586E0,1.148426834E1,1.651665344E0,1.178201157E1
6.484126667E0,1.357527008E0,1.166090103E1,2.136058044E0,1.193240279E1
6.494134667E0,1.284329224E0,1.184576660E1,2.155667267E0,1.210861632E1
6.504142667E0,1.624122620E0,1.208362198E1,1.451232147E0,1.227834554E1
6.514151667E0,2.064057770E0,1.231309479E1,5.146298218E-1,1.249549845E1
6.524159667E0,2.281705170E0,1.239587265E1,-2.465373230E-1,1.260653076E1
6.534167667E0,2.145937500E0,1.254526199E1,-6.152206421E-1,1.274233663E1
6.544176667E0,1.815873871E0,1.299283127E1,-6.234535217E-1,1.313391627E1
6.554184667E0,1.457519073E0,1.353156097E1,-3.499722290E-1,1.361433013E1
6.564192667E0,1.154848480E0,1.416414551E1,-9.280700684E-2,1.421144982E1
6.574201667E0,1.081201630E0,1.470751556E1,-1.010398865E-1,1.474754963E1
6.584209667E0,1.144819336E0,1.451636307E1,-8.562194824E-2,1.456168737E1
6.594217667E0,1.273851013E0,1.376357849E1,-6.454577637E-1,1.383746382E1
6.604226667E0,1.440903625E0,1.322529785E1,-2.678829346E0,1.357058706E1
6.614234667E0,1.648072815E0,1.253059250E1,-3.791315918E0,1.319492208E1
6.624242667E0,1.992656250E0,1.153052216E1,-2.733016663E0,1.201636385E1
6.634251667E0,2.204166412E0,1.039543259E1,-6.520440674E-1,1.064652665E1
6.644259667E0,2.342029724E0,8.995094604E0,1.850601654E0,9.477423524E0
6.654267667E0,2.889740753E0,7.933951263E0,3.393592987E0,9.100255910E0
6.664276667E0,3.576961670E0,7.250023499E0,3.651057587E0,8.870609732E0
6.674284667E0,4.136797485E0,6.620582428E0,2.948269043E0,8.344908356E0
6.684293667E0,4.401596832E0,5.884712677E0,1.795366516E0,7.564868729E0
6.694301667E0,4.426744537E0,5.098248138E0,6.246510315E-1,6.780736700E0
6.704309667E0,4.200564880E0,4.488416290E0,-2.803669739E-1,6.153798156E0
6.714318667E0,3.778292999E0,4.113745422E0,-1.046773224E0,5.682792762E0
6.724326667E0,3.169508972E0,3.902983704E0,-1.476379852E0,5.240111295E0
6.734334667E0,2.469414825E0,3.996389465E0,-1.515149231E0,4.936072885E0
6.744343667E0,1.666634216E0,4.539160767E0,-1.446142731E0,5.047076270E0
6.754351667E0,9.193881226E-1,5.022655334E0,-1.554217987E0,5.337408986E0
6.764359667E0,2.228865051E-1,5.226231995E0,-1.436412964E0,5.424616250E0
6.774368667E0,-3.820056152E-1,5.326673126E0,-9.704319763E-1,5.427809236E0
6.784376667E0,-7.429051208E-1,5.381908264E0,-4.231700134E-1,5.449396062E0
6.794384667E0,-9.894424438E-1,5.470374298E0,1.474433899E-1,5.561090798E0
6.804393667E0,-1.138981476E0,5.622907104E0,8.595126343E-1,5.801131362E0
6.814401667E0,-1.201251984E0,5.959557037E0,1.866468658E0,6.359483600E0
6.824409667E0,-1.179098053E0,6.576124878E0,3.539988556E0,7.560900053E0
6.834418667E0,-7.188052368E-1,7.455845490E0,5.468428345E0,9.274158802E0
6.844426667E0,5.516029358E-1,8.324339447E0,6.687044220E0,1.069184051E1
6.854434667E0,1.967358856E0,9.018745422E0,7.238048401E0,1.173020096E1
6.864443667E0,2.997366943E0,9.643995209E0,7.526947632E0,1.259546715E1
6.874451667E0,3.839066620E0,1.000609222E1,7.707322540E0,1.320087629E1
6.884459667E0,4.531077576E0,9.975855103E0,7.943531342E0,1.353321984E1
6.894468667E0,5.131329346E0,9.735904083E0,7.916138306E0,1.355668156E1
6.904476667E0,5.662873993E0,9.423054657E0,7.459737396E0,1.328569844E1
6.914484667E0,6.043083344E0,9.103319550E0,6.715634766E0,1.282532781E1
6.924493667E0,6.168672180E0,8.893306274E0,5.726342010E0,1.224477055E1
6.934501667E0,6.054010620E0,8.627010040E0,4.824617157E0,1.159108612E1
6.944510667E0,5.709576874E0,8.215964813E0,4.237537994E0,1.086545324E1
6.954518667E0,5.159321136E0,7.559579773E0,3.876488800E0,9.939467106E0
6.964526667E0,4.617148590E0,6.831344147E0,3.331921234E0,8.893088500E0
6.974535667E0,4.210444336E0,6.290219421E0,2.845582581E0,8.086534616E0
6.984543667E0,3.670816498E0,5.926326141E0,2.624941406E0,7.448929633E0
6.994551667E0,2.956950989E0,6.039790192E0,2.397863617E0,7.139494004E0
7.004560667E0,2.433339844E0,6.902146912E0,1.949845276E0,7.573814850E0
7.014568667E0,1.972148895E0,8.337512054E0,1.462758179E0,8.691555673E0
7.024576667E0,1.632954254E0,9.866881714E0,1.233135681E0,1.007683075E1
7.034585667E0,1.616787872E0,1.177137131E1,1.255289612E0,1.194800977E1
7.044593667E0,1.938618622E0,1.478565308E1,2.219584351E0,1.507648280E1
7.054601667E0,2.915936279E0,1.925131668E1,4.575684814E0,2.000131920E1
7.064610667E0,3.839665375E0,2.312900299E1,5.087769928E0,2.399123199E1
7.074618667E0,2.523602142E0,2.229284180E1,4.042942657E0,2.279659511E1
7.084626667E0,5.074447632E-1,1.686482941E1,2.404000854E0,1.704286335E1
7.094635667E0,-6.173162842E-1,1.093056976E1,3.505709839E-1,1.095359917E1
7.104643667E0,-5.331912231E-1,7.745642853E0,-2.017055511E0,8.021707363E0
7.114651667E0,-3.938310242E-1,5.598208466E0,-3.139571228E0,6.430548063E0
7.124660667E0,-4.713697815E-1,3.954476624E0,-3.157384186E0,5.082238654E0
7.134668667E0,-4.581971741E-1,2.998414764E0,-2.803070984E0,4.130089913E0
7.144677667E0,-7.244934082E-2,2.819237366E0,-2.707120514E0,3.909200648E0
7.154685667E0,7.587721252E-1,3.589385834E0,-2.564317474E0,4.476064109E0
7.164693667E0,1.660646667E0,5.216651917E0,-2.194436646E0,5.898029905E0
7.174702667E0,2.391127625E0,7.352260895E0,-1.737436981E0,7.924135211E0
7.184710667E0,2.970572662E0,9.254654846E0,-1.094673615E0,9.781168058E0
7.194718667E0,3.306773529E0,1.073223221E1,-5.110372925E-1,1.124174001E1
7.204727667E0,3.567680969E0,1.191327621E1,-1.945953369E-2,1.243603137E1
7.214735667E0,3.856430511E0,1.273865982E1,2.386038208E-1,1.331174076E1
7.224743667E0,3.981121216E0,1.318892349E1,4.879852295E-1,1.378532403E1
7.234752667E0,3.834126892E0,1.312620392E1,9.683363342E-1,1.370895450E1
7.244760667E0,3.511398010E0,1.247056732E1,1.668280792E0,1.306247014E1
7.254768667E0,2.736758881E0,1.128937363E1,2.324965210E0,1.184674087E1
7.264777667E0,1.551373901E0,1.044887146E1,2.109862518E0,1.077205624E1
7.274785667E0,7.360194397E-1,1.021580612E1,1.079854431E0,1.029905359E1
7.284793667E0,3.284170532E-1,1.037208115E1,-2.142045593E-1,1.037948981E1
7.294802667E0,2.763253784E-1,1.059885956E1,-1.287772064E0,1.068038092E1
7.304810667E0,4.921765137E-1,1.064825684E1,-1.908381500E0,1.082910575E1
7.314819667E0,6.767427063E-1,1.044228516E1,-1.972448273E0,1.064846713E1
7.324827667E0,7.162605286E-1,9.972112885E0,-1.678160248E0,1.013766671E1
7.334835667E0,7.391629028E-1,9.429790649E0,-1.311123505E0,9.549154849E0
7.344844667E0,7.855664063E-1,8.891360321E0,-9.488768005E-1,8.976289329E0
7.354852667E0,9.598040771E-1,8.459208984E0,-6.105802917E-1,8.535352881E0
7.364860542E0,1.305734711E0,8.239166565E0,-4.722679138E-1,8.355348335E0
7.374869542E0,1.701212311E0,8.305179291E0,-5.525010681E-1,8.495609678E0
7.384877542E0,1.977388000E0,8.625064087E0,-7.288343811E-1,8.878794590E0
7.394885542E0,2.143243103E0,9.030421143E0,-8.135581970E-1,9.316859661E0
7.404894542E0,2.245330811E0,9.496851196E0,-8.229885864E-1,9.793314215E0
7.414902542E0,2.283950500E0,9.898316345E0,-7.728428650E-1,1.018775650E1
7.424910542E0,2.264191589E0,1.015188904E1,-5.715115356E-1,1.041700725E1
7.434919542E0,2.265838165E0,1.021460861E1,-1.151106262E-1,1.046353201E1
7.444927542E0,2.312241669E0,1.007225464E1,6.917115784E-1,1.035737611E1
7.454936542E0,2.349364471E0,9.766739960E0,1.614542542E0,1.017425528E1
7.464944542E0,2.258653107E0,9.479487305E0,2.116598511E0,9.972070130E0
7.474952542E0,1.998643799E0,9.488318939E0,1.869761810E0,9.875159875E0
7.484961542E0,1.721869354E0,9.746681671E0,1.231339417E0,9.973907681E0
7.494969542E0,1.519490204E0,1.000010468E1,8.816665649E-1,1.015323987E1
7.504977542E0,1.353186035E0,1.014545242E1,9.577084351E-1,1.028000597E1
7.514986542E0,1.189725952E0,1.021640488E1,7.614665222E-1,1.031359335E1
7.524994542E0,1.109343109E0,1.026355682E1,-2.697390747E-1,1.032685819E1
7.535002542E0,1.284628601E0,1.020248383E1,-1.455872498E0,1.038559154E1
7.545011542E0,1.645827484E0,9.837393036E0,-2.332299957E0,1.024317690E1
7.555019542E0,2.051334229E0,9.399703217E0,-3.045117645E0,1.009133956E1
7.565027542E0,2.419867859E0,9.190887451E0,-3.678750000E0,1.019124007E1
7.575036542E0,2.676284637E0,9.122779083E0,-3.864364014E0,1.026259747E1
7.585044542E0,2.783312073E0,9.215586090E0,-3.589834900E0,1.027427699E1
7.595052542E0,2.841391296E0,9.384584656E0,-2.991529083E0,1.025149647E1
7.605061542E0,2.890040131E0,9.621841278E0,-2.150428162E0,1.027406944E1
7.615069542E0,2.969674530E0,9.919123077E0,-1.201551361E0,1.042361238E1
7.625078542E0,3.017874298E0,1.020278320E1,-4.272116089E-1,1.064832664E1
7.635086542E0,2.995121613E0,1.046892975E1,-2.552192688E-1,1.089194108E1
7.645094542E0,2.821333008E0,1.046848068E1,-6.381230164E-1,1.086076465E1
7.655103542E0,2.375859375E0,1.035037628E1,-1.304986267E0,1.069943859E1
7.665111542E0,1.865869904E0,1.035307068E1,-1.184187469E0,1.058630450E1
7.675119542E0,1.352138214E0,1.057925034E1,-9.071136475E-1,1.070381570E1
7.685128542E0,9.391470337E-1,1.084255280E1,-8.904981995E-1,1.091952084E1
7.695136542E0,5.777984619E-1,1.103190903E1,-8.566685486E-1,1.108019625E1
7.705144542E0,2.173480225E-1,1.113788864E1,-8.616082764E-1,1.117327939E1
7.715153542E0,-1.393601990E-1,1.119387222E1,-1.052611084E0,1.124411787E1
7.725161542E0,-5.399272156E-1,1.126407623E1,-1.334624634E0,1.135571036E1
7.735169542E0,-9.566606140E-1,1.137050491E1,-1.525028687E0,1.151213681E1
7.745178542E0,-1.145418091E0,1.139430542E1,-1.571581879E0,1.155906779E1
7.755186542E0,-1.294957123E0,1.140687927E1,-1.550475769E0,1.158437671E1
7.765195542E0,-1.314117279E0,1.133936966E1,-1.325493622E0,1.149195988E1
7.775203542E0,-1.126856689E0,1.094134735E1,-6.752458191E-1,1.101992944E1
7.785211542E0,-6.072871399E-1,1.016820511E1,1.130149841E-1,1.018695073E1
7.795220542E0,9.131011963E-3,9.477391663E0,7.331753540E-1,9.505713135E0
7.805228542E0,3.760180664E-1,9.128018188E0,1.088686066E0,9.200399067E0
7.815236542E0,5.532495117E-1,8.979526978E0,1.253792725E0,9.083500755E0
7.825245542E0,6.125262451E-1,8.915460205E0,1.339714050E0,9.036340676E0
7.835253542E0,6.159690857E-1,9.009913788E0,1.422791290E0,9.142335557E0
7.845261542E0,6.319857788E-1,9.315727844E0,1.634900208E0,9.479192475E0
7.855270542E0,7.364685059E-1,9.632918243E0,2.066303101E0,9.879529758E0
7.865278542E0,9.442364502E-1,9.688602448E0,2.496957550E0,1.004964660E1
7.875287542E0,1.253044281E0,9.407636719E0,2.696791992E0,9.866429732E0
7.885295542E0,1.691332855E0,8.878786469E0,2.601440277E0,9.405368015E0
7.895303542E0,2.207010498E0,8.384065247E0,2.476450195E0,9.016443366E0
7.905312542E0,2.662513275E0,8.150999908E0,2.647245026E0,8.974167520E0
7.915320542E0,2.977308655E0,8.095016327E0,2.844085693E0,9.081986544E0
7.925328542E0,3.053350525E0,8.119265900E0,2.547552338E0,9.040766068E0
7.935337542E0,2.924917603E0,8.182284851E0,1.748813324E0,8.863592748E0
7.945345542E0,2.567610626E0,8.293653259E0,8.201445007E-1,8.720662000E0
7.955353542E0,2.012714539E0,8.470735016E0,-4.565505981E-2,8.706690296E0
7.965362542E0,1.403182068E0,8.635691986E0,-5.947132874E-1,8.769137922E0
7.975370542E0,9.385482788E-1,8.546178131E0,-5.739065552E-1,8.616693232E0
7.985379542E0,5.867797852E-1,8.311615906E0,-1.615141296E-1,8.333868027E0
7.995387542E0,3.881428528E-1,8.031997375E0,3.728746033E-1,8.050010695E0
8.005395542E0,3.719764709E-1,7.773484955E0,9.683363342E-1,7.842391861E0
8.015404542E0,3.761677551E-1,7.687713318E0,1.588646393E0,7.859149801E0
8.025412542E0,3.339555359E-1,7.770640869E0,2.091450806E0,8.054101582E0
8.035420542E0,2.642005920E-1,8.051307220E0,2.728076935E0,8.505042838E0
8.045429542E0,-4.640350342E-3,8.542585602E0,3.979624329E0,9.424075556E0
8.055437542E0,-4.635859680E-1,9.034612427E0,5.121150513E0,1.039544690E1
8.065445542E0,-8.562194824E-1,9.458530884E0,4.831053772E0,1.065532725E1
8.075454542E0,-8.982820129E-1,9.857750702E0,3.352129211E0,1.045078608E1
8.085462542E0,-7.568261719E-1,1.029259644E1,2.144889679E0,1.054091452E1
8.095470542E0,-3.210823059E-1,1.067071014E1,1.287173309E0,1.075285841E1
8.105479542E0,4.608915710E-1,1.088701035E1,2.359094238E-1,1.089931505E1
8.115487542E0,1.288370819E0,1.089688980E1,-4.522096252E-1,1.098210363E1
8.125496542E0,1.860930176E0,1.078881454E1,-3.697311401E-1,1.095437271E1
8.135504542E0,2.076032867E0,1.047910858E1,-1.091230774E-1,1.068332986E1
8.145512542E0,2.156565399E0,9.905202026E0,2.209405518E-1,1.013965563E1
8.155521542E0,1.972897339E0,9.224567413E0,7.771838379E-1,9.465145672E0
8.165529542E0,1.346599731E0,8.721014557E0,1.380279694E0,8.931662654E0
8.175537542E0,2.514770508E-1,8.711135101E0,2.227517853E0,8.994940314E0
8.185546542E0,-1.033301239E0,8.964258728E0,3.259471893E0,9.594258857E0
8.195554542E0,-1.885179749E0,9.529633026E0,3.612737274E0,1.036434653E1
8.205563542E0,-2.198029175E0,1.015263748E1,3.714226227E0,1.103190176E1
8.215571542E0,-2.356699219E0,1.047132477E1,3.948189697E0,1.143638385E1
8.225579542E0,-2.075134735E0,1.032358200E1,3.638483734E0,1.114096465E1
8.235588542E0,-1.419647827E0,9.741143188E0,2.969524841E0,1.028218597E1
8.245596542E0,-6.839277649E-1,8.945098572E0,2.615211639E0,9.344617572E0
8.255604542E0,-2.760260010E-1,8.431366882E0,2.713108063E0,8.861438552E0
8.265613542E0,-1.561253357E-1,8.441396027E0,2.953508148E0,8.944537572E0
8.275621542E0,-1.742376709E-1,8.818461914E0,3.279979248E0,9.410307814E0
8.285629542E0,-2.209405518E-1,9.370813293E0,3.482807465E0,9.999545207E0
8.295638542E0,-1.645079041E-1,1.029020142E1,3.565285950E0,1.089158262E1
8.305646542E0,2.529739380E-2,1.152169052E1,3.776796112E0,1.212494047E1
8.315655542E0,2.981799316E-1,1.266531235E1,4.060156860E0,1.330353043E1
8.325663542E0,5.466632080E-1,1.329490311E1,4.206253052E0,1.395513719E1
8.335671542E0,5.468128967E-1,1.320793396E1,3.994593201E0,1.380960893E1
8.345680542E0,2.682421875E-1,1.241742783E1,3.329376526E0,1.285881860E1
8.355688542E0,-2.902464294E-1,1.098550552E1,2.189945984E0,1.120542003E1
8.365697083E0,-9.951306152E-1,9.273515625E0,6.047424316E-1,9.346341017E0
8.375706083E0,-1.688189392E0,7.902965698E0,-9.898915100E-1,8.141666626E0
8.385714083E0,-2.141596527E0,7.088808746E0,-1.586550751E0,7.573294423E0
8.395722083E0,-2.245480499E0,6.668333130E0,-1.000519409E0,7.107030920E0
8.405731083E0,-1.724563751E0,6.610253906E0,1.460961914E-1,6.833075511E0
8.415739083E0,-1.832189941E-1,7.341632996E0,6.804849243E-1,7.375378226E0
8.425748083E0,1.294208679E0,8.533753967E0,5.879772949E-1,8.651338057E0
8.435756083E0,2.270628204E0,9.730365601E0,4.207749939E-1,1.000064092E1
8.445764083E0,3.013683014E0,1.070738388E1,3.372486877E-1,1.112852603E1
8.455773083E0,3.611240387E0,1.135014725E1,2.368075562E-1,1.191314306E1
8.465781083E0,4.087998962E0,1.155013138E1,6.451583862E-2,1.225240518E1
8.475789083E0,4.394411774E0,1.133398087E1,-3.138972473E-1,1.216011960E1
8.485798083E0,4.455335083E0,1.084943848E1,-8.897497559E-1,1.176231187E1
8.495806083E0,4.295766907E0,1.019514908E1,-1.408720551E0,1.115254104E1
8.505815083E0,3.874393158E0,9.670041046E0,-1.639989624E0,1.054562384E1
8.515823083E0,3.397634583E0,9.391769714E0,-1.410965881E0,1.008662896E1
8.525831083E0,2.953059082E0,9.205706635E0,-7.180567932E-1,9.694390035E0
8.535840083E0,2.648442535E0,9.070986786E0,1.989363098E-1,9.451805372E0
8.545848083E0,2.495310974E0,9.051227875E0,8.687933350E-1,9.429003381E0
8.555856083E0,2.390828247E0,9.151369629E0,1.026565247E0,9.514066533E0
8.565865083E0,2.322719879E0,9.366921387E0,6.152206421E-1,9.670198568E0
8.575873083E0,2.236798553E0,9.617949371E0,-5.598358154E-2,9.874783645E0
8.585881083E0,2.168241119E0,9.872270508E0,-6.408174133E-1,1.012786461E1
8.595890083E0,2.167642365E0,9.989776154E0,-1.135688324E0,1.028513923E1
8.605898083E0,2.203867035E0,9.895472260E0,-1.386117554E0,1.023223939E1
8.615907083E0,2.274819489E0,9.680968323E0,-1.356179810E0,1.003669144E1
8.625915083E0,2.406545563E0,9.341174927E0,-1.048868866E0,9.703047792E0
8.635923083E0,2.589914246E0,8.984766083E0,-8.342152405E-1,9.387736278E0
8.645932083E0,2.726430359E0,8.669072571E0,-7.589218140E-1,9.119331338E0
8.655940083E0,2.778372345E0,8.342302094E0,-6.614744568E-1,8.817647394E0
8.665948083E0,2.806513824E0,8.224946136E0,-6.346801758E-1,8.713729266E0
8.675957083E0,2.786006470E0,8.354277191E0,-6.644682312E-1,8.831607864E0
8.685965083E0,2.714006195E0,8.673413544E0,-6.494993591E-1,9.111299663E0
8.695974083E0,2.678979034E0,9.007668457E0,-5.110372925E-1,9.411491848E0
8.705982083E0,2.665507050E0,9.313183136E0,-1.860630798E-1,9.688907442E0
8.715990083E0,2.618055725E0,9.600136414E0,3.182382202E-1,9.955807878E0
8.725999083E0,2.552941132E0,9.792486420E0,7.441026306E-1,1.014711720E1
8.736007083E0,2.486928406E0,9.851164398E0,8.490344238E-1,1.019564183E1
8.746015083E0,2.453697510E0,9.863738251E0,6.905140686E-1,1.018777569E1
8.756024083E0,2.441872101E0,9.845925293E0,4.372407532E-1,1.015362811E1
8.766032083E0,2.500849457E0,9.810149689E0,6.062393188E-2,1.012407824E1
8.776041083E0,2.611319733E0,9.684710541E0,-3.234773254E-1,1.003579825E1
8.786049083E0,2.690954132E0,9.543254700E0,-5.653742981E-1,9.931494978E0
8.796057083E0,2.820584564E0,9.311985626E0,-7.104226685E-1,9.755689312E0
8.806066083E0,2.880759430E0,9.037755890E0,-7.086264038E-1,9.512200471E0
8.816074083E0,2.872975616E0,8.910969543E0,-6.469546509E-1,9.384983613E0
8.826082083E0,2.944826202E0,8.757837982E0,-5.608836365E-1,9.256690442E0
8.836091083E0,3.014281769E0,8.621321869E0,-4.691244507E-1,9.145116899E0
8.846099083E0,3.124003601E0,8.579558716E0,-3.742218018E-1,9.138285847E0
8.856107083E0,3.215613098E0,8.607999573E0,-4.370910645E-1,9.199395243E0
8.866116083E0,3.270249481E0,8.689280548E0,-5.815406799E-1,9.302489864E0
8.876124083E0,3.313060455E0,8.821605377E0,-7.141648865E-1,9.450244573E0
8.886133083E0,3.379372559E0,8.957223358E0,-6.731501770E-1,9.597142301E0
8.896141083E0,3.481759644E0,9.033414917E0,-5.372328186E-1,9.696074174E0
8.906149083E0,3.564687195E0,9.104367371E0,-4.722679138E-1,9.788745425E0
8.916158083E0,3.634741516E0,9.211095428E0,-4.882846069E-1,9.914335416E0
8.926166083E0,3.702550507E0,9.344617767E0,-4.489164734E-1,1.006142572E1
8.936174083E0,3.755839691E0,9.444160767E0,-3.067121887E-1,1.016821404E1
8.946183083E0,3.798201599E0,9.503587189E0,-1.694476318E-1,1.023587892E1
8.956191083E0,3.786525879E0,9.518705750E0,-1.306782532E-1,1.024502875E1
8.966200083E0,3.824546814E0,9.489516449E0,-1.163081360E-1,1.023189173E1
8.976208083E0,3.922443237E0,9.483828278E0,-1.085243225E-1,1.026354409E1
8.986216083E0,4.073179779E0,9.381890259E0,-1.116677856E-1,1.022854477E1
8.996225083E0,4.200564880E0,9.199120331E0,-2.993774414E-4,1.011279191E1
9.006233083E0,4.225712585E0,9.067244568E0,2.495310974E-1,1.000668960E1
9.016241083E0,4.233945465E0,8.943751373E0,4.237687683E-1,9.904370894E0
9.026250083E0,4.347559204E0,8.831185455E0,1.679507446E-1,9.844760791E0
9.036258083E0,4.709356842E0,8.950936432E0,-6.494993591E-1,1.013504585E1
9.046267083E0,5.139861603E0,9.330547028E0,-1.604962463E0,1.077279860E1
9.056275083E0,5.492228851E0,9.859846344E0,-2.155218201E0,1.149026167E1
9.066283083E0,5.781577148E0,1.048988617E1,-1.879192200E0,1.212417871E1
9.076292083E0,6.044131165E0,1.130613876E1,-1.022673340E0,1.286103246E1
9.086300083E0,6.103108521E0,1.235635483E1,-1.227447510E-1,1.378196301E1
9.096309083E0,5.821394348E0,1.325688217E1,6.953041077E-1,1.449541324E1
9.106317083E0,5.098697205E0,1.347647552E1,1.753004608E0,1.451499676E1
9.116325083E0,3.828738098E0,1.314925598E1,3.825444946E0,1.421957093E1
9.126334083E0,2.351011047E0,1.253508316E1,4.234843597E0,1.343835790E1
9.136342083E0,1.303788757E0,1.188453598E1,1.947749634E0,1.211345488E1
9.146350083E0,9.117539978E-1,1.184247345E1,5.087919617E-1,1.188841209E1
9.156359083E0,7.291337585E-1,1.216969299E1,2.621049500E-1,1.219433322E1
9.166367083E0,3.408412170E-1,1.270393204E1,1.258582764E0,1.277067314E1
9.176376083E0,1.236428833E-1,1.328681992E1,1.735940094E0,1.340031190E1
9.186384083E0,-3.757186890E-2,1.353455475E1,1.156195679E0,1.358390122E1
9.196392083E0,-1.462458801E-1,1.336181396E1,4.055067444E-1,1.336876569E1
9.206401083E0,-2.791694641E-1,1.309536804E1,6.122268677E-2,1.309848648E1
9.216409083E0,-3.641926575E-1,1.296723450E1,-9.624984741E-2,1.297270484E1
9.226417083E0,-3.885919189E-1,1.310375061E1,-6.750961304E-2,1.310968502E1
9.236426083E0,-1.588197327E-1,1.317874466E1,-5.373825073E-2,1.317981116E1
9.246434083E0,2.906954956E-1,1.318592972E1,-4.068539429E-1,1.319540740E1
9.256442083E0,6.997947693E-1,1.304537201E1,-1.133442993E0,1.311320467E1
9.266451083E0,7.696994019E-1,1.287472687E1,-2.411185913E0,1.312116026E1
9.276459083E0,1.085542603E0,1.277787827E1,-3.991449738E0,1.343072026E1
9.286468083E0,2.050286407E0,1.240979370E1,-2.728825378E0,1.287063099E1
9.296476083E0,3.558250580E0,1.163335831E1,3.457809448E-1,1.217028090E1
9.306484083E0,4.812043304E0,1.062939606E1,2.260449371E0,1.188484130E1
9.316493083E0,5.439688110E0,9.186247101E0,2.318528595E0,1.092487608E1
9.326501083E0,5.735772400E0,7.461683350E0,1.494641876E0,9.529415395E0
9.336510083E0,5.992787933E0,5.879623260E0,4.490661621E-1,8.407445350E0
9.346518083E0,6.350993042E0,4.423750763E0,2.630030823E-1,7.744278795E0
9.356526083E0,6.615942078E0,3.358565826E0,8.837622070E-1,7.472060601E0
9.366539083E0,6.650370483E0,2.782264252E0,1.566492462E0,7.377148539E0
9.376547083E0,5.899382172E0,2.793490906E0,1.405577087E0,6.676971499E0
9.386555083E0,4.568649445E0,3.758683777E0,1.004261627E0,6.000733530E0
9.396564083E0,3.532504120E0,4.961881714E0,5.162763977E-1,6.112724173E0
9.406572083E0,2.791994019E0,5.783373413E0,1.648072815E-1,6.424157538E0
9.416581083E0,2.223027191E0,6.328090668E0,-4.086502075E-2,6.707328182E0
9.426589083E0,1.801354065E0,6.652017059E0,2.993774414E-4,6.891604132E0
9.436597083E0,1.503323822E0,6.720724182E0,1.896556091E-1,6.889418357E0
9.446606083E0,1.302591248E0,6.600973206E0,4.254153442E-1,6.741703749E0
9.456614083E0,1.241518250E0,6.320306854E0,7.253915405E-1,6.481808327E0
9.466622083E0,1.224902802E0,6.033802643E0,1.262923737E0,6.285072599E0
9.476631083E0,1.255588989E0,5.873486023E0,1.910327454E0,6.302673461E0
9.486639083E0,1.267115021E0,5.842350769E0,2.510130157E0,6.483779484E0
9.496648083E0,1.302890625E0,5.842350769E0,2.999462585E0,6.695323912E0
9.506656083E0,1.369651794E0,5.880222015E0,3.546574860E0,7.002224662E0
9.516664083E0,1.343605957E0,5.963598633E0,4.302353210E0,7.475294561E0
9.526673083E0,1.382525024E0,6.110443268E0,4.910987549E0,7.960319785E0
9.536681083E0,1.576371918E0,6.357130280E0,5.289999390E0,8.419153601E0
9.546690083E0,1.821562042E0,6.700965271E0,5.657036133E0,8.956733871E0
9.556698083E0,2.152523804E0,7.072941742E0,5.843099213E0,9.423463908E0
9.566706083E0,2.540067902E0,7.461533661E0,5.776487732E0,9.772115433E0
9.576715083E0,2.978805542E0,7.804919586E0,5.613027649E0,1.006459793E1
9.586723083E0,3.522624664E0,8.014334106E0,5.829477539E0,1.051766343E1
9.596731083E0,4.058360596E0,8.142916718E0,6.539301453E0,1.120445656E1
9.606740083E0,4.510719910E0,8.333769836E0,7.379953308E0,1.201091273E1
9.616748083E0,4.992717590E0,8.501421204E0,7.735164642E0,1.253132728E1
9.626757083E0,5.274880829E0,8.598569183E0,7.347470856E0,1.247978717E1
9.636765083E0,5.142556000E0,8.651109924E0,6.910978546E0,1.220857115E1
9.646773083E0,4.775668945E0,8.575367432E0,6.827152863E0,1.195633542E1
9.656782083E0,4.399800568E0,8.128396912E0,6.699019318E0,1.141516278E1
9.666790083E0,4.055366821E0,7.291487274E0,6.281836853E0,1.044381448E1
9.676798083E0,3.745062103E0,6.467600555E0,5.713917847E0,9.407667312E0
9.686807083E0,3.603157196E0,6.180796967E0,5.428012390E0,8.980440492E0
9.696815083E0,3.737278290E0,6.713389435E0,4.897365875E0,9.111588184E0
9.706824083E0,3.859873352E0,7.934100952E0,3.271147614E0,9.410047126E0
9.716832083E0,3.938310242E0,9.836943970E0,1.978884888E-1,1.059787309E1
9.726840083E0,4.162394257E0,1.245110779E1,-2.524649963E0,1.336897410E1
9.736849083E0,4.305496674E0,1.583616852E1,-2.320773926E0,1.657430320E1
9.746857083E0,4.235442352E0,2.005394760E1,2.258802795E-1,2.049758055E1
9.756865083E0,2.966980133E0,2.283411621E1,2.015408936E0,2.311410192E1
9.766874083E0,-1.601669312E-1,2.066198318E1,2.084864502E0,2.076751941E1
9.776882083E0,-2.775977325E0,1.542138107E1,2.025587769E0,1.579962183E1
9.786891083E0,-3.851939850E0,1.062759979E1,2.023641815E0,1.148383404E1
9.796899083E0,-3.953877869E0,7.219187622E0,1.089135132E0,8.302772757E0
9.806907083E0,-3.578907623E0,4.966671753E0,3.442840576E-1,6.131471242E0
9.816916083E0,-2.724035339E0,3.677702179E0,-5.725593567E-1,4.612340627E0
9.826924083E0,-1.097368011E0,3.633693695E0,-2.497556305E0,4.543757687E0
9.836933083E0,1.128203888E0,5.003794556E0,-5.077441406E0,7.217424416E0
9.846941083E0,2.376308441E0,6.745123444E0,-7.098538513E0,1.007634761E1
9.856949083E0,3.472928009E0,8.345146179E0,-7.652237091E0,1.184311725E1
9.866958083E0,4.538711700E0,9.658515015E0,-6.941515045E0,1.273072847E1
9.876966083E0,5.385500793E0,1.054691757E1,-5.405708771E0,1.301778692E1
9.886974083E0,6.649172974E0,1.120390137E1,6.676116943E-1,1.304548245E1
9.896983083E0,7.959398346E0,1.152962402E1,8.791068878E0,1.653986530E1
9.906991083E0,6.929989014E0,1.080123871E1,7.047943726E0,1.464120952E1
9.917000083E0,4.853058014E0,9.984836426E0,4.060156860E0,1.182091385E1
9.927008083E0,2.919079742E0,9.588311005E0,2.210453339E0,1.026366594E1
9.937016083E0,1.472787323E0,9.320068817E0,7.241940308E-1,9.463468828E0
9.947025083E0,8.586145020E-1,9.043294373E0,-1.785037994E0,9.257686137E0
9.957033083E0,9.910890198E-1,9.073381805E0,-4.527634735E0,1.018862067E1
9.967042083E0,1.523681488E0,9.471404114E0,-6.024222565E0,1.132785764E1
9.977050083E0,2.068997498E0,1.001282822E1,-6.501579895E0,1.211643597E1
9.987058083E0,2.421963501E0,1.015802628E1,-5.990392914E0,1.203894565E1
9.997067083E0,2.549049225E0,9.792037354E0,-4.515360260E0,1.108016813E1
1.000707508E1,2.720742188E0,9.187145233E0,-2.012115784E0,9.790540614E0
1.001708408E1,3.232228546E0,8.426876221E0,3.801345062E0,9.793353281E0
1.002709208E1,3.516188049E0,8.240513763E0,6.614445190E0,1.113645054E1
1.003710008E1,3.134781189E0,8.918004913E0,3.233126678E0,9.990534163E0
1.004710908E1,2.982697449E0,9.393266602E0,-6.631210327E-2,9.855675462E0
1.005711708E1,3.002606049E0,9.455387421E0,-1.401685181E0,1.001921732E1
1.006712508E1,2.932402039E0,9.354197845E0,-1.292562103E0,9.887907556E0
1.007713408E1,2.886297913E0,9.041348419E0,-5.752537537E-1,9.508291842E0
1.008714208E1,2.901715851E0,8.657995605E0,7.454498291E-2,9.131615396E0
1.009715108E1,2.969973907E0,8.316256256E0,2.442919922E-1,8.834055790E0
1.010715908E1,3.033741302E0,8.154143372E0,3.876937866E-2,8.700295597E0
1.011716708E1,3.048859863E0,8.251441040E0,-2.600093079E-1,8.800535810E0
1.012717608E1,2.967429199E0,8.534502411E0,-3.628454590E-1,9.042954400E0
1.013718408E1,2.804118805E0,8.705446930E0,-1.689985657E-1,9.147483208E0
1.014719208E1,2.627186737E0,8.735684052E0,1.805245972E-1,9.123972552E0
1.015720108E1,2.490970001E0,8.692573700E0,4.586462402E-1,9.054066791E0
1.016720908E1,2.435585175E0,8.637188873E0,5.152285767E-1,8.988802326E0
1.017721808E1,2.497556305E0,8.565637665E0,2.936892700E-1,8.927160214E0
1.018722608E1,2.639910278E0,8.535699921E0,-2.709365845E-1,8.938719486E0
1.019723408E1,2.776576080E0,8.616382141E0,-7.743397522E-1,9.085759076E0
1.020724308E1,2.841391296E0,8.687184906E0,-7.620652771E-1,9.171773524E0
1.021725108E1,2.943479004E0,8.681796112E0,-3.601510620E-1,9.174277147E0
1.022726008E1,3.157833252E0,8.537196808E0,-9.565109253E-2,9.103009904E0
1.023726808E1,3.379671936E0,8.504115601E0,-1.895059204E-1,9.153036493E0
1.024727608E1,3.588637390E0,8.737779694E0,-1.064286804E-1,9.446609940E0
1.025728508E1,3.890559540E0,9.192983093E0,4.692741394E-1,9.993378303E0
1.026729308E1,4.229754181E0,9.682614899E0,1.098864899E0,1.062315188E1
1.027730208E1,4.521796875E0,1.005040009E1,9.645941162E-1,1.106289432E1
1.028731008E1,4.755610657E0,1.012689102E1,3.608995056E-1,1.119374839E1
1.029731808E1,4.904700623E0,9.898016968E0,4.727169800E-1,1.105668528E1
1.030732708E1,4.937781830E0,9.466165009E0,1.133592682E0,1.073661966E1
1.031733508E1,5.212610321E0,9.150621185E0,6.818321228E-1,1.055320186E1
1.032734308E1,5.883515167E0,9.257349243E0,-1.012644196E0,1.101543072E1
1.033735208E1,6.841672668E0,1.030367340E1,-2.323917389E0,1.258470351E1
1.034736008E1,7.667056274E0,1.198737213E1,-2.136058044E0,1.438900923E1
1.035736908E1,7.992629242E0,1.320329361E1,-1.075064392E0,1.547142035E1
1.036737254E1,7.926017761E0,1.379186966E1,-1.257385254E-1,1.590764711E1
1.037738054E1,7.535030823E0,1.366643051E1,1.676513672E-1,1.560692537E1
1.038738954E1,6.450685730E0,1.293011169E1,9.550140381E-2,1.445019915E1
1.039739754E1,4.917573853E0,1.201371735E1,8.629554749E-1,1.300986661E1
1.040740654E1,3.427572327E0,1.135104538E1,1.394949188E0,1.193902703E1
1.041741454E1,2.107916565E0,1.123189316E1,9.355545044E-1,1.146621116E1
1.042742254E1,1.234782257E0,1.178110107E1,1.238075409E0,1.191015787E1
1.043743154E1,9.318122864E-1,1.238479568E1,1.783241730E0,1.254716659E1
1.044743954E1,1.145118713E0,1.306812469E1,1.611548767E0,1.321681767E1
1.045744854E1,1.467099152E0,1.358544891E1,1.036295013E0,1.370367503E1
1.046745654E1,1.783990173E0,1.367900436E1,1.784289551E-1,1.379600008E1
1.047746454E1,1.883682861E0,1.351404739E1,-5.635780334E-1,1.365633034E1
1.048747354E1,1.613045654E0,1.349803070E1,-7.524851990E-1,1.361488094E1
1.049748154E1,1.250349884E0,1.357796448E1,-5.405259705E-1,1.364612262E1
1.050748954E1,9.611512756E-1,1.384291351E1,-3.182382202E-1,1.387988984E1
1.051749854E1,9.196875000E-1,1.409528870E1,-5.053491211E-1,1.413429752E1
1.052750654E1,1.170416107E0,1.426832886E1,-1.067130890E0,1.435596916E1
1.053751554E1,1.425635376E0,1.396056885E1,-1.187330933E0,1.408331188E1
1.054752354E1,1.474583588E0,1.308444077E1,-2.454895020E0,1.339415904E1
1.055753154E1,1.508562927E0,1.218391342E1,-3.192860413E0,1.268534059E1
1.056754054E1,1.754052429E0,1.132335297E1,-1.151106262E0,1.151607867E1
1.057754854E1,1.980531464E0,1.031744476E1,9.336085510E-1,1.054721746E1
1.058755754E1,2.255210266E0,9.565109253E0,2.962788849E0,1.026427816E1
1.059756554E1,2.708018646E0,8.896449738E0,3.708987122E0,1.001183142E1
1.060757354E1,3.131038971E0,8.057145081E0,3.088227997E0,9.179223499E0
1.061758254E1,3.521876221E0,7.163802795E0,1.619332581E0,8.145300523E0
1.062759054E1,3.579656067E0,6.282435608E0,1.781295776E-2,7.230715872E0
1.063759954E1,3.604354706E0,5.287604370E0,-1.371597748E0,6.544571277E0
1.064760754E1,3.760330353E0,4.396657104E0,-1.905836792E0,6.091214323E0
1.065761554E1,3.750151520E0,3.976480865E0,-1.922003174E0,5.793973826E0
1.066762454E1,3.514990540E0,3.899690552E0,-1.833986206E0,5.561137500E0
1.067763254E1,3.053949280E0,4.032165070E0,-1.426832886E0,5.255550726E0
1.068764154E1,2.507136383E0,4.342769165E0,-1.190025330E0,5.153788621E0
1.069764954E1,1.892813873E0,4.567901001E0,-8.328680420E-1,5.014193164E0
1.070765754E1,1.271605682E0,4.616998901E0,-2.335144043E-1,4.794599967E0
1.071766654E1,7.047344971E-1,4.614903259E0,4.297563171E-1,4.688141774E0
1.072767454E1,2.715353394E-1,4.501139832E0,1.176104279E0,4.660173012E0
1.073768254E1,3.323089600E-2,4.377946014E0,1.569486237E0,4.650892672E0
1.074769154E1,-1.026864624E-1,4.301455078E0,1.725611572E0,4.635816605E0
1.075769954E1,-1.736389160E-1,4.254752197E0,2.044747925E0,4.723776118E0
1.076770854E1,-1.130149841E-1,4.323908386E0,2.420167236E0,4.956426694E0
1.077771654E1,2.510279846E-1,4.577181702E0,2.768492889E0,5.355199367E0
1.078772454E1,8.473878479E-1,5.013524323E0,3.221600647E0,6.019319150E0
1.079773354E1,1.417552185E0,5.619464264E0,3.894900513E0,6.982698820E0
1.080774154E1,1.893113251E0,6.442153473E0,4.699028320E0,8.195491828E0
1.081775054E1,2.294877777E0,7.335795135E0,5.941893768E0,9.715269211E0
1.082775854E1,2.757116547E0,8.182135162E0,8.043673096E0,1.180041119E1
1.083776654E1,3.565884705E0,8.938362579E0,1.079854431E1,1.446438449E1
1.084777554E1,4.828808441E0,9.803563385E0,1.264974472E1,1.671655729E1
1.085778354E1,6.206693115E0,1.086051544E1,1.259840149E1,1.775369131E1
1.086779254E1,6.950346680E0,1.185384979E1,1.141092087E1,1.786141621E1
1.087780054E1,6.712640991E0,1.216310669E1,9.433832245E0,1.679279322E1
1.088780854E1,5.725294189E0,1.138741974E1,7.059020691E0,1.456990374E1
1.089781754E1,4.347110138E0,9.666448517E0,4.609963531E0,1.155808623E1
1.090782554E1,2.826123047E0,8.008496246E0,2.503543854E0,8.853853140E0
1.091783354E1,1.555116119E0,7.336244202E0,1.371448059E0,7.623630035E0
1.092784254E1,8.952882385E-1,8.339458008E0,1.485810242E0,8.517965307E0
1.093785054E1,1.532213745E0,1.097637451E1,2.598446503E0,1.138333873E1
1.094785954E1,2.981350250E0,1.436862030E1,3.608695679E0,1.511186233E1
1.095786754E1,4.432582397E0,1.775128601E1,2.962788849E0,1.853467182E1
1.096787554E1,5.521567841E0,2.078832047E1,1.494641876E0,2.156098174E1
1.097788454E1,6.551276550E0,2.319950638E1,2.192939758E0,2.420630714E1
1.098789254E1,4.040996704E0,1.999437149E1,1.696122894E0,2.046903463E1
1.099790154E1,-9.081614685E-1,1.188288940E1,-3.252735901E-1,1.192198057E1
1.100790954E1,-2.845133514E0,6.521488495E0,-1.251996460E0,7.224409460E0
1.101791754E1,-3.470383301E0,3.647914124E0,-6.637197876E-1,5.078519633E0
1.102792654E1,-4.073778534E0,1.823957062E0,5.257067871E-1,4.494314022E0
1.103793454E1,-4.366569672E0,1.063089294E0,1.170116730E0,4.643949042E0
1.104794354E1,-4.029770050E0,1.145717468E0,1.482966156E0,4.444198892E0
1.105795154E1,-2.355352020E0,2.496209106E0,7.457492065E-1,3.512105483E0
1.106795954E1,1.679507446E-1,4.678071899E0,-2.091899872E0,5.127241873E0
1.107796854E1,1.023870850E0,7.078929291E0,-5.363496552E0,8.940170394E0
1.108797654E1,1.976789246E0,9.502539368E0,-6.980733490E0,1.195560915E1
1.109798554E1,2.989283752E0,1.140583145E1,-7.376959534E0,1.390857075E1
1.110799354E1,3.924688568E0,1.277473480E1,-7.348818054E0,1.525130016E1
1.111800154E1,5.021158447E0,1.369412292E1,-6.793772278E0,1.609025719E1
1.112801054E1,5.859714661E0,1.400427795E1,-5.100044403E0,1.601457180E1
1.113801854E1,6.962471466E0,1.349249222E1,2.642155609E0,1.541117586E1
1.114802754E1,8.877738647E0,1.158126663E1,1.736478973E1,2.268206126E1
1.115803554E1,7.081923065E0,1.040052200E1,8.837173004E0,1.537595912E1
1.116804354E1,4.851411438E0,9.649833069E0,3.342698822E0,1.130615348E1
1.117805254E1,2.866089935E0,8.976682892E0,2.136806488E0,9.662362507E0
1.118806054E1,1.004860382E0,8.995543671E0,1.647174683E0,9.200148627E0
1.119806954E1,1.305285645E-1,9.375902710E0,4.421804810E-1,9.387231376E0
1.120807754E1,5.667214966E-1,9.894125061E0,-2.795436859E0,1.029705546E1
1.121808554E1,1.534908142E0,1.032448013E1,-5.328918457E0,1.171956505E1
1.122809454E1,2.412832489E0,1.038929535E1,-5.983507233E0,1.222953708E1
1.123810254E1,2.717898102E0,1.016281631E1,-4.933740234E0,1.161944914E1
1.124811054E1,2.527643738E0,9.905651093E0,-3.035088501E0,1.066408311E1
1.125811954E1,2.096240845E0,9.244026947E0,-7.768844604E-2,9.479045066E0
1.126812754E1,1.828447723E0,8.500223694E0,3.864214325E0,9.514682142E0
1.127813654E1,2.024689636E0,8.043523407E0,4.225413208E0,9.308692373E0
1.128814454E1,2.354603577E0,7.933352509E0,2.365830231E0,8.606938637E0
1.129815254E1,2.694696350E0,8.170758820E0,3.884422302E-1,8.612408227E0
1.130816154E1,2.779719543E0,8.402327271E0,-6.141728210E-1,8.871479727E0
1.131816954E1,2.660118256E0,8.528065796E0,-7.691006470E-1,8.966362203E0
1.132817854E1,2.499951324E0,8.546327820E0,-6.562353516E-1,8.928612471E0
1.133818654E1,2.364183655E0,8.495283966E0,-3.754193115E-1,8.826106371E0
1.134819454E1,2.143093414E0,8.344996490E0,6.481521606E-2,8.616032545E0
1.135820354E1,1.901645508E0,8.231981506E0,8.196954346E-1,8.488443660E0
1.136821208E1,1.717528381E0,8.195307770E0,1.607357483E0,8.526228431E0
1.137822108E1,1.828896790E0,8.183482361E0,1.504072266E0,8.519183083E0
1.138822908E1,2.153871002E0,8.315058746E0,5.852828979E-1,8.609408709E0
1.139823708E1,2.365231476E0,8.526568909E0,-1.457968140E-1,8.849743160E0
1.140824608E1,2.339185638E0,8.702004089E0,-4.568499756E-1,9.022492811E0
1.141825408E1,2.211800537E0,8.881630554E0,-1.688488770E-1,9.154448802E0
1.142826308E1,2.043101349E0,8.979377289E0,4.477189636E-1,9.219757691E0
1.143827108E1,1.983225861E0,8.900491333E0,1.084644470E0,9.183048754E0
1.144827908E1,2.233804779E0,8.781488800E0,7.587721252E-1,9.092863381E0
1.145828808E1,2.890489197E0,8.819060669E0,-6.020480347E-1,9.300173155E0
1.146829608E1,3.542832642E0,9.037007446E0,-1.683848419E0,9.851624851E0
1.147830508E1,4.098177795E0,9.393266602E0,-1.802850952E0,1.040570950E1
1.148831308E1,4.849615173E0,9.545949097E0,-8.985813904E-1,1.074482945E1
1.149832108E1,5.560037842E0,9.524543610E0,3.221301270E-1,1.103334580E1
1.150833008E1,6.079607391E0,9.460177460E0,5.239105225E-1,1.125748932E1
1.151833808E1,6.528523865E0,9.579928436E0,-4.610412598E-2,1.159304871E1
1.152834708E1,6.939569092E0,1.013332764E1,-3.453318787E-1,1.228662697E1
1.153835508E1,7.268734589E0,1.117411331E1,-7.074288940E-1,1.334899871E1
1.154836308E1,7.633975067E0,1.229543152E1,-1.485510864E0,1.454860660E1
1.155837208E1,7.980953522E0,1.318817505E1,-2.148332520E0,1.556402624E1
1.156838008E1,8.172555084E0,1.399379974E1,-1.745969238E0,1.629924834E1
1.157838908E1,7.777227173E0,1.464120346E1,-3.231779480E-1,1.658175338E1
1.158839708E1,6.716233521E0,1.443612991E1,9.346563721E-1,1.594939567E1
1.159840508E1,5.439538422E0,1.336091583E1,1.582359467E0,1.451228830E1
1.160841408E1,3.878584442E0,1.243015137E1,1.701212311E0,1.313187738E1
1.161842208E1,2.139351196E0,1.193842392E1,1.075962524E0,1.217622620E1
1.162843108E1,7.967930603E-1,1.213975525E1,1.428479462E0,1.224945265E1
1.163843908E1,3.376977539E-1,1.239901611E1,2.137554932E0,1.258645230E1
1.164844708E1,2.586621094E-1,1.244407242E1,2.162103882E0,1.263315232E1
1.165845608E1,4.038601685E-1,1.255708740E1,1.564696198E0,1.266064063E1
1.166846408E1,8.978329468E-1,1.252759872E1,4.755610657E-1,1.256873073E1
1.167847308E1,1.401984558E0,1.233629654E1,-8.158035278E-1,1.244247999E1
1.168848108E1,1.572929077E0,1.236788086E1,-1.515897675E0,1.255932039E1
1.169848908E1,1.523382111E0,1.283745438E1,-1.652713165E0,1.303274295E1
1.170849808E1,1.394051056E0,1.338471634E1,-1.396146698E0,1.352934719E1
1.171850608E1,1.055604858E0,1.410920975E1,-9.618997192E-1,1.418130292E1
1.172851408E1,6.228547668E-1,1.507440262E1,-7.548802185E-1,1.510613804E1
1.173852308E1,2.335144043E-1,1.583616852E1,-1.430425415E0,1.590235452E1
1.174853108E1,7.364685059E-2,1.557316544E1,-3.013084259E0,1.586214306E1
1.175854008E1,3.031196594E-1,1.410606628E1,-4.993915100E0,1.496703630E1
1.176854808E1,3.728746033E-1,1.272488846E1,-4.588707733E0,1.353211219E1
1.177855608E1,2.959346008E-1,1.126063339E1,-2.655477905E0,1.157328841E1
1.178856508E1,6.500981140E-1,9.857002258E0,-1.919009399E-1,9.880280717E0
1.179857308E1,9.364526367E-1,8.522677002E0,2.725083160E0,8.996612977E0
1.180858208E1,1.574425964E0,7.427704010E0,5.007985840E0,9.095577285E0
1.181859008E1,2.552641754E0,6.516698456E0,5.406307526E0,8.843726576E0
1.182859808E1,3.409010925E0,5.672603760E0,4.008065186E0,7.737207212E0
1.183860708E1,3.980821838E0,5.027894440E0,1.957329712E0,6.705058136E0
1.184861508E1,4.200115814E0,4.281396790E0,7.035369873E-2,5.998023088E0
1.185862408E1,4.176914062E0,3.513194275E0,-1.034049683E0,5.555034099E0
1.186863208E1,3.921395416E0,2.738405457E0,-1.094074860E0,4.906445379E0
1.187864008E1,3.377576294E0,2.247426453E0,-6.373745728E-1,4.106725414E0
1.188864908E1,2.541265411E0,2.492466888E0,-1.586700439E-1,3.563088164E0
1.189865708E1,1.630708923E0,3.313359833E0,-1.007405090E-1,3.694281205E0
1.190866608E1,7.469467163E-1,4.062701569E0,-2.414479065E-1,4.137846121E0
1.191867408E1,-1.227447510E-2,4.589456177E0,-4.346960449E-1,4.610012941E0
1.192868208E1,-6.180647278E-1,5.032684479E0,-5.246589661E-1,5.097566488E0
1.193869108E1,-9.548643494E-1,5.208718414E0,-2.983296204E-1,5.303914970E0
1.194869908E1,-1.016386414E0,5.289101257E0,6.077362061E-2,5.386216379E0
1.195870808E1,-8.804690552E-1,5.382956085E0,5.682183838E-1,5.484005298E0
1.196871608E1,-6.212081909E-1,5.538183289E0,1.327589264E0,5.728862628E0
1.197872408E1,-1.570234680E-1,5.760171661E0,2.388283539E0,6.237638351E0
1.198873308E1,4.483177185E-1,6.174210663E0,3.603456573E0,7.162874099E0
1.199874108E1,9.632469177E-1,6.739584961E0,5.334606628E0,8.649154754E0
1.200875008E1,1.453477478E0,7.683971100E0,7.989336090E0,1.117969140E1
1.201875808E1,2.230661316E0,9.028774567E0,1.097263229E1,1.438378530E1
1.202876608E1,3.583847351E0,1.022373962E1,1.272593628E1,1.671281747E1
1.203877508E1,5.191055145E0,1.113504456E1,1.287068527E1,1.779299891E1
1.204878308E1,5.835016022E0,1.144579834E1,1.156240585E1,1.728418181E1
1.205879208E1,4.841981049E0,1.164802780E1,1.052147049E1,1.642627996E1
1.206880008E1,3.167712708E0,1.145807281E1,1.013512390E1,1.562186202E1
1.207880808E1,2.036964111E0,1.044168640E1,9.254654846E0,1.410059126E1
1.208881708E1,1.634151764E0,9.051976318E0,7.416327667E0,1.181569479E1
1.209882508E1,1.577120361E0,7.874075775E0,5.117707672E0,9.522568444E0
1.210883408E1,1.736389160E0,7.103328552E0,3.064427490E0,7.928621550E0
1.211884208E1,2.071093140E0,6.667135620E0,1.363963623E0,7.113404314E0
1.212885008E1,2.560425568E0,6.468947754E0,8.277786255E-1,7.006302990E0
1.213885908E1,3.316802673E0,7.117848358E0,2.461181946E0,8.229359744E0
1.214886708E1,4.541256409E0,9.291029205E0,6.117778015E0,1.201554998E1
1.215887608E1,6.382876740E0,1.271441025E1,1.094508957E1,1.794971669E1
1.216888408E1,8.778495026E0,1.661245422E1,1.291035278E1,2.279721078E1
1.217889208E1,1.012180161E1,1.880359772E1,7.127428436E0,2.251280504E1
1.218890108E1,9.137298889E0,1.831770813E1,3.025209045E-1,2.047242489E1
1.219890908E1,5.810616760E0,1.659269531E1,-1.960024109E0,1.768961558E1
1.220891808E1,3.842509460E-1,1.185983734E1,-3.640429688E0,1.241193453E1
1.221892608E1,-2.595752106E0,6.710096283E0,-4.811294861E0,8.655164895E0
1.222893408E1,-3.410507812E0,3.540886688E0,-4.199067993E0,6.465416776E0
1.223894308E1,-4.488416290E0,1.889221344E0,-2.251168671E0,5.364960248E0
1.224895108E1,-6.450985107E0,1.037642212E0,9.916877747E-1,6.608733226E0
1.225896008E1,-8.076305237E0,1.078656921E0,3.670816498E0,8.936727633E0
1.226896808E1,-7.155569916E0,3.659140778E0,5.120551758E0,9.529509030E0
1.227897608E1,-3.853885803E0,6.781198425E0,5.354515228E0,9.460862603E0
1.228898508E1,-1.223405914E0,8.154442749E0,2.837649078E0,8.720315985E0
1.229899308E1,-1.188528442E-1,1.041339523E1,-1.354084167E0,1.050173653E1
1.230900208E1,9.484277344E-1,1.271635620E1,-4.601131897E0,1.355638761E1
1.231901008E1,2.280058594E0,1.432431244E1,-7.040608978E0,1.612311288E1
1.232901808E1,3.736080780E0,1.537812103E1,-8.114924927E0,1.778473819E1
1.233902708E1,4.905898132E0,1.518651947E1,-7.600744171E0,1.767680746E1
1.234903508E1,5.561385040E0,1.415965485E1,-5.772146759E0,1.627090984E1
1.235904408E1,6.538702698E0,1.267234772E1,2.210752716E0,1.443019256E1
1.236905221E1,7.297325134E0,1.058987823E1,9.550589447E0,1.601905846E1
1.237906021E1,6.379583588E0,9.023984528E0,6.033652954E0,1.259112193E1
1.238906921E1,5.283413086E0,8.084388428E0,3.038980408E0,1.012458355E1
1.239907721E1,4.398004303E0,7.273973694E0,1.127904510E0,8.574689716E0
1.240908621E1,3.459755402E0,7.086713104E0,6.661148071E-2,7.886434375E0
1.241909421E1,2.505190430E0,8.078849945E0,-5.195695496E-1,8.474299265E0
1.242910221E1,2.148332520E0,9.393266602E0,-1.872306519E0,9.816023725E0
1.243911121E1,2.310744781E0,1.027777725E1,-3.334166565E0,1.104938520E1
1.244911921E1,2.587070160E0,1.062430664E1,-4.178710327E0,1.170600032E1
1.245912821E1,2.800376587E0,1.057431061E1,-4.223616943E0,1.172591548E1
1.246913621E1,2.790347443E0,1.010069550E1,-3.549119568E0,1.106373979E1
1.247914521E1,2.526296539E0,9.467063141E0,-2.258802795E0,1.005532937E1
1.248915321E1,2.295925598E0,8.706045685E0,1.498384094E-1,9.004940720E0
1.249916121E1,2.220781860E0,7.824977875E0,3.177741852E0,8.732708291E0
1.250917021E1,2.308200073E0,7.339986420E0,4.014202423E0,8.678537280E0
1.251917821E1,2.517614594E0,7.520361328E0,2.685415649E0,8.372913170E0
1.252918721E1,2.804268494E0,8.160280609E0,8.436456299E-1,8.669823490E0
1.253919521E1,3.028502197E0,8.666078796E0,-3.198847961E-1,9.185590539E0
1.254920321E1,3.139870605E0,8.848998413E0,-9.204359436E-1,9.434551535E0
1.255921221E1,3.159479828E0,8.875193939E0,-1.095571747E0,9.484284775E0
1.256922021E1,3.067870331E0,8.771459656E0,-1.009500732E0,9.347161312E0
1.257922921E1,2.882256317E0,8.549920349E0,-6.715036011E-1,9.047621596E0
1.258923721E1,2.641556854E0,8.210576019E0,1.080752563E-1,8.625720923E0
1.259924521E1,2.476300507E0,7.887697449E0,9.581575012E-1,8.322613835E0
1.260925421E1,2.387535095E0,7.845335541E0,1.446142731E0,8.327120894E0
1.261926221E1,2.398013306E0,8.163873138E0,1.191671906E0,8.591820201E0
1.262927121E1,2.477198639E0,8.606502686E0,5.382806396E-1,8.972075993E0
1.263927921E1,2.585872650E0,9.002429352E0,1.109193420E-1,9.367111332E0
1.264928721E1,2.652334442E0,9.280401306E0,-9.969268799E-2,9.652495275E0
1.265929621E1,2.714904327E0,9.468560028E0,-2.462379456E-1,9.853170436E0
1.266930421E1,2.874921570E0,9.571246490E0,-5.155279541E-1,1.000698269E1
1.267931321E1,3.052602081E0,9.517059174E0,-8.421487427E-1,1.003005530E1
1.268932121E1,3.221750336E0,9.438322906E0,-1.068029022E0,1.003006982E1
1.269932921E1,3.425326996E0,9.298214264E0,-1.095871124E0,9.969482787E0
1.270933821E1,3.679498444E0,9.161099396E0,-1.150208130E0,9.939186570E0
1.271934621E1,3.999083862E0,9.105115814E0,-1.055455170E0,1.000048956E1
1.272935521E1,4.354145508E0,9.119186554E0,-6.245013428E-1,1.012463078E1
1.273936321E1,4.784650269E0,9.192983093E0,7.170089722E-2,1.036382928E1
1.274937121E1,5.124293976E0,9.441316681E0,9.529183960E-1,1.078447509E1
1.275938021E1,5.407205658E0,9.762249298E0,1.382974091E0,1.124508789E1
1.276938821E1,5.864205322E0,1.002450394E1,8.255332947E-1,1.164307041E1
1.277939721E1,6.497987366E0,1.020472916E1,-2.805166626E-1,1.210119939E1
1.278940521E1,7.165000305E0,1.040591080E1,-1.337169342E0,1.270465390E1
1.279941321E1,7.738457794E0,1.102262833E1,-2.197280731E0,1.364588241E1
1.280942221E1,8.044720917E0,1.207568848E1,-2.602637787E0,1.474155725E1
1.281943021E1,7.924820251E0,1.294747559E1,-2.346969452E0,1.536060434E1
1.282943921E1,7.423961792E0,1.359008926E1,-1.480720825E0,1.555629355E1
1.283944721E1,6.622977448E0,1.390263931E1,-6.616241455E-1,1.541379112E1
1.284945521E1,5.777086487E0,1.358904144E1,-3.950285339E-1,1.477135143E1
1.285946421E1,4.648283844E0,1.305091049E1,-5.703140259E-2,1.385409903E1
1.286947221E1,2.943628693E0,1.274285110E1,5.866300964E-1,1.309157512E1
1.287948121E1,9.731263733E-1,1.243808487E1,4.772076416E-1,1.248521755E1
1.288948921E1,-5.665718079E-1,1.208901077E1,-1.669029236E-1,1.210343099E1
1.289949821E1,-1.265019379E0,1.196177536E1,6.017486572E-1,1.204352296E1
1.290950621E1,-1.440005493E0,1.200533478E1,1.782193909E0,1.222202496E1
1.291951421E1,-1.288969574E0,1.210502747E1,2.180365906E0,1.236717947E1
1.292952321E1,-9.297166443E-1,1.207943069E1,1.714534607E0,1.223587544E1
1.293953121E1,-5.352868652E-1,1.180639847E1,7.442523193E-1,1.184193769E1
1.294954021E1,-1.763333130E-1,1.155252640E1,-2.101629639E-1,1.155578332E1
1.295954821E1,-2.439926147E-2,1.171763306E1,-7.611671448E-1,1.174235476E1
1.296955621E1,-7.155120850E-2,1.231788483E1,-9.297166443E-1,1.235312832E1
1.297956521E1,-4.490661621E-2,1.296454010E1,-9.355545044E-1,1.299832985E1
1.298957321E1,1.692979431E-1,1.354114105E1,-1.073866882E0,1.358471026E1
1.299958221E1,5.950126648E-1,1.366837646E1,-1.759441223E0,1.379399104E1
1.300959021E1,8.842112732E-1,1.300720139E1,-3.007695465E0,1.337966178E1
1.301959821E1,6.626719666E-1,1.240694962E1,-4.876708832E0,1.334742754E1
1.302960721E1,6.767427063E-1,1.212852859E1,-6.211333466E0,1.364330788E1
1.303961521E1,1.185834045E0,1.132095795E1,-4.360731812E0,1.218959692E1
1.304962421E1,2.314037933E0,1.061846878E1,-1.063538361E0,1.091960460E1
1.305963221E1,3.373983765E0,9.542506256E0,3.213816833E0,1.061940727E1
1.306964021E1,4.232897644E0,8.464747467E0,6.174360352E0,1.130009283E1
1.307964921E1,4.997807007E0,7.386689301E0,6.258485413E0,1.089540698E1
1.308965721E1,5.585035858E0,6.425238647E0,4.647086334E0,9.699058130E0
1.309966621E1,5.925428009E0,5.699398041E0,2.297721863E0,8.536589534E0
1.310967421E1,5.874833221E0,4.954247589E0,-5.987548828E-2,7.685168809E0
1.311968221E1,5.527854767E0,4.268373871E0,-1.386566620E0,7.120306230E0
1.312969121E1,4.793631592E0,3.965403900E0,-1.691332855E0,6.447010063E0
1.313969921E1,3.450624390E0,4.610113220E0,-1.081351318E0,5.859118812E0
1.314970821E1,2.232307892E0,5.525759125E0,-5.523513794E-1,5.985173721E0
1.315971621E1,1.343605957E0,5.900429993E0,-4.784051514E-1,6.070356048E0
1.316972521E1,6.336323547E-1,5.951324158E0,-6.867718506E-1,6.024234787E0
1.317973321E1,4.595443726E-2,5.773344269E0,-7.506889343E-1,5.822125877E0
1.318974121E1,-3.962260437E-1,5.521717529E0,-4.797523499E-1,5.556664635E0
1.319975021E1,-7.173083496E-1,5.386847992E0,-0.000000000E0,5.434396246E0
1.320975821E1,-9.102571106E-1,5.467380524E0,5.171745300E-1,5.566712431E0
1.321976721E1,-1.015188904E0,5.587281189E0,1.099014587E0,5.784129378E0
1.322977521E1,-1.046174469E0,5.699996796E0,1.807491302E0,6.070541104E0
1.323978321E1,-9.500743103E-1,5.879922638E0,2.526146851E0,6.469741056E0
1.324979221E1,-6.387217712E-1,6.223757629E0,3.312461700E0,7.079232094E0
1.325980021E1,-5.508544922E-2,6.742129669E0,4.301754456E0,7.997777084E0
1.326980921E1,8.602610779E-1,7.323969727E0,5.559888153E0,9.235417584E0
1.327981721E1,1.972148895E0,8.003706207E0,6.900949402E0,1.075043194E1
1.328982521E1,3.203039246E0,8.868757324E0,8.052055664E0,1.239959343E1
1.329983421E1,4.464615784E0,9.631271667E0,8.998088379E0,1.391616982E1
1.330984221E1,5.532794495E0,1.009141479E1,9.608369293E0,1.499230563E1
1.331985121E1,6.087840271E0,1.033001862E1,9.967472534E0,1.559235686E1
1.332985921E1,6.031856689E0,1.013392639E1,9.952503662E0,1.543152904E1
1.333986721E1,5.509592743E0,9.698481903E0,9.267079010E0,1.450154877E1
1.334987621E1,4.654870148E0,9.059610443E0,7.978259125E0,1.293819833E1
1.335988421E1,3.796405334E0,8.177195435E0,6.647526398E0,1.120128679E1
1.336989271E1,3.012036438E0,7.214696960E0,5.398224335E0,9.500791636E0
1.337990071E1,2.191592560E0,6.554420013E0,3.864813080E0,7.918350826E0
1.338990971E1,1.282832336E0,6.415059814E0,2.323468323E0,6.942417178E0
1.339991771E1,4.578977966E-1,6.642137604E0,1.374591522E0,6.798320689E0
1.340992571E1,-3.802093506E-2,7.059469757E0,1.400188293E0,7.197088724E0
1.341993471E1,1.140628052E-1,7.802973633E0,2.404898987E0,8.165962710E0
1.342994271E1,9.515711975E-1,9.100475464E0,4.003574524E0,9.987629868E0
1.343995171E1,2.107617188E0,1.101768860E1,5.187612305E0,1.235891717E1
1.344995971E1,3.456761627E0,1.303803726E1,4.770729218E0,1.430732239E1
1.345996771E1,4.526287537E0,1.464569412E1,3.066373444E0,1.563285902E1
1.346997671E1,5.193300476E0,1.653326889E1,2.230511627E0,1.747267959E1
1.347998471E1,6.267167358E0,1.903531586E1,3.575913849E0,2.035700853E1
1.348999371E1,7.808212738E0,2.090028763E1,3.590134277E0,2.259821394E1
1.350000171E1,6.070626068E0,1.755953476E1,5.956114197E-1,1.858882769E1
1.351000971E1,2.616409149E0,1.139834702E1,-9.951306152E-1,1.173704377E1
1.352001871E1,1.275347900E-1,7.674091644E0,-2.124981079E0,7.963886757E0
1.353002671E1,-7.390132141E-1,5.935606842E0,-2.748733978E0,6.582788740E0
1.354003571E1,-1.041534119E0,4.532574463E0,-2.376757507E0,5.222834559E0
1.355004371E1,-1.322799225E0,3.695365448E0,-1.668729858E0,4.264995067E0
1.356005171E1,-1.352587280E0,3.681145020E0,-1.344803467E0,4.145939866E0
1.357006071E1,-8.740324402E-1,4.482428741E0,-2.154320068E0,5.049474734E0
1.358006871E1,1.863624573E-1,5.996979218E0,-3.700005798E0,7.049009406E0
1.359007771E1,1.094074860E0,7.484585724E0,-4.596341858E0,8.851123190E0
1.360008571E1,1.748963013E0,8.816066895E0,-4.254452820E0,9.943956753E0
1.361009471E1,2.293680267E0,1.016057098E1,-3.612437897E0,1.102487548E1
1.362010271E1,2.672243042E0,1.129536118E1,-2.925815735E0,1.197023244E1
1.363011071E1,2.914888458E0,1.209215424E1,-2.096839600E0,1.261402018E1
1.364011971E1,3.157982941E0,1.263402740E1,-1.337917786E0,1.309127682E1
1.365012771E1,3.634591827E0,1.301902679E1,1.133293304E0,1.356427920E1
1.366013671E1,4.201013947E0,1.300390823E1,4.243824921E0,1.430944435E1
1.367014471E1,3.821403351E0,1.224348953E1,4.183350677E0,1.349098152E1
1.368015271E1,2.996468811E0,1.103445374E1,3.512745209E0,1.196149545E1
1.369016171E1,2.044897614E0,9.972262573E0,2.833906860E0,1.056686591E1
1.370016971E1,1.057700500E0,9.449100494E0,1.712139587E0,9.661037857E0
1.371017871E1,3.402424622E-1,9.413474579E0,-1.392105103E-1,9.420650091E0
1.372018671E1,1.363664246E-1,9.500593414E0,-2.903661804E0,9.935347145E0
1.373019471E1,4.544549561E-1,9.512867889E0,-5.085823975E0,1.079661013E1
1.374020371E1,9.240284729E-1,9.379644928E0,-5.462590485E0,1.089364321E1
1.375021171E1,1.374292145E0,9.166787567E0,-4.841831360E0,1.045762899E1
1.376022071E1,1.714983673E0,8.970246277E0,-4.057612152E0,9.993533091E0
1.377022871E1,1.933978271E0,8.819809113E0,-3.286715240E0,9.608943845E0
1.378023771E1,2.124082947E0,8.866811371E0,-2.505639496E0,9.455702065E0
1.379024571E1,2.360291748E0,9.055868225E0,-1.282532959E0,9.445878320E0
1.380025371E1,2.782863007E0,9.176217957E0,1.138981476E0,9.656323384E0
1.381026271E1,3.111130371E0,9.320068817E0,2.576442261E0,1.015779847E1
1.382027071E1,3.186872864E0,9.610614624E0,1.798809357E0,1.028376328E1
1.383027971E1,3.265758820E0,9.771230621E0,4.141886902E-1,1.031085257E1
1.384028771E1,3.374881897E0,9.689650269E0,-7.304809570E-2,1.026082288E1
1.385029571E1,3.543581085E0,9.443711700E0,1.725910950E-1,1.008813388E1
1.386030471E1,3.735182648E0,9.186845856E0,8.698411560E-1,9.955217216E0
1.387031271E1,3.862867126E0,8.960067444E0,1.629960480E0,9.892488170E0
1.388032171E1,3.867208099E0,8.863218842E0,1.799857178E0,9.836230608E0
1.389032971E1,3.678151245E0,8.989705811E0,1.378932495E0,9.810456767E0
1.390033771E1,3.268004150E0,9.383985901E0,6.301895142E-1,9.956715389E0
1.391034671E1,2.670596466E0,9.912686462E0,-1.489402771E-1,1.026721099E1
1.392035471E1,2.039359131E0,1.036669235E1,-7.369175720E-1,1.059105016E1
1.393036371E1,1.568887482E0,1.058269318E1,-1.008602600E0,1.074579369E1
1.394037171E1,1.308429108E0,1.049048492E1,-1.169817352E0,1.063629321E1
1.395038071E1,1.304537201E0,1.021266266E1,-1.282233582E0,1.037518283E1
1.396038871E1,1.433269501E0,9.952653351E0,-1.414708099E0,1.015435715E1
1.397039671E1,1.481918335E0,9.848919067E0,-1.743723907E0,1.011127400E1
1.398040571E1,1.544787598E0,9.644893341E0,-2.056273956E0,9.981913587E0
1.399041371E1,1.630409546E0,9.418414307E0,-2.153122559E0,9.797994697E0
1.400042271E1,1.651515656E0,9.337881775E0,-1.935774536E0,9.678365722E0
1.401043071E1,1.620679779E0,9.376651154E0,-1.532513123E0,9.638297893E0
1.402043871E1,1.576820984E0,9.455088043E0,-1.158441010E0,9.655415055E0
1.403044771E1,1.556313629E0,9.558822327E0,-8.134085083E-1,9.718787465E0
1.404045571E1,1.655108185E0,9.691147156E0,-8.422984314E-1,9.867481084E0
1.405046471E1,1.961221619E0,9.785600739E0,-9.297166443E-1,1.002340985E1
1.406047271E1,2.297272797E0,1.001163071E1,-6.426136780E-1,1.029189798E1
1.407048071E1,2.476300507E0,1.045830185E1,-4.683760071E-1,1.075767251E1
1.408048971E1,2.522254944E0,1.103759720E1,-5.122348022E-1,1.133369783E1
1.409049771E1,2.411485291E0,1.171104675E1,-7.942483521E-1,1.198310093E1
1.410050671E1,2.153721313E0,1.225531494E1,-1.292861481E0,1.251010594E1
1.411051471E1,1.663041687E0,1.245709534E1,-1.697769470E0,1.268177247E1
1.412052371E1,1.046773224E0,1.233899094E1,-1.756447449E0,1.250725946E1
1.413053171E1,4.903802490E-1,1.209290268E1,-1.617686005E0,1.221047403E1
1.414053971E1,1.273851013E-1,1.185534668E1,-1.522034912E0,1.195332850E1
1.415054871E1,-1.004411316E-1,1.169832321E1,-1.588796082E0,1.180614786E1
1.416055671E1,-3.106040955E-1,1.169068909E1,-1.800605621E0,1.183261876E1
1.417056571E1,-4.918771362E-1,1.162647263E1,-1.960922241E0,1.180093322E1
1.418057371E1,-6.304888916E-1,1.125778931E1,-1.923200684E0,1.143827073E1
1.419058171E1,-4.788542175E-1,1.030696655E1,-1.718875580E0,1.046027696E1
1.420059071E1,2.730322266E-1,8.970096588E0,-1.369202728E0,9.078099774E0
1.421059871E1,1.162781982E0,8.057444458E0,-9.636959839E-1,8.197754759E0
1.422060771E1,1.895508270E0,7.622598724E0,-5.309458923E-1,7.872665778E0
1.423061571E1,2.443518677E0,7.508535919E0,8.232879639E-2,7.896560847E0
1.424062471E1,2.717149658E0,7.638465729E0,8.324189758E-1,8.149968240E0
1.425063271E1,2.731070709E0,8.002359009E0,1.350491638E0,8.562728805E0
1.426064071E1,2.223625946E0,8.613388367E0,1.362766113E0,8.999561266E0
1.427064971E1,1.592089233E0,9.178612976E0,1.225651245E0,9.395951536E0
1.428065771E1,1.224753113E0,9.539213104E0,1.144070892E0,9.685324209E0
1.429066671E1,9.514215088E-1,9.839937744E0,1.199156342E0,9.958290698E0
1.430067471E1,7.568261719E-1,9.987381134E0,1.402882690E0,1.011378503E1
1.431068271E1,5.644761658E-1,9.795180817E0,1.648970947E0,9.949035418E0
1.432069171E1,3.971241760E-1,9.389225006E0,1.832489319E0,9.574615968E0
1.433069971E1,2.589614868E-1,8.884175262E0,2.030976563E0,9.117044310E0
1.434070871E1,1.184037781E-1,8.434959412E0,2.202220459E0,8.718505301E0
1.435071671E1,-3.727249146E-2,8.112978973E0,2.308948517E0,8.435227342E0
1.436072471E1,-1.959425354E-1,8.058492279E0,2.299368439E0,8.382409350E0
1.437073429E1,-2.737806702E-1,8.277486877E0,2.089055786E0,8.541422536E0
1.438074229E1,-3.255729675E-1,8.592731323E0,1.760039978E0,8.777173239E0
1.439075129E1,-4.246669006E-1,8.871601410E0,1.512005768E0,9.009540221E0
1.440075929E1,-5.665718079E-1,9.018595734E0,1.286424866E0,9.127483857E0
1.441076829E1,-5.999523926E-1,9.035211182E0,1.017733612E0,9.112121908E0
1.442077629E1,-5.099894714E-1,9.038204956E0,9.565109253E-1,9.102974857E0
1.443078429E1,-3.698808289E-1,9.001531219E0,1.124611359E0,9.079048784E0
1.444079329E1,-1.755848694E-1,8.854087830E0,1.361119537E0,8.959818510E0
1.445080129E1,-8.532257080E-3,8.752898254E0,1.578617249E0,8.894117892E0
1.446081029E1,9.250762939E-2,8.749754791E0,1.801803131E0,8.933826789E0
1.447081829E1,1.691482544E-1,8.901688843E0,2.125879211E0,9.153580600E0
1.448082629E1,2.182461548E-1,9.246421967E0,2.758314056E0,9.651541172E0
1.449083529E1,3.179388428E-1,9.640402679E0,2.957100677E0,1.008875083E1
1.450084329E1,6.415658569E-1,9.948911133E0,2.409539337E0,1.025662319E1
1.451085229E1,1.127156067E0,1.003767654E1,1.526525574E0,1.021546433E1
1.452086029E1,1.680555267E0,9.909542999E0,6.215075684E-1,1.007023238E1
1.453086929E1,2.158810730E0,9.705816650E0,1.904040527E-1,9.944827516E0
1.454087729E1,2.401905212E0,9.570947113E0,3.903881836E-1,9.875453419E0
1.455088529E1,2.465373230E0,9.377100220E0,7.840695190E-1,9.727427137E0
1.456089429E1,2.260000305E0,9.148675232E0,1.308129730E0,9.514045579E0
1.457090229E1,1.916913757E0,8.972192230E0,2.069446564E0,9.405179469E0
1.458091129E1,1.446741486E0,8.810528412E0,2.621947632E0,9.305540350E0
1.459091929E1,8.887019348E-1,8.556356964E0,2.954406281E0,9.095578711E0
1.460092729E1,-2.514770508E-2,8.405171356E0,3.268004150E0,9.018169940E0
1.461093629E1,-9.172924805E-1,8.459957428E0,3.408711548E0,9.166876218E0
1.462094429E1,-1.596729584E0,8.640032959E0,3.357518005E0,9.405989690E0
1.463095329E1,-2.098336487E0,8.866961060E0,3.324137421E0,9.699273377E0
1.464096129E1,-2.296224976E0,9.024134216E0,3.307971039E0,9.881817641E0
1.465097029E1,-2.018103333E0,9.075028381E0,3.157833252E0,9.818390501E0
1.466097829E1,-9.949809265E-1,8.878038025E0,2.932102661E0,9.402487555E0
1.467098629E1,6.691085815E-2,8.544980621E0,2.970572662E0,9.046848779E0
1.468099529E1,4.315525818E-1,8.673862610E0,3.310964813E0,9.294332585E0
1.469100329E1,2.523751831E-1,9.266779633E0,4.013903046E0,1.010189664E1
1.470101229E1,-1.664538574E-1,1.004516098E1,4.861440582E0,1.116093950E1
1.471102029E1,-5.906716919E-1,1.094464050E1,5.542075195E0,1.228204569E1
1.472102829E1,-9.836045837E-1,1.196327225E1,5.835614777E0,1.334697571E1
1.473103729E1,-1.237925720E0,1.296813263E1,5.559888153E0,1.416394296E1
1.474104529E1,-1.191222839E0,1.394859375E1,5.246140594E0,1.495005922E1
1.475105429E1,-1.011746063E0,1.474508743E1,5.278323669E0,1.569400950E1
1.476106229E1,-1.268761597E0,1.428718964E1,4.760849762E0,1.511288305E1
1.477107129E1,-2.066901855E0,1.254481293E1,3.314557343E0,1.313890045E1
1.478107929E1,-2.861898651E0,9.881102142E0,1.867366791E0,1.045531932E1
1.479108729E1,-3.044967957E0,7.307653656E0,6.551875305E-1,7.943733537E0
1.480109629E1,-2.544259186E0,5.619913330E0,-5.821394348E-1,6.196415655E0
1.481110429E1,-2.041305084E0,4.962181091E0,-9.864486694E-1,5.455570420E0
1.482111329E1,-1.667831726E0,5.434898071E0,-4.525090027E-1,5.703029380E0
1.483112129E1,3.966751099E-2,6.752009125E0,8.577163696E-2,6.752670398E0
1.484112929E1,2.087858276E0,8.487799530E0,-7.074288940E-1,8.769398422E0
1.485113829E1,3.054997101E0,1.027822632E1,-2.673290863E0,1.105085642E1
1.486114629E1,3.898642731E0,1.162557449E1,-3.848497009E0,1.285162739E1
1.487115529E1,4.878505096E0,1.234692444E1,-3.586841125E0,1.375179204E1
1.488116329E1,5.907465363E0,1.269989044E1,-1.995051270E0,1.414798904E1
1.489117229E1,6.748865662E0,1.253822662E1,-1.481918335E-2,1.423919008E1
1.490118029E1,6.984326019E0,1.163799866E1,9.806108093E-1,1.360828499E1
1.491118829E1,6.614295502E0,1.033855087E1,8.288264465E-1,1.230128011E1
1.492119729E1,5.756130066E0,9.231004028E0,2.341131592E-1,1.088114322E1
1.493120529E1,4.321363678E0,8.682843933E0,-2.604583740E-1,9.702257540E0
1.494121429E1,2.686762848E0,8.647068329E0,-4.879852295E-1,9.067999497E0
1.495122229E1,1.220561829E0,9.087003479E0,-6.457571411E-1,9.191322304E0
1.496123129E1,3.998185730E-1,9.617350616E0,-8.565188599E-1,9.663690409E0
1.497123929E1,1.969903564E-1,9.807604980E0,-8.626560974E-1,9.847441099E0
1.498124729E1,2.092648315E-1,9.635313263E0,-7.017407227E-1,9.663099580E0
1.499125629E1,3.595523071E-1,9.329948273E0,-4.796026611E-1,9.349183459E0
1.500126429E1,5.691165161E-1,9.088799744E0,-2.833607483E-1,9.111008051E0
1.501127329E1,9.144483948E-1,8.842412109E0,-1.998344421E-1,8.891816551E0
1.502128129E1,1.280137939E0,8.589288483E0,-2.540217590E-1,8.687874126E0
1.503128929E1,1.586999817E0,8.520581360E0,-4.526586914E-1,8.678927066E0
1.504129829E1,1.822011108E0,8.515791321E0,-7.762857056E-1,8.743057005E0
1.505130629E1,2.062860260E0,8.553363190E0,-1.075064392E0,8.864038456E0
1.506131529E1,2.326312408E0,8.765921173E0,-1.273401947E0,9.158310759E0
1.507132329E1,2.642604675E0,9.009464722E0,-1.264720001E0,9.473823448E0
1.508133229E1,3.002306671E0,9.239985352E0,-1.014590149E0,9.768345193E0
1.509134029E1,3.367098083E0,9.355245667E0,-6.065386963E-1,9.961217806E0
1.510134829E1,3.737427979E0,9.344617767E0,-3.606001282E-1,1.007076370E1
1.511135729E1,3.999832306E0,9.293573914E0,-5.019062805E-1,1.013020654E1
1.512136529E1,4.174968109E0,9.282047882E0,-7.520361328E-1,1.020550488E1
1.513137429E1,4.318369904E0,9.320068817E0,-7.165599060E-1,1.029686649E1
1.514138229E1,4.435426483E0,9.415121155E0,-5.430706787E-1,1.042172923E1
1.515139029E1,4.494403839E0,9.468410339E0,-2.073188782E-1,1.048300727E1
1.516139929E1,4.511318665E0,9.388476563E0,-7.783813477E-3,1.041611966E1
1.517140729E1,4.434827728E0,9.259594574E0,1.065783691E-1,1.026738270E1
1.518141629E1,4.239184570E0,9.258097687E0,1.710942078E-1,1.018392517E1
1.519142429E1,3.954626312E0,9.297316132E0,2.624043274E-1,1.010683000E1
1.520143329E1,3.514840851E0,9.490713959E0,2.850073242E-1,1.012467218E1
1.521144129E1,3.112477570E0,9.687404938E0,2.963836670E-1,1.017944863E1
1.522144929E1,2.791994019E0,9.779762878E0,3.540138245E-1,1.017665556E1
1.523145829E1,2.564018097E0,9.778116302E0,4.357438660E-1,1.011808381E1
1.524146629E1,2.494263153E0,9.692194977E0,4.361929321E-1,1.001749751E1
1.525147529E1,2.595602417E0,9.475146332E0,6.286926270E-2,9.824433951E0
1.526148329E1,2.757266235E0,9.215436401E0,-5.535488892E-1,9.634998782E0
1.527149129E1,2.878663788E0,8.952433319E0,-1.022373962E0,9.459282005E0
1.528150029E1,2.984942780E0,8.654552765E0,-1.226848755E0,9.236683649E0
1.529150829E1,3.054398346E0,8.425978088E0,-1.150208130E0,9.036007677E0
1.530151729E1,3.059787140E0,8.339757385E0,-9.421408081E-1,8.933167405E0
1.531152529E1,3.004252625E0,8.507109375E0,-7.039860535E-1,9.049422087E0
1.532153429E1,3.006797333E0,8.698860626E0,-5.562432861E-1,9.220651441E0
1.533154229E1,3.108435974E0,8.939560089E0,-6.015989685E-1,9.483671763E0
1.534155029E1,3.274590454E0,9.159153442E0,-8.114625549E-1,9.760712366E0
1.535155929E1,3.437751160E0,9.361382904E0,-9.750723267E-1,1.002019905E1
1.536156729E1,3.568429413E0,9.464518433E0,-9.294172668E-1,1.015749054E1
1.537158004E1,3.645219727E0,9.451345825E0,-6.673123169E-1,1.015189000E1
1.538158804E1,3.722908173E0,9.354946289E0,-3.273692322E-1,1.007383919E1
1.539159704E1,3.770808563E0,9.182355194E0,-3.278182983E-2,9.926515944E0
1.540160504E1,3.823199615E0,8.937763824E0,1.926493835E-1,9.723044341E0
1.541161304E1,3.969295807E0,8.594377899E0,1.157093811E-1,9.467419360E0
1.542162204E1,4.135749664E0,8.318950653E0,-2.395019531E-1,9.293370026E0
1.543163004E1,4.220922546E0,8.267607422E0,-5.222639465E-1,9.297434015E0
1.544163904E1,4.176315308E0,8.321794739E0,-5.785469055E-1,9.328911713E0
1.545164704E1,4.035757599E0,8.485853577E0,-3.847000122E-1,9.404522551E0
1.546165604E1,3.893403625E0,8.694220276E0,-1.122665405E-1,9.526839023E0
1.547166404E1,3.849395142E0,8.945397949E0,2.993774414E-4,9.738479733E0
1.548167204E1,4.046535187E0,9.191037140E0,-3.016227722E-1,1.004691928E1
1.549168104E1,4.410727844E0,9.514065399E0,-1.123862915E0,1.054680181E1
1.550168904E1,4.827161865E0,9.931547241E0,-2.019600220E0,1.122568071E1
1.551169804E1,5.174739075E0,1.036145325E1,-2.338137817E0,1.181543594E1
1.552170604E1,5.489833832E0,1.092787537E1,-1.682351532E0,1.234451466E1
1.553171404E1,5.777535553E0,1.156360336E1,-5.140310669E-1,1.293681057E1
1.554172304E1,5.963598633E0,1.204470291E1,2.212399292E-1,1.344203571E1
1.555173104E1,5.959557037E0,1.234602631E1,4.520599365E-1,1.371659738E1
1.556174004E1,5.710924072E0,1.243434265E1,4.966671753E-1,1.369212216E1
1.557174804E1,4.932393036E0,1.260154495E1,1.930834808E0,1.366951204E1
1.558175704E1,3.023562469E0,1.317230804E1,4.795577545E0,1.434047395E1
1.559176504E1,1.280736694E0,1.317724777E1,2.922821960E0,1.355813533E1
1.560177304E1,4.992118835E-1,1.307276505E1,2.855012970E0,1.339020155E1
1.561178204E1,6.731501770E-1,1.307426193E1,2.751128998E0,1.337752470E1
1.562179004E1,9.581575012E-1,1.328068268E1,2.360441437E0,1.352280599E1
1.563179904E1,1.028062134E0,1.340222992E1,2.249821472E0,1.362858669E1
1.564180704E1,1.252894592E0,1.311333069E1,9.662406921E-1,1.320843699E1
1.565181604E1,1.452579346E0,1.261531631E1,-7.135661316E-1,1.271870155E1
1.566182404E1,1.501826935E0,1.246457977E1,-1.697170715E0,1.266892345E1
1.567183204E1,1.365011444E0,1.265603165E1,-1.893412628E0,1.286947570E1
1.568184104E1,1.217118988E0,1.297905991E1,-2.005529480E0,1.318937160E1
1.569184904E1,1.132395172E0,1.341510315E1,-2.371668091E0,1.367011781E1
1.570185804E1,9.621990967E-1,1.393766647E1,-2.828967133E0,1.425438279E1
1.571186604E1,8.035290527E-1,1.431533112E1,-3.651356964E0,1.479549835E1
1.572187404E1,6.725514221E-1,1.378124176E1,-4.698429565E0,1.457567118E1
1.573188304E1,1.077160034E0,1.285900955E1,-4.151616669E0,1.355545357E1
1.574189104E1,1.792821808E0,1.234213440E1,-1.288969574E0,1.253809930E1
1.575190004E1,2.488874359E0,1.164608185E1,1.212628326E0,1.197063847E1
1.576190804E1,2.957400055E0,1.081111816E1,3.128344574E0,1.163671048E1
1.577191704E1,3.429967346E0,1.001058289E1,4.331841888E0,1.143421619E1
1.578192504E1,4.065994720E0,9.281000061E0,4.029620361E0,1.090445393E1
1.579193304E1,4.392316132E0,8.526269531E0,2.743195496E0,9.975712238E0
1.580194204E1,4.440515900E0,7.490573273E0,1.329535217E0,8.808775925E0
1.581195004E1,4.493356018E0,6.211034088E0,1.667532349E-1,7.667789733E0
1.582195904E1,4.535568237E0,5.529950409E0,-3.435356140E-1,7.160289623E0
1.583196704E1,4.307592316E0,5.395529938E0,-6.605763245E-1,6.935665501E0
1.584197604E1,3.753145294E0,5.668412476E0,-9.942324829E-1,6.870625723E0
1.585198404E1,3.015928345E0,5.907016296E0,-1.064137115E0,6.717220639E0
1.586199204E1,2.288590851E0,5.992189178E0,-1.062340851E0,6.501734178E0
1.587200104E1,1.745220795E0,5.872438202E0,-1.227447510E0,6.248035967E0
1.588200904E1,1.268013153E0,5.590424652E0,-9.217831421E-1,5.806064873E0
1.589201804E1,9.005273438E-1,5.255720673E0,-4.186793518E-1,5.348723370E0
1.590202604E1,5.587879944E-1,4.939578094E0,3.894900513E-1,4.986319111E0
1.591203504E1,3.059637451E-1,4.631818085E0,1.591939545E0,4.907303139E0
1.592204304E1,2.034269714E-1,4.487817535E0,2.447111206E0,5.115685880E0
1.593205104E1,3.540138245E-1,4.485272827E0,2.583477631E0,5.188193789E0
1.594206004E1,6.655160522E-1,4.510270844E0,2.839744720E0,5.371182810E0
1.595206804E1,1.075513458E0,4.509522400E0,3.335364075E0,5.711144805E0
1.596207704E1,1.522034912E0,4.536765747E0,3.903881836E0,6.175688391E0
1.597208504E1,1.935175781E0,4.693639526E0,4.417613525E0,6.729819208E0
1.598209304E1,2.395468597E0,4.872367859E0,4.966821442E0,7.358502129E0
1.599210204E1,2.902015228E0,5.081632690E0,5.520969086E0,8.045233547E0
1.600211004E1,3.432811432E0,5.513185272E0,5.845793610E0,8.738003725E0
1.601211904E1,3.873195648E0,6.161337433E0,6.184239807E0,9.550316512E0
1.602212704E1,4.011657715E0,6.995402985E0,6.820716248E0,1.056178160E1
1.603213604E1,4.013603668E0,7.786507874E0,7.610024872E0,1.160393027E1
1.604214404E1,4.071682892E0,8.253686371E0,7.948171692E0,1.216040187E1
1.605215204E1,4.228107605E0,8.425529022E0,7.616910553E0,1.211956103E1
1.606216104E1,4.433779907E0,8.305778046E0,6.869514771E0,1.165480958E1
1.607216904E1,4.523144073E0,8.066425781E0,6.239175568E0,1.115586702E1
1.608217804E1,4.438270569E0,7.704927521E0,5.825136566E0,1.062997506E1
1.609218604E1,4.194577332E0,7.316784668E0,5.451812897E0,1.004251367E1
1.610219504E1,3.895948334E0,6.993606720E0,5.197042694E0,9.544537764E0
1.611220304E1,3.456312561E0,6.744824066E0,4.760550385E0,8.949949059E0
1.612221104E1,2.854114838E0,6.614295502E0,4.743785248E0,8.625449262E0
1.613222004E1,2.285746765E0,6.851701813E0,5.425767059E0,9.033792348E0
1.614222804E1,2.097887421E0,7.818241882E0,5.869594116E0,9.998908583E0
1.615223704E1,2.561323700E0,9.768236847E0,5.558840332E0,1.152733864E1
1.616224504E1,3.731739807E0,1.299402878E1,4.793332214E0,1.434387324E1
1.617225404E1,5.633984070E0,1.740026596E1,3.982767792E0,1.871826571E1
1.618226204E1,7.410190430E0,2.193104416E1,2.902164917E0,2.333032750E1
1.619227004E1,7.448660431E0,2.410916473E1,1.780547333E0,2.529633798E1
1.620227904E1,4.114942932E0,2.112018036E1,6.971003723E-1,2.152860243E1
1.621228704E1,-3.559597778E-1,1.430649948E1,-7.822732544E-1,1.433229173E1
1.622229604E1,-2.193688202E0,8.475075989E0,-1.177451477E0,8.833208529E0
1.623230404E1,-3.215762787E0,4.700824585E0,-2.556683350E-1,5.701249721E0
1.624231204E1,-4.093986511E0,2.384391632E0,1.134341125E0,4.871629994E0
1.625232104E1,-4.632117462E0,1.439406738E0,2.243534546E0,5.344328882E0
1.626232904E1,-4.265230408E0,1.609902191E0,2.294578400E0,5.103828517E0
1.627233804E1,-2.314786377E0,2.953358459E0,9.032217407E-1,3.859581800E0
1.628234604E1,9.753717041E-1,5.024601288E0,-1.527872772E0,5.341569364E0
1.629235504E1,2.347268829E0,7.306007080E0,-4.774920502E0,9.038101361E0
1.630236304E1,3.232078857E0,9.371262360E0,-6.917564850E0,1.208799385E1
1.631237104E1,4.340224457E0,1.089733887E1,-7.057374115E0,1.368926850E1
1.632238004E1,5.485193481E0,1.200817886E1,-6.387966156E0,1.466594077E1
1.633238804E1,6.937174072E0,1.290152115E1,-3.580404510E0,1.507955333E1
1.634239704E1,8.707392883E0,1.306123901E1,4.850662994E0,1.642996004E1
1.635240504E1,8.831335144E0,1.200623291E1,7.282955017E0,1.658865706E1
1.636241404E1,7.139253845E0,1.042626846E1,5.010231171E0,1.359332321E1
1.637242233E1,5.189109192E0,9.254056091E0,4.201013947E0,1.141108788E1
1.638243033E1,3.072660370E0,8.905880127E0,3.747756500E0,1.013911344E1
1.639243933E1,1.207838287E0,9.242829437E0,3.469036102E0,9.946003258E0
1.640244733E1,4.138893127E-1,9.669292603E0,1.251397705E0,9.758715080E0
1.641245633E1,8.666976929E-1,1.012374756E1,-2.387385406E0,1.043748239E1
1.642246433E1,1.642085266E0,1.065469345E1,-5.076842651E0,1.191609281E1
1.643247333E1,2.279609528E0,1.102532272E1,-6.233936462E0,1.286920062E1
1.644248133E1,2.540816345E0,1.092563004E1,-5.898933105E0,1.267369524E1
1.645248933E1,2.447859650E0,1.026864624E1,-4.617148590E0,1.152194313E1
1.646249833E1,2.198927307E0,9.558672638E0,-2.841990051E0,1.021177807E1
1.647250633E1,2.015708313E0,8.607849884E0,5.182223511E-1,8.855885841E0
1.648251533E1,2.062710571E0,7.657326508E0,5.101990356E0,9.429725857E0
1.649252333E1,2.268233185E0,7.340285797E0,5.395829315E0,9.388272012E0
1.650253233E1,2.531685333E0,7.712711334E0,2.872376862E0,8.610801100E0
1.651254033E1,2.759361877E0,8.339008942E0,6.857240295E-1,8.810412337E0
1.652254833E1,2.923570404E0,8.794960785E0,-5.667214966E-1,9.285460267E0
1.653255733E1,3.054997101E0,8.961414642E0,-1.102756805E0,9.531843067E0
1.654256533E1,3.106040955E0,8.964707794E0,-1.039737854E0,9.544345501E0
1.655257433E1,3.043171692E0,8.729846191E0,-6.402186584E-1,9.267199599E0
1.656258233E1,2.869233398E0,8.373736725E0,-8.397537231E-2,8.852062974E0
1.657259133E1,2.650089111E0,8.045319672E0,3.067121887E-1,8.476096583E0
1.658259933E1,2.510429535E0,7.923622742E0,4.011657715E-1,8.321477500E0
1.659260733E1,2.407443695E0,8.036637726E0,3.188369751E-1,8.395533819E0
1.660261633E1,2.385589142E0,8.243806915E0,2.164498901E-1,8.584767822E0
1.661262433E1,2.399210815E0,8.459807739E0,8.681945801E-2,8.793867019E0
1.662263333E1,2.367776184E0,8.716074829E0,5.134323120E-2,9.032107208E0
1.663264133E1,2.300416260E0,8.904981995E0,7.439529419E-2,9.197616754E0
1.664265033E1,2.254312134E0,9.028325500E0,8.696914673E-2,9.305920060E0
1.665265833E1,2.201771393E0,9.107211456E0,1.317260742E-2,9.369592910E0
1.666266633E1,2.238744507E0,9.141490173E0,-2.010319519E-1,9.413778912E0
1.667267533E1,2.289938049E0,9.226064301E0,-4.775070190E-1,9.517987797E0
1.668268333E1,2.320773926E0,9.252259827E0,-6.393205261E-1,9.560284214E0
1.669269233E1,2.399510193E0,9.121132507E0,-5.571414185E-1,9.447915852E0
1.670270033E1,2.821333008E0,8.882828064E0,-6.734495544E-1,9.344414838E0
1.671270933E1,3.650159454E0,8.615034943E0,-1.218316498E0,9.435400691E0
1.672271733E1,4.481081543E0,8.846004639E0,-1.471739502E0,1.002486444E1
1.673272533E1,5.060526581E0,9.255103912E0,-7.107220459E-1,1.057218064E1
1.674273433E1,5.580395508E0,9.564510498E0,3.505709839E-1,1.107896995E1
1.675274233E1,5.998326416E0,9.992320862E0,2.097138977E-1,1.165634488E1
1.676275133E1,6.471342773E0,1.054512131E1,-8.623567200E-1,1.240248039E1
1.677275933E1,7.119045868E0,1.108909012E1,-1.700014801E0,1.328678983E1
1.678276833E1,7.766150208E0,1.194186676E1,-1.882036285E0,1.436883194E1
1.679277633E1,8.380023651E0,1.290780807E1,-2.072889404E0,1.552846342E1
1.680278433E1,8.835376740E0,1.357018066E1,-2.064207458E0,1.632405090E1
1.681279333E1,8.877289581E0,1.394784531E1,-1.030008087E0,1.656531242E1
1.682280133E1,7.735164642E0,1.379935410E1,6.494993591E-1,1.583277597E1
1.683281033E1,5.635031891E0,1.266561172E1,2.253264313E0,1.404451868E1
