"Time (s)","Acceleration x (m/s^2)","Acceleration y (m/s^2)","Acceleration z (m/s^2)","Absolute acceleration (m/s^2)"
0.000000000E0,-1.779798889E0,2.621947632E0,8.703950043E0,9.262885070E0
1.004199998E-2,-1.735341339E0,2.480491791E0,8.705596619E0,9.216922565E0
2.008499997E-2,-1.640438690E0,2.392325134E0,8.604257355E0,9.080060753E0
3.012799995E-2,-1.675316162E0,2.353705444E0,8.465495911E0,8.944899920E0
4.017100006E-2,-1.761536865E0,2.335892487E0,8.245303802E0,8.748967975E0
5.021300004E-2,-1.969304810E0,2.270478516E0,7.978857880E0,8.526160167E0
6.025600003E-2,-2.326013031E0,2.225122833E0,7.463180237E0,8.127765221E0
7.029900001E-2,-3.362906799E0,2.239043884E0,6.189029846E0,7.390977614E0
8.034200000E-2,-2.774031372E0,2.671344910E0,6.308631134E0,7.391221852E0
9.038499999E-2,-3.010838928E0,2.263592834E0,6.371650085E0,7.401819262E0
1.004270000E-1,-3.431015167E0,1.799108734E0,5.339696045E0,6.597045639E0
1.104700000E-1,-3.356320496E0,1.803898773E0,4.472399597E0,5.875482636E0
1.205130001E-1,-3.497626648E0,1.810634766E0,4.049379272E0,5.648828455E0
1.305560000E-1,-3.707789612E0,1.660047913E0,3.465593262E0,5.339831414E0
1.405980000E-1,-3.836970978E0,1.314865723E0,2.765648804E0,4.909178287E0
1.506410000E-1,-3.882476349E0,8.870553589E-1,1.641636200E0,4.307604813E0
1.606840000E-1,-3.443289642E0,1.989363098E-1,6.245013428E-1,3.505113571E0
1.707270000E-1,-3.911366272E0,-7.039860535E-1,1.065933380E0,4.114680601E0
1.807700000E-1,-6.146967316E0,-1.200802917E0,2.558329926E0,6.765514528E0
1.908120000E-1,-4.966821442E0,-2.778222656E-1,2.532284088E0,5.582021421E0
2.008550001E-1,-3.027005310E0,5.980064392E-1,4.853656769E0,5.751378694E0
2.108980000E-1,-4.186643829E0,-6.315367126E-1,6.010451202E0,7.352030252E0
2.209410000E-1,-5.543272705E0,-2.406695251E0,6.690786438E0,9.015912459E0
2.309830000E-1,-6.079607391E0,-2.903362427E0,7.563172302E0,1.012880618E1
2.410260000E-1,-5.582640839E0,-2.957849121E0,7.342231750E0,9.686233387E0
2.510690000E-1,-4.979245605E0,-3.030298462E0,6.053860931E0,8.403857908E0
2.611120000E-1,-5.838907928E0,-2.966381378E0,4.689897308E0,8.055271630E0
2.711550000E-1,-7.264842682E0,-2.494412842E0,3.603306885E0,8.484329975E0
2.811970001E-1,-7.686066742E0,-2.237546997E0,3.207080841E0,8.623665465E0
2.912400000E-1,-7.346722412E0,-2.586321716E0,4.011957092E0,8.761232215E0
3.012830000E-1,-7.447313232E0,-3.700005798E0,5.506000214E0,9.973392384E0
3.113260000E-1,-7.937543793E0,-4.464915161E0,6.905290375E0,1.142904651E1
3.213680000E-1,-8.081095276E0,-5.246889038E0,8.192763062E0,1.264734407E1
3.314110000E-1,-8.116870880E0,-5.657934265E0,8.710386658E0,1.318205783E1
3.414540000E-1,-9.645492096E0,-5.040617981E0,8.835227051E0,1.401800929E1
3.514970000E-1,-1.116962265E1,-4.673581238E0,8.294551392E0,1.467659410E1
3.615400001E-1,-1.205637863E1,-4.450095978E0,7.037615204E0,1.465222330E1
3.715820001E-1,-1.244392273E1,-4.135749664E0,6.002817078E0,1.442183938E1
3.816250000E-1,-1.268342468E1,-4.236789551E0,5.951174469E0,1.463680720E1
3.916680000E-1,-1.249900818E1,-4.806055756E0,6.521638184E0,1.489480252E1
4.017110000E-1,-1.213885712E1,-5.347330170E0,7.162156219E0,1.507455717E1
4.117530000E-1,-1.177526321E1,-5.891598358E0,7.481442261E0,1.514396689E1
4.217960000E-1,-1.203931412E1,-6.497687988E0,7.486831055E0,1.559543757E1
4.318390000E-1,-1.363065491E1,-6.186784515E0,7.799680481E0,1.687916086E1
4.418820000E-1,-1.443343552E1,-5.402714996E0,7.814799042E0,1.727959705E1
4.519250001E-1,-1.473969864E1,-5.008734283E0,6.189927979E0,1.675295029E1
4.619670000E-1,-1.493758713E1,-4.810396729E0,4.695286102E0,1.638038881E1
4.720100000E-1,-1.447894089E1,-4.522245941E0,3.889511719E0,1.565946164E1
4.820530000E-1,-1.414902695E1,-4.681664429E0,3.592080231E0,1.533023111E1
4.920960000E-1,-1.440244995E1,-4.766687622E0,4.077520752E0,1.570917092E1
5.021380000E-1,-1.491109222E1,-4.453987885E0,4.119283905E0,1.609804893E1
5.121810000E-1,-1.526675262E1,-4.638554077E0,4.082759857E0,1.646993769E1
5.222240000E-1,-1.485301300E1,-4.688699799E0,3.874692535E0,1.605020695E1
5.322670001E-1,-1.410247375E1,-4.725373535E0,3.596720581E0,1.530180774E1
5.423100000E-1,-1.397778305E1,-4.739444275E0,3.443738708E0,1.515585983E1
5.523520000E-1,-1.401071457E1,-4.084406433E0,3.239563293E0,1.494915613E1
5.623950000E-1,-1.313743057E1,-3.405268707E0,2.930605774E0,1.388439366E1
5.724380000E-1,-1.228929428E1,-3.115770721E0,2.193089447E0,1.286640674E1
5.824810000E-1,-1.157213562E1,-2.828218689E0,1.561103668E0,1.201458232E1
5.925240000E-1,-1.107936035E1,-2.679727478E0,1.559756470E0,1.150504261E1
6.025660000E-1,-1.096514786E1,-2.822979584E0,1.746118927E0,1.145655326E1
6.126090001E-1,-1.088626190E1,-2.860850830E0,2.047442322E0,1.144059377E1
6.226520000E-1,-1.067819458E1,-2.713407440E0,2.212548981E0,1.123751718E1
6.326950000E-1,-1.075902649E1,-2.435136108E0,2.388283539E0,1.128673722E1
6.427370000E-1,-1.106723557E1,-2.358495483E0,2.161355438E0,1.152031516E1
6.527800000E-1,-1.051114197E1,-2.217339020E0,1.777104492E0,1.088847088E1
6.628230000E-1,-1.014530273E1,-1.877096558E0,1.067130890E0,1.037253235E1
6.728660000E-1,-9.995164948E0,-1.781894531E0,3.912863159E-1,1.016029406E1
6.829090000E-1,-9.568701782E0,-2.074086914E0,4.339476013E-1,9.800520437E0
6.929510001E-1,-8.891809387E0,-2.423310699E0,-7.485932922E-1,9.246464235E0
7.029940001E-1,-8.251590729E0,-3.161575470E0,-1.704206085E0,8.999368166E0
7.130370000E-1,-7.318131866E0,-4.026925964E0,-1.019679565E0,8.414923241E0
7.230800000E-1,-5.171296234E0,-5.905669098E0,-6.325845337E-1,7.875239389E0
7.331220000E-1,-3.046165466E0,-8.023764496E0,-8.436456299E-1,8.623900433E0
7.431650000E-1,-2.598446503E0,-8.625662842E0,4.420307922E-1,9.019388832E0
7.532080000E-1,-3.896547089E0,-8.258027344E0,1.420545959E0,9.240998087E0
7.632510000E-1,-4.865033112E0,-7.145540771E0,1.904190216E0,8.851736579E0
7.732940000E-1,-5.081932068E0,-6.522236938E0,1.738933868E0,8.449230688E0
7.833360001E-1,-5.123096466E0,-6.152505798E0,1.112336884E0,8.083114396E0
7.933790000E-1,-5.249882812E0,-6.127058716E0,2.445913696E-1,8.072294778E0
8.034220000E-1,-5.135969696E0,-4.815785522E0,8.943901062E-1,7.097176099E0
8.134650000E-1,-1.148411865E1,-2.969973907E0,1.076261902E-1,1.186243270E1
8.235070000E-1,-9.369166718E0,-4.115391998E0,-7.568261719E-1,1.026111700E1
8.335500000E-1,-7.663164368E0,-4.841382294E0,-4.837939453E-1,9.077286336E0
8.435930000E-1,-8.713380432E0,-5.917943573E0,1.925595703E0,1.070761288E1
8.536360000E-1,-9.954150238E0,-5.433850250E0,4.065695343E0,1.204747750E1
8.636790001E-1,-1.157183624E1,-3.510649567E0,4.091292114E0,1.276599881E1
8.737210000E-1,-1.430155975E1,-1.368304596E0,2.311493225E0,1.455162774E1
8.837640000E-1,-1.552795944E1,-1.249002686E0,2.824476471E0,1.583209397E1
8.938070000E-1,-1.294238617E1,-2.590513000E0,3.695814514E0,1.370675608E1
9.038500000E-1,-1.005938141E1,-4.465962982E0,2.722987518E0,1.133801749E1
9.138930000E-1,-9.986632690E0,-5.331762543E0,2.784210205E0,1.165814525E1
9.239350000E-1,-8.828790436E0,-6.289021912E0,1.880389709E0,1.100160000E1
9.339780000E-1,-8.071215820E0,-5.676046600E0,8.934919739E-1,9.907590915E0
9.440210001E-1,-8.464298401E0,-4.579427032E0,-9.909393311E-2,9.624204849E0
9.540640000E-1,-9.671388245E0,-3.986510010E0,8.532257080E-3,1.046078799E1
9.641060000E-1,-9.968071289E0,-4.457730103E0,5.029541016E-1,1.093100022E1
9.741490000E-1,-9.472751312E0,-5.678591309E0,1.515897675E0,1.114797571E1
9.841923333E-1,-8.080646210E0,-6.514902191E0,2.787952423E0,1.074771941E1
9.942353333E-1,-6.894662476E0,-6.991660767E0,2.472558289E0,1.012586961E1
1.004277333E0,-5.151387634E0,-6.744524689E0,1.518592072E0,8.621573506E0
1.014320333E0,-3.918102264E0,-6.494544525E0,1.334624634E0,7.701419146E0
1.024363333E0,-4.037404175E0,-6.234235840E0,1.563947754E0,7.590274142E0
1.034406333E0,-2.783012695E0,-7.107220459E0,1.061293030E0,7.706107007E0
1.044449333E0,-2.813698883E0,-7.837851105E0,1.316661987E0,8.431038497E0
1.054491333E0,-7.221283264E0,-6.325396271E0,3.209475861E0,1.012216900E1
1.064534333E0,-1.060799057E1,-4.726720734E0,3.301684113E0,1.207362708E1
1.074577333E0,-1.064795746E1,-5.470374298E0,1.082099762E0,1.201977258E1
1.084620333E0,-1.200668198E1,-5.417384491E0,-7.559280396E-1,1.319393399E1
1.094662333E0,-1.568273758E1,-4.407584381E0,-1.531165924E0,1.636213700E1
1.104705333E0,-1.805784851E1,-4.515210571E0,-1.602268066E0,1.868261979E1
1.114748333E0,-2.122840530E1,-4.292174377E0,7.948471069E-2,2.165812251E1
1.124791333E0,-2.203896973E1,-3.773053894E0,3.951782227E-1,2.236310104E1
1.134834333E0,-1.974588821E1,-3.923640747E0,1.076710968E0,2.016071339E1
1.144876333E0,-1.717049377E1,-3.932023315E0,4.073778534E0,1.807988759E1
1.154919333E0,-1.471619751E1,-6.017785950E0,6.395450592E0,1.713715277E1
1.164962333E0,-1.273970764E1,-6.038143616E0,8.753047943E0,1.659443212E1
1.175005333E0,-7.107519836E0,-5.646857300E0,5.699398041E0,1.071853412E1
1.185047333E0,-6.194867706E0,-5.936954041E0,1.944306793E0,8.797962155E0
1.195090333E0,-6.089337158E0,-3.610791321E0,1.585203552E0,7.254702702E0
1.205133333E0,-4.029021606E0,-2.815046082E0,-1.450932770E0,5.124715158E0
1.215176333E0,-2.109862518E0,-3.038231964E0,-3.979624329E0,5.433211123E0
1.225219333E0,3.728746033E-1,-2.438728638E0,-5.363346863E0,5.903551677E0
1.235261333E0,3.709436188E0,-2.632425842E0,-7.115153961E0,8.444820811E0
1.245304333E0,3.577859802E0,-2.203867035E0,-3.635939026E0,5.556812330E0
1.255347333E0,1.605112152E0,-2.647993469E0,-9.372010803E-1,3.235212559E0
1.265390333E0,4.345463562E-1,-3.025957489E0,1.380429382E0,3.354226370E0
1.275433333E0,-5.231620789E-1,-2.660567322E0,4.102518768E0,4.917619066E0
1.285475333E0,-1.278491364E0,-1.220561829E0,4.217479706E0,4.572903499E0
1.295518333E0,9.445358276E-2,-9.053173828E-1,1.993554382E0,2.191524610E0
1.305561333E0,2.138902130E0,-1.554367676E0,2.202370148E0,3.441132875E0
1.315604333E0,3.053949280E0,-2.857407990E0,1.011296997E0,4.302802370E0
1.325646333E0,3.166365509E0,-4.148473206E0,1.373394012E0,5.396472143E0
1.335689333E0,2.161056061E0,-6.461762695E0,3.318299561E0,7.578631301E0
1.345732333E0,-1.762135620E0,-9.384285278E0,4.309538269E0,1.047578409E1
1.355775333E0,-3.071462860E0,-1.058478882E1,4.234244843E0,1.180679753E1
1.365817333E0,-3.856580200E0,-1.110435837E1,2.341281281E0,1.198589102E1
1.375860333E0,-8.121660919E0,-1.051039352E1,-1.991159363E0,1.343110061E1
1.385903333E0,-1.221235428E1,-1.266276764E1,-6.748865662E0,1.884235837E1
1.395946333E0,-1.996548157E1,-1.597852249E1,-4.694238281E0,2.599941361E1
1.405989333E0,-2.644221313E1,-1.250978577E1,-2.043251038E-1,2.925281395E1
1.416031333E0,-2.255868896E1,-7.351811829E0,-5.180726624E0,2.428545889E1
1.426074333E0,-1.727961685E1,-9.208850098E0,-1.096918945E1,2.244351122E1
1.436117333E0,-1.708666809E1,-1.372645569E1,-1.122695343E1,2.462548062E1
1.446160333E0,-1.731599121E1,-1.467727844E1,-9.073232117E0,2.444564573E1
1.456202333E0,-1.718875580E1,-1.294552963E1,-7.624544678E0,2.282923006E1
1.466245333E0,-1.706466385E1,-1.093670700E1,-7.324119415E0,2.155126533E1
1.476288333E0,-1.392599075E1,-7.187004547E0,-5.553900604E0,1.662624626E1
1.486331333E0,-9.180708618E0,-5.645959167E0,-4.178860016E0,1.155963393E1
1.496374333E0,-7.520660706E0,-6.317762146E0,-3.551364899E0,1.044445540E1
1.506416333E0,-8.038883057E0,-6.606960754E0,-3.237168274E0,1.089746896E1
1.516459333E0,-8.154592438E0,-6.712191925E0,-2.736160126E0,1.091042944E1
1.526502333E0,-7.938292236E0,-7.326813812E0,-1.278940430E0,1.087816036E1
1.536545333E0,-7.842940521E0,-7.438930664E0,-4.837939453E-1,1.082051117E1
1.546587333E0,-5.319787445E0,-7.073540497E0,-3.397933960E-2,8.850777831E0
1.556630333E0,-1.399739227E0,-6.127807159E0,1.430425415E0,6.446348374E0
1.566673333E0,2.062860260E0,-4.915178833E0,3.547472992E0,6.403041468E0
1.576716333E0,3.176843719E0,-8.864715729E0,5.986950073E0,1.115881231E1
1.586759333E0,4.681065674E0,-1.351868774E1,6.001469879E0,1.551402381E1
1.596801333E0,8.143216095E0,-1.135239258E1,5.740113373E0,1.510422746E1
1.606844333E0,8.727900238E0,-6.830595703E0,5.858217773E0,1.253602791E1
1.616887333E0,6.221063232E0,-2.318977661E0,5.040767670E0,8.335983675E0
1.626930333E0,2.396217041E0,7.964936829E-1,4.038152618E0,4.762660482E0
1.636972333E0,-2.989134064E0,1.177750854E0,2.470312958E0,4.052710900E0
1.647015333E0,-7.443870392E0,6.195616150E-1,1.077160034E0,7.546875959E0
1.657058333E0,-9.940079498E0,-1.198856964E0,5.884263611E-1,1.002939101E1
1.667101333E0,-1.006477020E1,-4.346062317E0,3.993695068E-1,1.097029411E1
1.677144333E0,-9.087302856E0,-7.314838715E0,1.254391479E-1,1.166626220E1
1.687186333E0,-8.971294098E0,-8.505462799E0,-1.579216003E-1,1.236333104E1
1.697229333E0,-9.073980560E0,-9.472451935E0,-5.816903687E-1,1.313022591E1
1.707272333E0,-8.605305176E0,-1.068283493E1,-5.200186157E-1,1.372751466E1
1.717315333E0,-7.624844055E0,-1.152453461E1,7.604187012E-2,1.381878892E1
1.727357333E0,-7.103478241E0,-1.169009033E1,3.429368591E-1,1.368339215E1
1.737400333E0,-6.053711243E0,-1.010338989E1,2.441423035E-1,1.178072632E1
1.747443333E0,-4.217928772E0,-6.980434113E0,1.197509766E-1,8.156698096E0
1.757486333E0,-3.431164856E0,-4.844525757E0,-2.260299683E-2,5.936567440E0
1.767529333E0,-2.631677399E0,-2.928210754E0,-4.252656555E-1,3.959923614E0
1.777571333E0,-1.722917175E0,-1.301393738E0,-8.508306885E-1,2.320771879E0
1.787614333E0,-2.585722961E0,-3.688180389E0,-4.912783813E-1,4.531003450E0
1.797657333E0,-3.997437286E0,-7.930059357E0,-9.580078125E-3,8.880621489E0
1.807700333E0,-4.863985291E0,-1.016715729E1,1.815724182E-1,1.127219627E1
1.817742333E0,-5.305567017E0,-1.036983582E1,8.128097534E-2,1.164856827E1
1.827785333E0,-6.145620117E0,-1.110810059E1,1.230441284E-1,1.269541985E1
1.837828333E0,-7.457492065E0,-1.142618912E1,-3.978726196E-1,1.365028528E1
1.847871333E0,-8.981323242E0,-1.259391083E1,-1.255439301E0,1.551924241E1
1.857914333E0,-9.471703491E0,-1.622970016E1,-3.003953247E0,1.902997818E1
1.867956333E0,-7.897277527E0,-2.472543320E1,-9.479487305E0,2.763285578E1
1.877999333E0,-8.341853027E0,-2.576547043E1,-4.217629395E0,2.740865513E1
1.888042333E0,-8.727750549E0,-2.145159119E1,4.969665527E-1,2.316444193E1
1.898085333E0,-4.362378387E0,-1.457833420E1,3.622017975E0,1.564216057E1
1.908127333E0,6.912625122E-1,-9.153165894E0,4.873715057E0,1.039285275E1
1.918170333E0,3.424428864E0,-7.166347504E0,5.921236725E0,9.906780200E0
1.928213333E0,5.776637421E0,-5.760620728E0,5.665119324E0,9.932163310E0
1.938256333E0,6.665638733E0,-4.149670715E0,4.322261810E0,8.962837381E0
1.948299333E0,7.171436920E0,-3.182681580E0,6.552773438E0,1.022241700E1
1.958341333E0,5.264701996E0,-2.297272797E0,5.013374634E0,7.624203213E0
1.968384333E0,2.101929016E0,-8.632548523E-1,2.858306122E0,3.651469350E0
1.978427250E0,-8.253836060E-1,1.838177490E-1,1.024768982E0,1.328607741E0
1.988470250E0,-2.072889404E0,-3.939807129E-1,1.687141571E0,2.701580642E0
1.998512250E0,-1.674717407E0,-1.792223053E0,2.642305298E0,3.605345913E0
2.008555250E0,-1.202299805E0,-3.096011810E0,3.289709015E0,4.674719174E0
2.018598250E0,-8.512797546E-1,-4.436773682E0,4.439617767E0,6.334022722E0
2.028641250E0,-9.318122864E-1,-5.215005341E0,5.175038452E0,7.405780028E0
2.038684250E0,-1.251697083E0,-5.945635986E0,4.962630157E0,7.845064114E0
2.048726250E0,-2.180216217E0,-9.356143799E0,4.538711700E0,1.062500228E1
2.058769250E0,-3.610342255E0,-1.300121384E1,4.215833130E0,1.413645576E1
2.068812250E0,-3.748504944E0,-1.576701233E1,3.691623230E0,1.662161392E1
2.078855250E0,-2.913092194E0,-1.749546799E1,2.165397034E0,1.786802873E1
2.088897250E0,-2.580184479E0,-1.866603378E1,2.040556641E0,1.895368145E1
2.098940250E0,-1.493294678E0,-1.904953629E1,1.951940918E0,1.920741615E1
2.108983250E0,-7.813751221E-2,-1.839449844E1,1.359622650E0,1.844484351E1
2.119026250E0,1.254690857E0,-1.649150574E1,-5.986051941E-1,1.654999513E1
2.129068250E0,2.400707703E0,-1.355027206E1,-2.742896118E0,1.403199022E1
2.139111250E0,4.047433319E0,-9.799372101E0,-3.930526428E0,1.130745100E1
2.149154250E0,6.185587006E0,-7.964188385E0,-3.929927673E0,1.082285151E1
2.159197250E0,7.209158478E0,-7.897576904E0,-3.313659210E0,1.119482132E1
2.169240250E0,7.559430084E0,-8.160130920E0,-2.891686707E0,1.149324027E1
2.179282250E0,7.273674316E0,-8.383316803E0,-2.556683350E0,1.138959913E1
2.189325250E0,5.953868866E0,-8.955277405E0,-2.308050385E0,1.099875650E1
2.199368250E0,4.949008484E0,-1.006985962E1,-3.032843170E0,1.162294693E1
2.209411250E0,3.388054504E0,-1.146660507E1,-3.422931976E0,1.243697747E1
2.219453250E0,2.017803955E0,-1.302172119E1,-3.523822174E0,1.364016416E1
2.229496250E0,8.830137634E-1,-1.434886139E1,-3.203638000E0,1.472863989E1
2.239539250E0,-2.363584900E-1,-1.558723618E1,-2.930306396E0,1.586204566E1
2.249582250E0,-1.253044281E0,-1.663415909E1,-3.409310303E0,1.702612009E1
2.259625250E0,-2.285746765E0,-1.709999039E1,-5.409750366E0,1.808036804E1
2.269667250E0,-2.303859100E0,-1.691737015E1,-7.304959259E0,1.857061144E1
2.279710250E0,-8.357121277E-1,-1.558005112E1,-5.216202850E0,1.645129721E1
2.289753250E0,2.585124207E-1,-1.447938995E1,-2.031425629E0,1.462348290E1
2.299796250E0,1.031504974E0,-1.400532578E1,-1.634600830E-1,1.404421133E1
2.309838250E0,1.628762970E0,-1.412163391E1,1.477577362E0,1.429183851E1
2.319881250E0,2.821931763E0,-1.428943497E1,3.720812531E0,1.503315324E1
2.329924250E0,2.841540985E0,-1.496812363E1,5.870492249E0,1.632733167E1
2.339967250E0,1.332528992E0,-1.645213760E1,7.123686218E0,1.797763529E1
2.350010250E0,5.081932068E-1,-1.731973343E1,6.519392853E0,1.851307402E1
2.360052250E0,6.563850403E-1,-1.705822723E1,5.160518646E0,1.783381368E1
2.370095250E0,9.475296021E-1,-1.568019287E1,4.309837646E0,1.628928977E1
2.380138250E0,-3.113525391E-2,-1.400143387E1,3.862717438E0,1.452452085E1
2.390181250E0,-2.167792053E0,-1.274794052E1,2.758314056E0,1.322186093E1
2.400223250E0,-4.427492981E0,-1.197315170E1,1.287472687E0,1.283030170E1
2.410266250E0,-4.719086609E0,-1.110570557E1,1.799108734E0,1.220013388E1
2.420309250E0,-3.143762512E0,-1.067505112E1,2.587668915E0,1.142523477E1
2.430352250E0,-1.535806274E0,-1.025981461E1,2.883453827E0,1.076739535E1
2.440395250E0,-2.040257263E-1,-9.519603882E0,3.265908508E0,1.006631228E1
2.450437250E0,5.526507568E-1,-8.723858643E0,3.486849060E0,9.411123676E0
2.460480250E0,9.289682007E-1,-7.870483246E0,3.388653259E0,8.619191340E0
2.470523250E0,8.897497559E-1,-7.080126801E0,3.599414978E0,7.992223616E0
2.480566250E0,6.535409546E-1,-6.333030396E0,3.857328644E0,7.444015988E0
2.490608250E0,6.638694763E-1,-5.807024231E0,3.816164246E0,6.980355482E0
2.500651250E0,7.912545776E-1,-5.342240753E0,3.859573975E0,6.637916189E0
2.510694250E0,1.136885834E0,-4.920417938E0,4.022285614E0,6.456144643E0
2.520737250E0,1.627565460E0,-4.487368469E0,4.000580750E0,6.228169188E0
2.530779250E0,2.242636414E0,-4.066294098E0,3.778891754E0,5.987001642E0
2.540822250E0,2.858605499E0,-3.620221710E0,3.539988556E0,5.814563578E0
2.550865250E0,3.258873138E0,-3.121159515E0,3.369642792E0,5.631730054E0
2.560908250E0,3.517086182E0,-2.527643738E0,3.226989441E0,5.401142372E0
2.570951250E0,3.666625214E0,-1.995650024E0,2.808459778E0,5.031322470E0
2.580993250E0,3.676804047E0,-1.514700165E0,1.931732941E0,4.420949755E0
2.591036250E0,3.457510071E0,-1.021625519E0,8.767268372E-1,3.710356390E0
2.601079250E0,3.278632050E0,-9.617500305E-1,9.834548950E-2,3.418195880E0
2.611122250E0,3.071462860E0,-1.379980316E0,-2.763253784E-1,3.378547837E0
2.621164250E0,2.885250092E0,-2.587668915E0,-7.586224365E-1,3.949203275E0
2.631207250E0,2.024989014E0,-5.195994873E0,-4.529880066E0,7.184619450E0
2.641250250E0,-7.958949280E-1,-9.044940948E0,-1.442969330E1,1.704876694E1
2.651293250E0,-6.415508881E0,-1.405083115E1,-2.135129974E1,2.635265852E1
2.661336250E0,-1.185355042E1,-1.867441635E1,-1.565070419E1,2.709584886E1
2.671378250E0,-1.296873138E1,-2.284639069E1,-8.254434814E0,2.753690715E1
2.681421250E0,-1.087817871E1,-2.478306335E1,-4.705165558E0,2.747132294E1
2.691464250E0,-7.316185913E0,-2.253399033E1,-3.604953461E0,2.396461946E1
2.701507250E0,-6.315666504E0,-1.711900085E1,-2.276915131E0,1.838837068E1
2.711549250E0,-6.738088074E0,-1.136661301E1,-1.283880157E0,1.327592070E1
2.721592250E0,-5.292544098E0,-7.750432892E0,-6.616241455E-1,9.408399415E0
2.731635250E0,-2.751128998E0,-5.005890198E0,3.670367432E-1,5.723841665E0
2.741678250E0,-5.138813782E-1,-3.131488037E0,2.140249329E0,3.827657062E0
2.751720250E0,7.803273010E-1,-2.987188110E0,3.521876221E0,4.683568684E0
2.761763250E0,1.658401337E0,-5.219945068E0,3.624113617E0,6.567520157E0
2.771806250E0,1.944456482E0,-8.529862061E0,3.411405945E0,9.390268809E0
2.781849250E0,1.989363098E0,-1.215023346E1,3.173550568E0,1.271444697E1
2.791892250E0,1.382674713E0,-1.614183289E1,9.497749329E-1,1.622875937E1
2.801934250E0,-4.565505981E-2,-2.162298477E1,-7.960895233E0,2.304194887E1
2.811977250E0,1.035696259E0,-2.347418518E1,-7.809709625E0,2.476088854E1
2.822020250E0,2.876867523E0,-1.875884079E1,-1.543290710E-1,1.897878531E1
2.832063250E0,3.985911255E0,-1.283550842E1,3.393592987E0,1.386197094E1
2.842105250E0,4.782105560E0,-8.737031250E0,4.967719574E0,1.113025096E1
2.852148250E0,5.351521454E0,-6.438261566E0,4.720882874E0,9.611281339E0
2.862191250E0,5.365442505E0,-5.636678467E0,3.649261322E0,8.595186188E0
2.872234250E0,4.893473969E0,-5.734574890E0,2.637964325E0,7.986882523E0
2.882277250E0,4.341421967E0,-6.211782532E0,1.875899048E0,7.807252023E0
2.892319250E0,3.689228210E0,-6.708300018E0,1.474284210E0,7.796486892E0
2.902362250E0,2.954406281E0,-7.328161011E0,1.572030945E0,8.056161714E0
2.912405250E0,2.180365906E0,-7.918233948E0,2.251767426E0,8.516036688E0
2.922448250E0,1.635199585E0,-8.815767517E0,3.046464844E0,9.469560847E0
2.932490250E0,1.056203613E0,-9.780211945E0,3.776796112E0,1.053718656E1
2.942533250E0,4.423301697E-1,-1.023167313E1,4.361480255E0,1.113127580E1
2.952576250E0,-1.796264648E-1,-1.016176849E1,4.604724426E0,1.115783544E1
2.962619250E0,-7.149133301E-1,-9.944121094E0,4.396507416E0,1.089614257E1
2.972661250E0,-1.181792450E0,-9.902058563E0,3.888164520E0,1.070351440E1
2.982703833E0,-1.696272583E0,-9.907746735E0,3.294049988E0,1.057788029E1
2.992746833E0,-2.383493500E0,-9.893526306E0,3.204985199E0,1.066934085E1
3.002789833E0,-3.709735565E0,-1.016476227E1,3.268153839E0,1.130333400E1
3.012832833E0,-5.506898346E0,-1.081051941E1,2.286644897E0,1.234593067E1
3.022874833E0,-6.785090332E0,-1.125015518E1,1.226399689E0,1.319498005E1
3.032917833E0,-7.167545013E0,-1.093850327E1,4.887336731E-1,1.308676491E1
3.042960833E0,-6.784641266E0,-1.033361115E1,-1.529818726E-1,1.236277800E1
3.053003833E0,-6.179599457E0,-9.713600464E0,-6.994953918E-1,1.153389688E1
3.063045833E0,-5.157225494E0,-9.180109863E0,-1.074765015E0,1.058425773E1
3.073088833E0,-3.827540588E0,-8.441994781E0,-1.056053925E0,9.329126044E0
3.083131833E0,-2.432292023E0,-7.673792267E0,-9.484277344E-1,8.105716958E0
3.093174833E0,-1.467997284E0,-7.269782410E0,-7.150630188E-1,7.450910510E0
3.103216833E0,-7.884104919E-1,-7.307054901E0,-5.664221191E-1,7.371260167E0
3.113259833E0,-1.893562317E-1,-7.855214996E0,-5.451663208E-1,7.876386528E0
3.123302833E0,2.228865051E-1,-8.943901062E0,-7.707472229E-1,8.979816027E0
3.133345833E0,4.352947998E-1,-9.925410004E0,-9.945318604E-1,9.984605096E0
3.143388833E0,4.730163574E-1,-1.030172745E1,-1.198707275E0,1.038201483E1
3.153430833E0,1.182540894E-2,-9.912237396E0,-1.583706665E0,1.003796378E1
3.163473833E0,-1.142274628E0,-9.513466644E0,-1.955234070E0,9.779252486E0
3.173516833E0,-2.288291473E0,-9.674531708E0,-1.905537415E0,1.012244607E1
3.183559833E0,-2.945424957E0,-1.010638367E1,-1.481319580E0,1.063056098E1
3.193601833E0,-2.926863556E0,-1.061367874E1,-9.680369568E-1,1.105232113E1
3.203644833E0,-2.581531677E0,-1.109582611E1,-3.670367432E-1,1.139808663E1
3.213687833E0,-2.515818329E0,-1.168634811E1,5.545967102E-1,1.196693994E1
3.223730833E0,-3.176694031E0,-1.235291199E1,1.365460510E0,1.282771616E1
3.233773833E0,-3.511248322E0,-1.276186157E1,1.483564911E0,1.331896919E1
3.243815833E0,-3.250340881E0,-1.267788620E1,1.144519958E0,1.313786285E1
3.253858833E0,-2.967728577E0,-1.233958969E1,4.302053833E-1,1.269873865E1
3.263901833E0,-2.601589966E0,-1.175340866E1,-8.605604553E-1,1.206861425E1
3.273944833E0,-3.017425232E0,-1.154953262E1,-2.642904053E0,1.222626274E1
3.283986833E0,-5.509293365E0,-1.217642899E1,-4.877756653E0,1.422709549E1
3.294029833E0,-7.714657288E0,-1.234812195E1,-7.286098480E0,1.628125560E1
3.304072833E0,-7.946974182E0,-1.224917770E1,-7.071295166E0,1.622343886E1
3.314115833E0,-6.915469208E0,-1.233300339E1,-3.083138580E0,1.447178049E1
3.324157833E0,-6.480174408E0,-1.316497330E1,-5.767506409E-1,1.468474799E1
3.334200833E0,-6.401887207E0,-1.449735260E1,5.020559692E-1,1.585589646E1
3.344243833E0,-5.598956909E0,-1.603884705E1,1.673370209E0,1.707024021E1
3.354286833E0,-4.154460754E0,-1.716630249E1,2.818488922E0,1.788533939E1
3.364329833E0,-2.281256104E0,-1.734263580E1,3.194656677E0,1.778136601E1
3.374371833E0,-1.088237000E0,-1.741583359E1,3.258424072E0,1.775141816E1
3.384414833E0,-2.236349487E-1,-1.800994812E1,3.328328705E0,1.831627735E1
3.394457833E0,6.074368286E-1,-1.892978531E1,3.368594971E0,1.923676645E1
3.404500833E0,1.477427673E0,-2.002954834E1,3.596570892E0,2.040345366E1
3.414542833E0,2.864742737E0,-2.078712296E1,3.922742615E0,2.134711084E1
3.424585833E0,4.444258118E0,-2.012325348E1,4.272116089E0,2.104632359E1
3.434628833E0,5.386398926E0,-1.759306503E1,4.203109589E0,1.887313861E1
3.444671833E0,5.338498535E0,-1.413690216E1,4.283342743E0,1.570664173E1
3.454713833E0,4.660408630E0,-1.097143478E1,4.302053833E0,1.267278411E1
3.464756833E0,3.736679535E0,-8.793613586E0,3.816763000E0,1.028873625E1
3.474799833E0,2.802621918E0,-7.166497192E0,3.304977264E0,8.374738583E0
3.484842833E0,2.037413177E0,-6.170169067E0,2.992876282E0,7.153974225E0
3.494885833E0,1.777104492E0,-5.398224335E0,2.476001129E0,6.199153808E0
3.504927833E0,1.467548218E0,-4.783153381E0,2.343676300E0,5.524950012E0
3.514970833E0,1.153650970E0,-4.105362854E0,2.701432343E0,5.048034412E0
3.525013833E0,8.750802612E-1,-3.599115601E0,3.054398346E0,4.800911145E0
3.535056833E0,7.283853149E-1,-3.442241821E0,3.245101776E0,4.786466281E0
3.545098833E0,8.220904541E-1,-3.678450623E0,3.530857544E0,5.164667143E0
3.555141833E0,1.364861755E0,-3.974684601E0,3.529510345E0,5.488024104E0
3.565184833E0,2.021995239E0,-3.996389465E0,3.662134552E0,5.785397392E0
3.575227833E0,2.920426941E0,-3.747157745E0,3.573518829E0,5.944755799E0
3.585269833E0,3.824397125E0,-3.380719757E0,3.297941895E0,6.077145727E0
3.595312833E0,4.412673798E0,-2.986589355E0,3.237168274E0,6.234634268E0
3.605355833E0,4.911286926E0,-2.623893585E0,3.278182983E0,6.461581888E0
3.615398833E0,5.253026276E0,-2.194885712E0,3.097359009E0,6.481160480E0
3.625441833E0,5.399421844E0,-1.755399628E0,2.570454712E0,6.232368854E0
3.635483833E0,5.197192383E0,-1.576671295E0,1.979184265E0,5.780473284E0
3.645526833E0,4.812941437E0,-1.825753326E0,1.597777405E0,5.389867635E0
3.655569833E0,4.323309631E0,-2.698438568E0,1.317111053E0,5.263777959E0
3.665612833E0,2.956501923E0,-4.969066772E0,-1.781295776E-1,5.784830019E0
3.675654833E0,5.580395508E-1,-8.201445007E0,-5.999673615E0,1.017699326E1
3.685697833E0,-6.228996735E0,-1.379636032E1,-2.594913849E1,3.004160027E1
3.695740833E0,-1.567285812E1,-2.022055115E1,-2.777459244E1,3.776158306E1
3.705783833E0,-1.930011520E1,-2.506387939E1,-8.331823883E0,3.271256313E1
3.715826833E0,-1.960413300E1,-2.795541641E1,-2.582130432E0,3.424171045E1
3.725868833E0,-1.336825058E1,-2.530891983E1,-3.279081116E0,2.880978861E1
3.735911833E0,-6.286776581E0,-1.742631180E1,-3.251388702E0,1.880881259E1
3.745954833E0,-5.684578857E0,-1.043180695E1,-2.216740265E0,1.208515496E1
3.755997833E0,-4.586612091E0,-6.635700989E0,-1.305734711E0,8.171565408E0
3.766039833E0,-2.498753815E0,-4.463717651E0,-2.639012146E-1,5.122322691E0
3.776082833E0,-2.347119141E-1,-3.934118958E0,2.532733154E-1,3.949244108E0
3.786125833E0,1.687291260E0,-5.789510651E0,1.169068909E0,6.142646619E0
3.796168833E0,2.487676849E0,-8.468938751E0,2.424657898E0,9.153711029E0
3.806210833E0,2.767145691E0,-1.139041351E1,3.228785706E0,1.215827588E1
3.816253833E0,2.565964050E0,-1.399155441E1,3.517086182E0,1.465324748E1
3.826296833E0,2.191742249E0,-1.624661499E1,2.012564850E0,1.651685957E1
3.836339833E0,4.090992737E-1,-1.837997864E1,-2.430046692E0,1.854443593E1
3.846381833E0,-6.779402161E-1,-1.607207794E1,-2.195933533E0,1.623556024E1
3.856424833E0,1.061592407E0,-1.151151169E1,3.667373657E-2,1.156041629E1
3.866467833E0,2.402054901E0,-8.759933624E0,1.438807983E0,9.196546812E0
3.876510833E0,3.189118195E0,-7.198231201E0,2.213297424E0,8.178245091E0
3.886553833E0,3.638483734E0,-6.503525848E0,2.211650848E0,7.773404133E0
3.896595833E0,3.720662842E0,-6.500232697E0,1.778152313E0,7.697933667E0
3.906638833E0,3.378474426E0,-6.992109833E0,1.424737244E0,7.895160896E0
3.916681833E0,2.659220123E0,-7.688312073E0,1.359472961E0,8.248015575E0
3.926724833E0,2.107168121E0,-8.469986572E0,1.703457642E0,8.892839702E0
3.936766833E0,1.722767487E0,-9.195228424E0,2.338137817E0,9.642978898E0
3.946809833E0,1.417552185E0,-9.851763153E0,3.097059631E0,1.042393735E1
3.956852833E0,9.738748169E-1,-1.055604858E1,3.797902222E0,1.126066850E1
3.966895833E0,4.361929321E-1,-1.108385101E1,4.188889160E0,1.185701522E1
3.976937833E0,-9.370513916E-2,-1.117800522E1,4.176315308E0,1.193307131E1
3.986981083E0,-6.735992432E-1,-1.098580490E1,3.964206390E0,1.169857160E1
3.997024083E0,-1.157243500E0,-1.062819855E1,3.622017975E0,1.128790641E1
4.007067083E0,-1.604363708E0,-1.016655853E1,3.392096100E0,1.083693736E1
4.017110083E0,-2.178569641E0,-9.723479919E0,3.094365234E0,1.043395053E1
4.027152083E0,-3.170706482E0,-9.359886017E0,2.372865601E0,1.016323457E1
4.037195083E0,-4.404440918E0,-9.622589722E0,1.321302338E0,1.066485690E1
4.047238083E0,-5.424719238E0,-9.812544708E0,3.317102051E-1,1.121711389E1
4.057281083E0,-5.625601501E0,-9.487271118E0,-6.120771790E-1,1.104673454E1
4.067323083E0,-5.611231384E0,-9.193132782E0,-8.502319336E-1,1.080381888E1
4.077366083E0,-4.891078949E0,-8.541837158E0,-7.616162109E-1,9.872471554E0
4.087409083E0,-3.887266388E0,-7.822133789E0,-7.490423584E-1,8.766851284E0
4.097452083E0,-3.239862671E0,-7.539072418E0,-5.773493958E-1,8.226035216E0
4.107494083E0,-2.827470245E0,-7.439679108E0,-2.592608643E-1,7.963079141E0
4.117537083E0,-2.310894470E0,-7.578739929E0,-7.484436035E-3,7.923230918E0
4.127580083E0,-1.759291534E0,-7.839946747E0,1.637594604E-1,8.036584402E0
4.137623083E0,-1.405876465E0,-8.137976990E0,2.969824219E-1,8.263858462E0
4.147665083E0,-1.104253693E0,-8.330177307E0,4.366419983E-1,8.414385683E0
4.157708083E0,-8.800199890E-1,-8.591683502E0,4.917274475E-1,8.650621739E0
4.167751083E0,-7.750881958E-1,-9.038953400E0,3.766168213E-1,9.079938353E0
4.177794083E0,-6.248007202E-1,-9.295519867E0,2.088157654E-1,9.318834131E0
4.187837083E0,-6.415658569E-1,-9.476044464E0,3.293151855E-3,9.497738482E0
4.197879083E0,-7.536827087E-1,-9.624086609E0,-3.736230469E-1,9.660780241E0
4.207922083E0,-1.057700500E0,-9.699080658E0,-7.298822021E-1,9.783845051E0
4.217965083E0,-1.719624023E0,-9.934241638E0,-8.099656677E-1,1.011446035E1
4.228008083E0,-2.456840973E0,-1.032702484E1,-5.770500183E-1,1.063092171E1
4.238050083E0,-2.959944763E0,-1.056892181E1,-1.951940918E-1,1.097731671E1
4.248093083E0,-3.220253448E0,-1.095646591E1,2.299218750E-1,1.142221702E1
4.258136083E0,-3.509002991E0,-1.143157791E1,1.244512024E0,1.202259896E1
4.268179083E0,-4.427492981E0,-1.177960419E1,1.885928192E0,1.272471980E1
4.278221083E0,-4.865781555E0,-1.202045334E1,8.750802612E-1,1.299741875E1
4.288264083E0,-5.532644806E0,-1.212987579E1,-1.197509766E-3,1.333206836E1
4.298307083E0,-6.993157654E0,-1.280167877E1,-1.395847321E0,1.465386035E1
4.308350083E0,-9.238488464E0,-1.340522369E1,-4.904850311E0,1.700315406E1
4.318393083E0,-1.084015778E1,-1.338711136E1,-7.026837616E0,1.860376892E1
4.328435083E0,-9.045390015E0,-1.301259018E1,-3.835474091E0,1.630513555E1
4.338478083E0,-7.973020020E0,-1.296468979E1,-2.216740265E0,1.538070762E1
4.348521083E0,-8.380622406E0,-1.345207626E1,-2.571951599E0,1.605640441E1
4.358564083E0,-7.426955566E0,-1.452729034E1,-2.321672058E0,1.648004839E1
4.368606083E0,-5.017116852E0,-1.555146057E1,-1.566492462E0,1.641564151E1
4.378649083E0,-3.078797607E0,-1.604588242E1,-4.758604431E-1,1.634551255E1
4.388692083E0,-1.110690308E0,-1.651291122E1,1.012195129E0,1.658114619E1
4.398735083E0,5.240602112E-1,-1.703352859E1,1.893712006E0,1.714648304E1
4.408777083E0,1.642684021E0,-1.746732651E1,2.284848633E0,1.769255322E1
4.418820083E0,2.193837891E0,-1.834270615E1,2.349364471E0,1.862222615E1
4.428863083E0,2.632276154E0,-1.947540070E1,2.472258911E0,1.980737676E1
4.438906083E0,3.433709564E0,-2.029060547E1,3.337759094E0,2.084801351E1
4.448949083E0,4.870571594E0,-2.023342438E1,3.943549347E0,2.118172588E1
4.458991083E0,5.650300140E0,-1.811637680E1,4.274361420E0,1.945248482E1
4.469034083E0,5.109175415E0,-1.479732880E1,5.041815491E0,1.644641348E1
4.479077083E0,3.864513702E0,-1.187600372E1,5.615272980E0,1.369325459E1
4.489120083E0,2.332449646E0,-9.739047546E0,5.494923248E0,1.142293964E1
4.499162083E0,1.326242065E0,-8.143814850E0,4.796026611E0,9.543715711E0
4.509205083E0,1.203497314E0,-7.050039368E0,4.073928223E0,8.230938709E0
4.519248083E0,1.301393738E0,-6.395001526E0,2.763852539E0,7.087210385E0
4.529291083E0,1.099313965E0,-5.664071503E0,1.043330383E0,5.863338253E0
4.539333083E0,3.197351074E-1,-5.096900940E0,2.552192688E-1,5.113293127E0
4.549376083E0,-2.200424194E-1,-4.759502563E0,9.618997192E-1,4.860713362E0
4.559419083E0,-4.626878357E-1,-4.442461853E0,1.829196167E0,4.826541823E0
4.569462083E0,-1.972897339E-1,-4.271217957E0,2.540966034E0,4.973804827E0
4.579505083E0,2.924917603E-1,-4.365372162E0,3.184477844E0,5.411369945E0
4.589547083E0,1.148561554E0,-4.505480804E0,3.147055664E0,5.614491097E0
4.599590083E0,2.014810181E0,-4.614454193E0,2.818638611E0,5.770387438E0
4.609633083E0,2.680475922E0,-4.615202637E0,2.825524292E0,6.038926566E0
4.619676083E0,3.306324463E0,-4.431384888E0,2.718347168E0,6.161036017E0
4.629718083E0,3.894451447E0,-4.120631104E0,2.375410309E0,6.147269873E0
4.639761083E0,4.481680298E0,-3.802093506E0,2.001487885E0,6.208649376E0
4.649804083E0,4.817282410E0,-3.435505829E0,1.705553284E0,6.157744889E0
4.659847083E0,4.745581512E0,-3.150498505E0,1.377884674E0,5.860439480E0
4.669889083E0,4.214186554E0,-3.045716400E0,8.690927124E-1,5.271724466E0
4.679932083E0,3.187770996E0,-3.482657776E0,-2.113604736E-1,4.726040876E0
4.689975083E0,1.225800934E0,-4.668940887E0,-2.077529755E0,5.255257065E0
4.700018083E0,-8.653504944E-1,-6.334676971E0,-4.940476227E0,8.079930022E0
4.710060083E0,-3.428320770E0,-8.811426544E0,-1.089629105E1,1.442649575E1
4.720103083E0,-7.353757782E0,-1.182226547E1,-1.484238510E1,2.035043267E1
4.730146083E0,-1.059421921E1,-1.442714859E1,-1.004052063E1,2.052296644E1
4.740189083E0,-1.244257553E1,-1.699640579E1,-5.864205322E0,2.186514120E1
4.750232083E0,-1.377031448E1,-1.897109940E1,-5.339246979E0,2.404229048E1
4.760274083E0,-1.307336380E1,-1.840841949E1,-4.847519531E0,2.309288191E1
4.770317083E0,-9.986632690E0,-1.502425690E1,-4.200714569E0,1.852315121E1
4.780360083E0,-6.760092316E0,-1.102143082E1,-3.412902832E0,1.337231061E1
4.790403083E0,-5.342091064E0,-8.556356964E0,-2.583627319E0,1.041269953E1
4.800445083E0,-3.404220886E0,-6.816974030E0,-1.782343597E0,7.825382001E0
4.810488083E0,-1.216520233E0,-7.073390808E0,-8.351133728E-1,7.225662139E0
4.820531083E0,2.203417969E-1,-8.900341644E0,3.210823059E-1,8.908856590E0
4.830574083E0,8.219407654E-1,-1.093580887E1,1.300645294E0,1.104351305E1
4.840616083E0,7.752378845E-1,-1.320808365E1,2.076332245E0,1.339274516E1
4.850659083E0,1.896556091E-1,-1.550505707E1,3.303779755E0,1.585426519E1
4.860702083E0,2.330653381E-1,-1.798929108E1,3.811673584E0,1.839015412E1
4.870745083E0,-3.293151855E-3,-1.923021057E1,8.696914673E-1,1.924986682E1
4.880787083E0,-1.713037720E0,-1.552062469E1,-1.913021851E0,1.573162235E1
4.890830083E0,-5.647755432E-1,-1.051278854E1,-5.087919617E-1,1.054023546E1
4.900873083E0,8.702902222E-1,-7.763156433E0,5.818400574E-1,7.833424585E0
4.910916083E0,1.754950562E0,-6.101761322E0,9.916877747E-1,6.426102034E0
4.920959083E0,2.646346893E0,-5.295088806E0,1.247505798E0,6.049577511E0
4.931001083E0,3.349584503E0,-5.643414459E0,1.062191162E0,6.648014227E0
4.941044083E0,3.239114227E0,-6.814429321E0,8.729846191E-1,7.595420337E0
4.951087083E0,2.498304749E0,-7.922724609E0,9.726773071E-1,8.364041666E0
4.961130083E0,1.753303986E0,-8.970845032E0,1.594334564E0,9.278579533E0
4.971172083E0,1.465452576E0,-9.962832184E0,2.429897003E0,1.035905284E1
4.981214458E0,1.312770081E0,-1.083896027E1,3.097957764E0,1.134917474E1
4.991257458E0,8.583151245E-1,-1.138158188E1,3.705544281E0,1.200034038E1
5.001300458E0,2.263293457E-1,-1.130808472E1,4.177063751E0,1.205702561E1
5.011342458E0,-5.429209900E-1,-1.081022003E1,4.503385162E0,1.172331430E1
5.021385458E0,-3.504212952E0,-9.653874664E0,5.331912231E0,1.157178001E1
5.031428458E0,-4.472100220E0,-8.402776337E0,5.658383331E0,1.107355555E1
5.041471458E0,-2.067051544E0,-9.088650055E0,5.258714447E0,1.070188486E1
5.051513458E0,-1.983375549E0,-8.250842285E0,4.307442627E0,9.516524522E0
5.061556458E0,-1.950144653E0,-8.265062714E0,3.114273834E0,9.045055409E0
5.071599458E0,-1.904938660E0,-8.591982880E0,1.961071930E0,9.016471827E0
5.081642458E0,-2.065404968E0,-8.898246002E0,1.173559570E0,9.209881740E0
5.091685458E0,-2.136058044E0,-9.026080170E0,4.284091187E-1,9.285278756E0
5.101727458E0,-2.311193848E0,-8.815917206E0,-6.779402161E-1,9.139016146E0
5.111770458E0,-2.843037872E0,-8.423283691E0,-1.390159149E0,8.998172867E0
5.121813458E0,-3.501219177E0,-8.318800964E0,-1.441203003E0,9.139915279E0
5.131856458E0,-3.921694794E0,-8.355025635E0,-1.140328674E0,9.299811444E0
5.141898458E0,-3.860621796E0,-8.396190033E0,-8.222401428E-1,9.277741459E0
5.151941458E0,-3.156785431E0,-8.375383301E0,-7.469467163E-1,8.981662936E0
5.161984458E0,-2.274220734E0,-8.553213501E0,-8.268804932E-1,8.888941022E0
5.172027458E0,-1.791025543E0,-9.121132507E0,-7.978408813E-1,9.329489846E0
5.182069458E0,-1.375938721E0,-9.777068481E0,-7.762857056E-1,9.903882822E0
5.192112458E0,-8.578660583E-1,-1.024499542E1,-8.354127502E-1,1.031473605E1
5.202155458E0,-3.745211792E-1,-1.030247589E1,-9.454339600E-1,1.035254176E1
5.212198458E0,-3.294648743E-1,-9.904902649E0,-1.078956299E0,9.968941282E0
5.222240458E0,-9.177415466E-1,-9.371861115E0,-1.165925446E0,9.488593807E0
5.232283458E0,-1.797013092E0,-9.242679749E0,-9.509724426E-1,9.463653289E0
5.242326458E0,-2.531086578E0,-9.518256683E0,-4.686753845E-1,9.860185910E0
5.252369458E0,-2.791095886E0,-9.790690155E0,1.781295776E-2,1.018077341E1
5.262412458E0,-2.692001953E0,-9.930200043E0,3.921844482E-1,1.029609421E1
5.272454458E0,-2.555036774E0,-1.017269577E1,8.675958252E-1,1.052447978E1
5.282497458E0,-2.796933746E0,-1.057685532E1,2.085463257E0,1.113740831E1
5.292540458E0,-3.522175598E0,-1.088910599E1,3.008743286E0,1.183346468E1
5.302583458E0,-3.990252228E0,-1.109492798E1,2.460433502E0,1.204463668E1
5.312625458E0,-4.437073059E0,-1.078926361E1,1.677561493E0,1.178601032E1
5.322668458E0,-4.974455566E0,-1.046144531E1,8.701405334E-1,1.161654814E1
5.332711458E0,-5.731880493E0,-1.097637451E1,2.526745605E-1,1.238543886E1
5.342754458E0,-6.639443207E0,-1.202105209E1,-3.318598938E-1,1.373674017E1
5.352796458E0,-7.641160126E0,-1.280003220E1,-2.056872711E0,1.504855068E1
5.362839458E0,-9.288634186E0,-1.308683578E1,-5.338797913E0,1.691291693E1
5.372882458E0,-9.927805023E0,-1.328517334E1,-8.028404846E0,1.842586301E1
5.382925458E0,-7.830067291E0,-1.361838043E1,-6.176605682E0,1.687959410E1
5.392967458E0,-6.376440125E0,-1.408256516E1,-2.611768799E0,1.567797711E1
5.403010458E0,-5.183271332E0,-1.491243942E1,-1.111139374E0,1.582661625E1
5.413053458E0,-3.117866364E0,-1.529818726E1,-7.755372620E-1,1.563192509E1
5.423096458E0,-1.442999268E0,-1.586939941E1,-1.290316772E0,1.598702605E1
5.433139458E0,-9.699829102E-2,-1.655108185E1,-3.266207886E-1,1.655458849E1
5.443181458E0,1.090781708E0,-1.678145279E1,9.131011963E-1,1.684163639E1
5.453224458E0,1.609602814E0,-1.684013077E1,1.442400513E0,1.697826095E1
5.463267458E0,1.713187408E0,-1.730326767E1,1.460063782E0,1.744906500E1
5.473310458E0,1.937870178E0,-1.786280411E1,1.446292419E0,1.802572809E1
5.483352458E0,2.530787201E0,-1.813344131E1,1.780846710E0,1.839559710E1
5.493395458E0,3.224893799E0,-1.750923935E1,2.566413116E0,1.798777026E1
5.503438458E0,3.953428802E0,-1.589798996E1,3.702400818E0,1.679534030E1
5.513481458E0,4.164639587E0,-1.348381027E1,4.506828003E0,1.481448146E1
5.523523458E0,3.645818481E0,-1.132005981E1,4.623285828E0,1.275972251E1
5.533566458E0,2.818937988E0,-9.648785248E0,4.174668732E0,1.088454534E1
5.543609458E0,2.549498291E0,-8.197553101E0,3.669469299E0,9.336210329E0
5.553652458E0,1.846859436E0,-7.024143219E0,3.627257080E0,8.118280093E0
5.563694458E0,1.088686066E0,-6.276897125E0,3.367846527E0,7.206043651E0
5.573737458E0,6.927593994E-1,-5.646707611E0,3.145109711E0,6.500533634E0
5.583780458E0,-9.430389404E-3,-5.076543274E0,2.737357635E0,5.767539109E0
5.593823458E0,-7.000941467E-1,-4.848567352E0,2.248025208E0,5.390023610E0
5.603866458E0,-8.970845032E-1,-4.784650269E0,1.867666168E0,5.214001890E0
5.613908458E0,-5.194198608E-1,-4.627028046E0,1.967508545E0,5.054728024E0
5.623951458E0,3.224295044E-1,-4.484225006E0,2.614912262E0,5.200961529E0
5.633994458E0,1.275946655E0,-4.349205780E0,2.991978149E0,5.430981866E0
5.644037458E0,2.134112091E0,-4.241729279E0,3.018173676E0,5.626373079E0
5.654079458E0,2.682870941E0,-4.137845306E0,2.855162659E0,5.698378197E0
5.664122458E0,2.968027954E0,-3.978875885E0,2.650388489E0,5.627184232E0
5.674165458E0,3.180436249E0,-3.766018524E0,2.311343536E0,5.444297861E0
5.684208458E0,3.267106018E0,-3.520229645E0,1.802701263E0,5.129885996E0
5.694250458E0,3.300636292E0,-3.273692322E0,1.138981476E0,4.786286676E0
5.704293458E0,3.394790497E0,-3.239114227E0,4.662803650E-1,4.715281632E0
5.714336458E0,3.382815399E0,-3.543730774E0,-4.355941772E-2,4.899322937E0
5.724379458E0,2.857557678E0,-4.771327972E0,-1.492695923E0,5.758415374E0
5.734421458E0,1.264270935E0,-7.069349213E0,-4.249064026E0,8.344376812E0
5.744464458E0,-1.759590912E0,-9.969717865E0,-8.529263306E0,1.323781579E1
5.754507458E0,-6.031108246E0,-1.332828369E1,-1.223166412E1,1.906911167E1
5.764550458E0,-1.020038818E1,-1.628748001E1,-1.087967560E1,2.208386889E1
5.774592458E0,-1.293130920E1,-1.791025543E1,-6.072871399E0,2.291016749E1
5.784635458E0,-1.514490601E1,-1.819885529E1,-5.608087921E0,2.433140279E1
5.794678458E0,-1.572554855E1,-1.635079834E1,-7.065606995E0,2.376056156E1
5.804721458E0,-1.185429886E1,-1.259510834E1,-5.939498749E0,1.828766800E1
5.814764458E0,-6.588099976E0,-9.889933777E0,-3.924538879E0,1.251462572E1
5.824806458E0,-3.956272888E0,-9.105864258E0,-2.590063934E0,1.026047222E1
5.834849458E0,-1.938169556E0,-8.213719482E0,-1.674717407E0,8.603857702E0
5.844892458E0,-1.463955688E-1,-7.647147675E0,-9.943821716E-1,7.712917420E0
5.854935458E0,1.186432800E0,-8.002209320E0,-7.529342651E-1,8.124646872E0
5.864977458E0,1.606609039E0,-9.331145782E0,-5.095404053E-1,9.482146679E0
5.875020458E0,1.027613068E0,-1.171164551E1,-8.666976929E-2,1.175696137E1
5.885063458E0,1.886077881E-1,-1.493010269E1,-1.169068909E-1,1.493175162E1
5.895106458E0,-9.607022095E-1,-1.886841293E1,-2.887645111E0,1.911225915E1
5.905148458E0,-2.672991486E0,-2.174887299E1,-6.440955963E0,2.283953312E1
5.915191458E0,-1.947749634E0,-1.858430374E1,-3.231031036E0,1.896337617E1
5.925234458E0,1.167572021E-1,-1.268342468E1,8.225395203E-1,1.271060444E1
5.935277458E0,9.437873840E-1,-9.141639862E0,3.287912750E0,9.760670277E0
5.945319458E0,1.120869141E0,-7.009623413E0,4.966671753E0,8.663659523E0
5.955362458E0,1.276994476E0,-5.608686676E0,5.658383331E0,8.068790681E0
5.965405458E0,1.575773163E0,-5.151387634E0,5.342989197E0,7.587317654E0
5.975448458E0,2.480342102E0,-6.827452240E0,4.663402405E0,8.632121583E0
5.985490583E0,2.771336975E0,-1.001207977E1,4.024081879E0,1.114070397E1
5.995533583E0,1.900298309E0,-1.181268539E1,3.960763550E0,1.260310747E1
6.005576583E0,-6.655160522E-1,-1.119087845E1,4.299509125E0,1.200685016E1
6.015619583E0,-1.201551361E0,-1.206296494E1,4.228107605E0,1.283883728E1
6.025662583E0,-7.828720093E-1,-1.326197159E1,3.943399658E0,1.385796449E1
6.035704583E0,1.215472412E-1,-1.458013046E1,3.381468201E0,1.496760853E1
6.045747583E0,9.595046997E-2,-1.456456284E1,3.296295319E0,1.493322671E1
6.055790583E0,-5.710624695E-1,-1.367780685E1,3.215912476E0,1.406238265E1
6.065833583E0,-1.461860046E0,-1.209844116E1,2.773282928E0,1.249801630E1
6.075875583E0,-2.179467773E0,-1.016850449E1,1.981579285E0,1.058655845E1
6.085918583E0,-2.144290924E0,-8.639134827E0,1.147663422E0,8.974952114E0
6.095961583E0,-1.916165314E0,-7.482190704E0,4.346960449E-1,7.735879258E0
6.106004583E0,-1.593137054E0,-6.851552124E0,-9.370513916E-2,7.034957913E0
6.116046583E0,-1.224304047E0,-6.736441498E0,-5.474116516E-1,6.868640620E0
6.126089583E0,-1.036893768E0,-6.732100525E0,-8.364605713E-1,6.862651998E0
6.136132583E0,-1.014590149E0,-6.651268616E0,-1.041683807E0,6.808367831E0
6.146175583E0,-7.119195557E-1,-7.200177155E0,-1.339714050E0,7.358275222E0
6.156217583E0,-2.664459229E-2,-8.238717499E0,-1.967957611E0,8.470539128E0
6.166260583E0,1.370250549E0,-1.066083069E1,-2.599194946E0,1.105833224E1
6.176303583E0,1.865869904E0,-1.274285110E1,-3.059637451E0,1.323718649E1
6.186346583E0,1.974543915E0,-1.320464081E1,-3.079096985E0,1.370190501E1
6.196389583E0,1.702858887E0,-1.235725296E1,-2.926414490E0,1.281270194E1
6.206431583E0,6.345304871E-1,-1.109268265E1,-2.178869019E0,1.132244265E1
6.216474583E0,-6.491999817E-1,-9.994715881E0,-1.147813110E0,1.008133330E1
6.226517583E0,-8.428971863E-1,-9.016799469E0,-5.487588501E-1,9.072722006E0
6.236560583E0,3.876937866E-1,-9.091943207E0,-3.844006348E-1,9.108320460E0
6.246602583E0,9.568103027E-1,-7.913892975E0,-5.668711853E-1,7.991653828E0
6.256645583E0,1.693727875E0,-6.741381226E0,-7.367678833E-1,6.989832749E0
6.266688583E0,2.070793762E0,-5.601052551E0,-4.417314148E-1,5.987913086E0
6.276731583E0,2.120490417E0,-4.454736328E0,-2.871029663E-1,4.942022205E0
6.286773583E0,2.129471741E0,-3.814218292E0,-1.700463867E-1,4.371707544E0
6.296816583E0,2.111509094E0,-3.604354706E0,1.122665405E-1,4.178809313E0
6.306859583E0,2.520608368E0,-3.546724548E0,7.387138367E-1,4.413436269E0
6.316902583E0,3.012784882E0,-3.996389465E0,1.235530701E0,5.155049720E0
6.326944583E0,3.612886963E0,-5.046006775E0,1.692081299E0,6.432594788E0
6.336987583E0,4.221072235E0,-6.295009460E0,2.470163269E0,7.971593410E0
6.347030583E0,4.383783875E0,-7.550598450E0,2.946921844E0,9.214849232E0
6.357073583E0,4.288881226E0,-8.717122650E0,3.584146729E0,1.035513579E1
6.367115583E0,4.126169586E0,-9.794132996E0,4.724176025E0,1.163048390E1
6.377158583E0,4.351600800E0,-1.109732300E1,5.528303833E0,1.313960237E1
6.387201583E0,5.057682495E0,-1.289448578E1,5.875581665E0,1.504560985E1
6.397244583E0,4.231849823E0,-1.354727829E1,5.579347687E0,1.525012861E1
6.407286583E0,3.484004974E0,-1.360086685E1,4.777764587E0,1.483067444E1
6.417329583E0,3.265160065E0,-1.305330551E1,3.582949219E0,1.392435205E1
6.427372583E0,3.162623291E0,-1.205173828E1,2.679727478E0,1.274470561E1
6.437415583E0,3.073708191E0,-1.113474518E1,2.014510803E0,1.172554843E1
6.447458583E0,2.311044159E0,-9.679621124E0,1.267264709E0,1.003204616E1
6.457500583E0,9.418414307E-1,-7.794441376E0,5.165757751E-1,7.868114906E0
6.467543583E0,2.451901245E-1,-5.764362946E0,1.035097504E0,5.861691327E0
6.477586583E0,-1.327738953E-1,-5.343737640E0,1.545835419E0,5.564419828E0
6.487629583E0,8.970845032E-1,-8.888815613E0,1.225950623E0,9.017691419E0
6.497671583E0,3.156336365E0,-1.242655884E1,1.476080475E0,1.290583734E1
6.507714583E0,4.201463013E0,-1.332873276E1,2.297123108E0,1.416277455E1
6.517757583E0,4.087849274E0,-1.244257553E1,3.406017151E0,1.353252195E1
6.527800583E0,3.743864594E0,-1.168904251E1,3.883224792E0,1.287360368E1
6.537842583E0,3.729045410E0,-1.201790863E1,3.038681030E0,1.294486346E1
6.547885583E0,3.952081604E0,-1.289508453E1,1.275946655E0,1.354733162E1
6.557928583E0,4.813091125E0,-1.373244324E1,-9.665400696E-1,1.458355386E1
6.567971583E0,5.434299316E0,-1.387419846E1,-2.623594208E0,1.512971376E1
6.578013583E0,4.208498383E0,-1.262220200E1,-3.344495087E0,1.371922335E1
6.588056583E0,2.547552338E0,-1.082638641E1,-3.273542633E0,1.159382366E1
6.598099583E0,1.575922852E0,-1.017015106E1,-3.296295319E0,1.080652897E1
6.608142583E0,1.246008911E0,-1.018272491E1,-3.044069824E0,1.070078436E1
6.618184583E0,1.425186310E0,-1.030546967E1,-2.555934906E0,1.071292044E1
6.628227583E0,1.738634491E0,-1.041968216E1,-2.311493225E0,1.081367778E1
6.638270583E0,1.934726715E0,-1.046788193E1,-2.195634155E0,1.086924693E1
6.648313583E0,1.717977448E0,-1.018631744E1,-1.703607330E0,1.046970809E1
6.658355583E0,1.321601715E0,-9.809101868E0,-1.119372253E0,9.960828519E0
6.668398583E0,8.945397949E-1,-9.476942596E0,-2.487826538E-1,9.522317745E0
6.678441583E0,1.097966766E0,-8.969198456E0,1.463356934E0,9.153877073E0
6.688484583E0,2.360142059E0,-8.244255981E0,2.224075012E0,8.859149896E0
6.698527583E0,3.746409302E0,-8.204588470E0,2.656675415E0,9.402594264E0
6.708569583E0,4.367916870E0,-9.244476013E0,3.550915833E0,1.082349471E1
6.718612583E0,4.679718475E0,-1.019949005E1,4.292473755E0,1.201476980E1
6.728655583E0,4.765340424E0,-1.022613464E1,4.597838745E0,1.218287405E1
6.738698583E0,4.560566254E0,-9.712253265E0,4.570146332E0,1.166245538E1
6.748740583E0,4.158202972E0,-9.328152008E0,4.487218781E0,1.115527697E1
6.758783583E0,4.276157684E0,-1.017748581E1,4.849315796E0,1.205747095E1
6.768826583E0,4.300407257E0,-1.096499817E1,6.084547119E0,1.325693785E1
6.778869583E0,4.133654022E0,-1.084135529E1,7.222331085E0,1.366689966E1
6.788911583E0,4.052971802E0,-9.767189026E0,7.008725281E0,1.268648068E1
6.798954583E0,4.009861450E0,-8.987011414E0,5.806575165E0,1.142635892E1
6.808997583E0,3.943549347E0,-8.036338348E0,4.453089752E0,9.998216033E0
6.819040583E0,3.969146118E0,-7.920179901E0,3.392994232E0,9.486610587E0
6.829082583E0,4.145778809E0,-8.451874237E0,2.843037872E0,9.833845860E0
6.839125583E0,5.100493469E0,-1.012404694E1,1.665137329E0,1.145792487E1
6.849168583E0,5.402116241E0,-1.128144012E1,-1.193019104E-1,1.250871633E1
6.859211583E0,1.556762695E-2,-9.674232330E0,-8.517737274E0,1.288964165E1
6.869253583E0,-3.869303741E0,-9.294172668E0,-9.848320312E0,1.408341471E1
6.879296583E0,-2.640059967E0,-1.070678513E1,-1.859433289E0,1.118314162E1
6.889339583E0,-2.670147400E0,-1.036145325E1,3.375181274E0,1.121968133E1
6.899382583E0,-2.503394165E0,-9.488169250E0,5.861361237E0,1.143013095E1
6.909425583E0,-2.361489258E0,-8.743168488E0,6.813082123E0,1.133303643E1
6.919467583E0,-1.995350647E0,-8.881929932E0,6.791526947E0,1.135759401E1
6.929510583E0,-1.606309662E0,-8.981622620E0,6.448440399E0,1.117283130E1
6.939553583E0,-2.798280945E0,-8.687184906E0,5.652096405E0,1.073516426E1
6.949596583E0,-2.719544678E0,-1.009455826E1,3.848197632E0,1.114022687E1
6.959638583E0,-3.449127502E0,-1.077324692E1,3.281326447E0,1.177821858E1
6.969681583E0,-4.691094818E0,-1.217553085E1,3.778442688E0,1.358405504E1
6.979724583E0,-6.750961304E0,-1.255768616E1,5.057083740E0,1.512762559E1
6.989768458E0,-6.866820374E0,-1.239617203E1,4.781955872E0,1.495611597E1
6.999810458E0,-4.902155914E0,-1.039169037E1,1.622925110E0,1.160397549E1
7.009853458E0,-2.383194122E0,-8.841364288E0,1.686991882E-1,9.158482195E0
7.019896458E0,-1.260828094E0,-8.684191132E0,9.725276184E-1,8.828967837E0
7.029939458E0,-1.708097992E0,-9.439221039E0,2.274669800E0,9.858530076E0
7.039981458E0,-2.471809845E0,-1.125030487E1,2.034120026E0,1.169687342E1
7.050024458E0,-2.400857391E0,-1.316781738E1,1.975891113E0,1.352995479E1
7.060067458E0,-2.472109222E0,-1.246996857E1,2.624043274E0,1.298064109E1
7.070110458E0,-2.355501709E0,-1.139475449E1,2.380649414E0,1.187671292E1
7.080152458E0,-2.806064758E0,-1.126991409E1,3.592828674E0,1.215703011E1
7.090195458E0,-3.795956268E0,-1.021535706E1,3.901486816E0,1.157516320E1
7.100238458E0,-4.334985352E0,-1.007659561E1,3.145558777E0,1.141159135E1
7.110281458E0,-3.924089813E0,-9.876162415E0,1.710493011E0,1.076396076E1
7.120323458E0,-3.319497070E0,-9.863139496E0,2.911445618E-1,1.041082834E1
7.130366458E0,-3.066373444E0,-1.098415833E1,1.209634552E0,1.146811214E1
7.140409458E0,-4.124972076E0,-1.111857880E1,4.364773407E0,1.263682856E1
7.150452458E0,-4.750820618E0,-1.081965042E1,6.929689636E0,1.369874922E1
7.160495458E0,-3.838168488E0,-1.086231171E1,5.623356171E0,1.281965240E1
7.170537458E0,-1.400936737E0,-1.014425491E1,1.968556366E0,1.042802693E1
7.180580458E0,1.053060150E0,-9.764794006E0,7.270381165E-1,9.848285236E0
7.190623458E0,1.881287842E0,-9.723629608E0,4.368665314E0,1.082466874E1
7.200666458E0,1.573378143E0,-1.130898285E1,1.357721603E1,1.774005093E1
7.210708458E0,7.083270264E-1,-1.110420868E1,1.108085724E1,1.570320269E1
7.220751458E0,-2.161505127E-1,-9.873468018E0,6.618187408E0,1.188833446E1
7.230794458E0,-7.262896729E-1,-8.546327820E0,3.402125244E0,9.227224505E0
7.240837458E0,-4.486470337E0,-8.395441589E0,5.566923523E-1,9.535290344E0
7.250879458E0,-8.713829498E0,-9.807754669E0,-3.329077148E-1,1.312378390E1
7.260922458E0,-9.414223022E0,-9.557475128E0,4.120930481E-1,1.342172666E1
7.270965458E0,-8.069419556E0,-8.955876160E0,2.406994629E0,1.229296030E1
7.281008458E0,-6.592590637E0,-8.062982941E0,5.313650208E0,1.169225486E1
7.291050458E0,-5.150639191E0,-6.868916016E0,7.989785156E0,1.172807564E1
7.301093458E0,-4.495301971E0,-5.789510651E0,9.285191345E0,1.182966406E1
7.311136458E0,-4.421655121E0,-5.165158997E0,1.007270370E1,1.215274707E1
7.321179458E0,-4.399052124E0,-4.370760956E0,1.053075119E1,1.222096279E1
7.331221458E0,-4.643194427E0,-3.182831268E0,1.101574265E1,1.237078233E1
7.341264458E0,-4.701573029E0,-2.385888519E0,1.144040955E1,1.259683387E1
7.351307458E0,-4.428989868E0,-2.063309326E0,1.189606201E1,1.286038444E1
7.361350458E0,-3.648213501E0,-1.865869904E0,1.200428696E1,1.268439347E1
7.371392458E0,-2.944077759E0,-1.938618622E0,1.187450684E1,1.238667625E1
7.381435458E0,-2.561772766E0,-1.918111267E0,1.146585663E1,1.190410428E1
7.391478458E0,-2.174677734E0,-1.556912384E0,1.077459412E1,1.110157997E1
7.401521458E0,-1.953437805E0,-1.546284485E0,1.035696259E1,1.065239827E1
7.411563458E0,-1.623972931E0,-1.869013367E0,9.850715332E0,1.015712024E1
7.421606458E0,-1.318607941E0,-1.976340179E0,9.234596558E0,9.535324902E0
7.431649458E0,-1.059646454E0,-1.793570251E0,8.638835449E0,8.886462894E0
7.441692458E0,-5.143304443E-1,-1.685494995E0,8.023165741E0,8.214415237E0
7.451735458E0,-3.338058472E-2,-1.835483093E0,7.687713318E0,7.903862885E0
7.461777458E0,-1.007405090E-1,-2.312840424E0,7.806865540E0,8.142882108E0
7.471820458E0,-3.942800903E-1,-2.693798218E0,7.615563354E0,8.087571380E0
7.481863458E0,-4.704716492E-1,-2.773582306E0,6.872957611E0,7.426415603E0
7.491906458E0,-6.447093201E-1,-2.618804169E0,6.294560394E0,6.848012554E0
7.501948458E0,-4.706213379E-1,-2.659220123E0,5.867797852E0,6.459410789E0
7.511991458E0,-1.327738953E-1,-2.789449310E0,5.567671967E0,6.228774156E0
7.522034458E0,-9.340576172E-2,-2.572700043E0,5.601202240E0,6.164493222E0
7.532077458E0,-9.145980835E-2,-2.623594208E0,5.970933380E0,6.522549877E0
7.542119458E0,5.224136353E-2,-2.881807251E0,6.181395721E0,6.820351549E0
7.552162458E0,-1.543290710E-1,-2.964585114E0,6.198460236E0,6.872662632E0
7.562205458E0,-7.882608032E-1,-2.861748962E0,6.209387512E0,6.882401870E0
7.572248458E0,-1.419498138E0,-2.784958649E0,6.219865723E0,6.961156459E0
7.582290458E0,-1.906585236E0,-2.620151367E0,6.078110504E0,6.887937844E0
7.592333458E0,-2.223625946E0,-2.355202332E0,5.870342560E0,6.704656005E0
7.602376458E0,-2.500849457E0,-2.221679993E0,6.006708984E0,6.875366377E0
7.612419458E0,-4.073179779E0,-2.589764557E0,7.135511627E0,8.614708362E0
7.622461458E0,-7.725883942E0,-5.063670044E0,1.321092773E1,1.612013178E1
7.632504458E0,-6.577921143E0,-4.226461029E0,1.147798141E1,1.388798318E1
7.642547458E0,-5.048850861E0,-3.264411621E0,9.343569946E0,1.111078654E1
7.652590458E0,-3.516038361E0,-2.467169495E0,8.333919525E0,9.375695479E0
7.662632458E0,1.160087585E-1,-1.609902191E0,5.848937073E0,6.067561947E0
7.672675458E0,-1.741029510E0,-2.824626160E-1,6.395899658E0,6.634644024E0
7.682718458E0,-1.414259033E0,-8.866062927E-1,8.035889282E0,8.207418345E0
7.692761458E0,-1.376836853E0,-1.123114471E0,7.676486664E0,7.879436105E0
7.702803458E0,-2.171983337E0,-7.825726318E-1,6.426585846E0,6.828684879E0
7.712846458E0,-1.778002625E0,-7.134164429E-1,6.484515381E0,6.761597154E0
7.722889458E0,-2.053729248E0,-7.020401001E-1,7.215146027E0,7.534520311E0
7.732932458E0,-2.581980743E0,-6.722520447E-1,7.863148499E0,8.303472267E0
7.742975458E0,-2.674188995E0,-5.722599792E-1,8.550968170E0,8.977629137E0
7.753017458E0,-2.582878876E0,-7.201524353E-1,9.175319824E0,9.559099157E0
7.763060458E0,-2.533481598E0,-8.720864868E-1,9.586065674E0,9.953477731E0
7.773103458E0,-2.662662964E0,-7.274871826E-1,9.413474579E0,9.809817292E0
7.783146458E0,-2.860252075E0,-5.770500183E-1,9.306147766E0,9.752867009E0
7.793188458E0,-2.886896667E0,-3.760180664E-1,9.047485657E0,9.504344200E0
7.803231458E0,-2.802771606E0,-2.712359619E-1,8.703201599E0,9.147393929E0
7.813274458E0,-2.827170868E0,-4.718188477E-1,8.636889496E0,9.100075181E0
7.823317458E0,-2.997666321E0,-5.676196289E-1,8.761729889E0,9.277720952E0
7.833359458E0,-3.079096985E0,-5.239105225E-1,8.803193665E0,9.340853236E0
7.843402458E0,-2.959944763E0,-4.843927002E-1,8.845256195E0,9.339939317E0
7.853445458E0,-3.031346283E0,-5.272036743E-1,9.062304840E0,9.570390432E0
7.863488458E0,-3.199746094E0,-7.912545776E-1,9.572893066E0,1.012446248E1
7.873530458E0,-3.219654694E0,-9.654922485E-1,1.007899063E1,1.062470723E1
7.883573458E0,-3.066822510E0,-8.285270691E-1,9.946815491E0,1.044179083E1
7.893616458E0,-3.038980408E0,-6.632707214E-1,9.327553253E0,9.832526616E0
7.903659458E0,-3.177292786E0,-5.777984619E-1,8.992699585E0,9.554982278E0
7.913701458E0,-3.130739594E0,-4.656816101E-1,9.013057251E0,9.552674535E0
7.923744458E0,-2.863545227E0,-2.805166626E-1,8.997938690E0,9.446770958E0
7.933787458E0,-2.778072968E0,-3.339555359E-1,9.025631104E0,9.449403819E0
7.943830458E0,-2.721340942E0,-4.808001709E-1,9.184301147E0,9.591050667E0
7.953872458E0,-2.766397247E0,-5.472619629E-1,9.681716766E0,1.008405122E1
7.963915458E0,-2.686912537E0,-6.228547668E-1,1.011042526E1,1.047989246E1
7.973958458E0,-2.421215057E0,-5.330415344E-1,9.956694946E0,1.026071098E1
7.984000750E0,-2.431543579E0,-4.176315308E-1,9.468260651E0,9.784415160E0
7.994042750E0,-2.727178802E0,-4.959187317E-1,9.239835663E0,9.646657591E0
8.004085750E0,-2.812201996E0,-6.023474121E-1,9.124725037E0,9.567231024E0
8.014128750E0,-2.768642578E0,-6.462062073E-1,9.217981110E0,9.646457377E0
8.024171750E0,-2.912343750E0,-6.641688538E-1,9.256600800E0,9.726639952E0
8.034213750E0,-2.925965424E0,-7.544311523E-1,9.250762939E0,9.731754980E0
8.044256750E0,-2.906505890E0,-9.114546204E-1,9.323212280E0,9.808201325E0
8.054299750E0,-2.968776398E0,-9.415420532E-1,9.375004578E0,9.878807902E0
8.064342750E0,-2.988684998E0,-8.219407654E-1,9.348509674E0,9.848982575E0
8.074384750E0,-3.002905426E0,-7.746391296E-1,9.473948822E0,9.968611391E0
8.084427750E0,-3.129991150E0,-8.463400269E-1,9.605674896E0,1.013815201E1
8.094470750E0,-2.982098694E0,-7.670050049E-1,9.554780731E0,1.003867741E1
8.104513750E0,-2.949167175E0,-6.688092041E-1,9.600435791E0,1.006544883E1
8.114556750E0,-2.974464569E0,-6.291416931E-1,9.468410339E0,9.944548914E0
8.124598750E0,-2.931503906E0,-6.557862854E-1,9.169481964E0,9.648998409E0
8.134641750E0,-2.785108337E0,-6.568341064E-1,8.820258179E0,9.272821245E0
8.144684750E0,-2.791844330E0,-7.762857056E-1,8.513246613E0,8.992907324E0
8.154727750E0,-3.011287994E0,-9.292675781E-1,8.566835175E0,9.128091724E0
8.164769750E0,-3.086880798E0,-1.065634003E0,8.844208374E0,9.427853979E0
8.174812750E0,-3.047662354E0,-1.241817627E0,9.184899902E0,9.756676845E0
8.184855750E0,-2.919379120E0,-1.392703857E0,1.075543396E1,1.123128480E1
8.194898750E0,-2.798430634E0,-1.061891785E0,1.127260849E1,1.166321269E1
8.204940750E0,-2.760858765E0,-8.343649292E-1,1.111004654E1,1.147831173E1
8.214983750E0,-2.494263153E0,-9.107061768E-1,1.043120819E1,1.076386728E1
8.225026750E0,-2.539768524E0,-7.701484680E-1,9.735155640E0,1.009043151E1
8.225026750E0,-2.653981018E0,-7.315287781E-1,9.095386047E0,9.502883612E0
8.235068750E0,-2.609972534E0,-6.517446899E-1,9.027277679E0,9.419579081E0
8.245111750E0,-2.684068451E0,-5.548960876E-1,8.927584991E0,9.338838627E0
8.255154750E0,-2.896476746E0,-4.355941772E-1,8.907826080E0,9.377029663E0
8.265197750E0,-3.119662628E0,-2.634521484E-1,8.830437012E0,9.369008473E0
8.275239750E0,-3.863615570E0,-1.218466187E-1,8.773854675E0,9.587642971E0
8.285282750E0,-3.544928284E0,4.819976807E-2,8.886869659E0,9.567930398E0
8.295325750E0,-3.735781403E0,-9.548643494E-1,8.631051636E0,9.453194220E0
8.305368750E0,-3.264860687E0,-9.237290955E-1,8.611143036E0,9.255505126E0
8.315410750E0,-3.194207611E0,-7.569758606E-1,9.144483948E0,9.715840745E0
8.325453750E0,-3.254083099E0,-9.828561401E-1,9.600585480E0,1.018461116E1
8.335496750E0,-3.093916168E0,-8.825646973E-1,9.644593964E0,1.016707580E1
8.345539750E0,-2.937790833E0,-8.177494812E-1,9.333840179E0,9.819363609E0
8.355581750E0,-2.863545227E0,-8.637039185E-1,8.960217133E0,9.446235588E0
8.365624750E0,-2.863844604E0,-8.518785095E-1,8.843010864E0,9.334138635E0
8.375667750E0,-2.798580322E0,-8.560697937E-1,8.715326385E0,9.193575002E0
8.385709750E0,-2.672692108E0,-9.265731812E-1,8.480165405E0,8.939520472E0
8.395752750E0,-2.273172913E0,-1.135538635E0,8.301137695E0,8.681339189E0
8.405795750E0,-1.949994965E0,-1.623972931E0,8.302784271E0,8.681934986E0
8.415838750E0,-2.224374390E0,-2.243085480E0,9.108708344E0,9.640946094E0
8.425881750E0,-2.339335327E0,-2.781366119E0,9.968071289E0,1.060994498E1
8.435923750E0,-2.530936890E0,-3.048560486E0,1.061816940E1,1.133335273E1
8.445966750E0,-3.808230743E0,-2.938688965E0,1.103415436E1,1.203707093E1
8.456009750E0,-4.481530609E0,-2.612816620E0,1.015802628E1,1.140598199E1
8.466051750E0,-4.553231506E0,-2.288141785E0,8.904682617E0,1.025967263E1
8.476094750E0,-4.627477112E0,-2.095342712E0,8.008795624E0,9.483923916E0
8.486137750E0,-4.053570557E0,-2.707569580E0,7.309000854E0,8.785434581E0
8.496180750E0,-3.591631165E0,-3.922592926E0,6.869664459E0,8.687855861E0
8.506222750E0,-4.785548401E0,-2.804567871E0,7.975415039E0,9.714644589E0
8.516265750E0,-6.182742920E0,-2.325563965E0,9.100325775E0,1.124502054E1
8.526308750E0,-6.704408112E0,-2.445314941E0,9.043593750E0,1.152021012E1
8.536351750E0,-7.248376923E0,-2.415676575E0,8.384364624E0,1.134336949E1
8.546393750E0,-7.569758606E0,-2.118245087E0,7.388635254E0,1.078796267E1
8.556436750E0,-7.251221008E0,-1.819915466E0,6.243217163E0,9.740126229E0
8.566479750E0,-6.890471191E0,-1.787732391E0,5.284161530E0,8.865491719E0
8.576522750E0,-7.004384308E0,-1.852547607E0,4.886288910E0,8.738944529E0
8.586564750E0,-7.124284973E0,-1.689386902E0,4.851561127E0,8.783342749E0
8.596607750E0,-7.200626221E0,-1.579665070E0,5.019362183E0,8.918427912E0
8.606650750E0,-6.968608704E0,-1.637295227E0,4.944817200E0,8.700198852E0
8.616693750E0,-6.741830292E0,-1.793270874E0,4.846172333E0,8.494320596E0
8.626735750E0,-7.314090271E0,-1.598974915E0,4.892875214E0,8.943873050E0
8.636778750E0,-8.554261322E0,-1.157542877E0,4.806953888E0,9.880389565E0
8.646821750E0,-1.041863434E1,-4.170327759E-1,4.495152283E0,1.135465772E1
8.656864750E0,-1.157872192E1,2.237846375E-1,3.934118958E0,1.223086967E1
8.666906750E0,-1.141780655E1,3.457809448E-1,3.420237579E0,1.192408889E1
8.676949750E0,-1.022912842E1,-4.333488464E-1,3.045566711E0,1.068168226E1
8.686992750E0,-9.416468353E0,-9.104067993E-1,2.637365570E0,9.821120809E0
8.697035750E0,-8.655750275E0,-1.021924896E0,2.151326294E0,8.977446638E0
8.707077750E0,-8.122708740E0,-1.230740662E0,1.595831451E0,8.368978305E0
8.717120750E0,-7.221582642E0,-1.635948029E0,8.653504944E-1,7.454958972E0
8.727163750E0,-5.878575439E0,-1.935325470E0,4.192781067E-1,6.203138561E0
8.737205750E0,-5.210065613E0,-2.390977936E0,4.843927002E-1,5.752929294E0
8.747249500E0,-6.025569763E0,-3.526067505E0,2.246228943E0,7.333906700E0
8.757292500E0,-7.743696899E0,-4.093836823E0,5.284311218E0,1.022977452E1
8.767335500E0,-8.630602570E0,-3.919748840E0,6.361171875E0,1.141561384E1
8.777377500E0,-8.890162811E0,-4.213288422E0,4.988526306E0,1.103051172E1
8.787420500E0,-8.583450623E0,-4.258793793E0,2.763104095E0,9.972346434E0
8.797463500E0,-7.816146240E0,-3.989503784E0,3.878434753E-1,8.784002792E0
8.807506500E0,-7.218139801E0,-4.546495514E0,-1.432521057E0,8.650102903E0
8.817548500E0,-7.504494324E0,-4.908143463E0,-2.613265686E0,9.340046298E0
8.827591500E0,-8.201145630E0,-4.526137848E0,-3.662583618E0,1.005779460E1
8.837634500E0,-9.016949158E0,-4.181105347E0,-3.144211578E0,1.042463815E1
8.847677500E0,-1.003019211E1,-4.492158508E0,-4.954696655E-1,1.100135137E1
8.857719500E0,-1.127679977E1,-4.110901337E0,1.490450592E0,1.209492315E1
8.867762500E0,-1.174996582E1,-2.807112579E0,9.138496399E-1,1.211514337E1
8.877805500E0,-1.117007172E1,-2.123484192E0,-2.556683350E-1,1.137299668E1
8.887848500E0,-9.688752136E0,-1.804048462E0,-4.510121155E-1,9.865592772E0
8.897890500E0,-9.325906677E0,-1.397493896E0,-1.200503540E-1,9.430797243E0
8.907933500E0,-1.058029816E1,-1.306183777E0,1.860630798E-1,1.066224388E1
8.917976500E0,-1.206820404E1,-1.704505463E0,7.173083496E-1,1.220907117E1
8.928019500E0,-1.418195847E1,-1.306483154E0,-1.377136230E-2,1.424201649E1
8.938061500E0,-1.572524918E1,-1.305135956E0,-1.405427399E0,1.584178234E1
8.948104500E0,-1.777044617E1,-1.464255066E0,-6.716532898E-1,1.784331578E1
8.958147500E0,-1.870719818E1,-8.307723999E-1,1.415606232E0,1.877906780E1
8.968190500E0,-1.813194443E1,-2.724334717E-2,-2.570155334E-1,1.813378636E1
8.978232500E0,-1.721076004E1,9.988728333E-1,-3.653901672E-1,1.724359354E1
8.988275500E0,-1.612192429E1,-5.358856201E-1,-7.324269104E-1,1.614744764E1
8.998318500E0,-1.503742950E1,-9.794132996E-1,-3.366499329E-1,1.507305111E1
9.008361500E0,-1.424048676E1,-7.749385071E-1,2.000290375E0,1.440115115E1
9.018403500E0,-1.178903458E1,-2.456391907E0,2.961441650E0,1.240102149E1
9.028446500E0,-7.078330536E0,-3.320395203E0,3.010090485E0,8.377853675E0
9.038489500E0,-2.432441711E0,-4.299808502E0,1.802850952E0,5.258839928E0
9.048532500E0,-1.140777740E0,-4.035009155E0,1.011895752E0,4.313537498E0
9.058574500E0,-6.324348450E-1,-3.803141327E0,1.166673889E0,4.028025043E0
9.068617500E0,-1.154848480E0,-3.657045135E0,2.737806702E-1,3.844815989E0
9.078660500E0,-1.445394287E0,-2.448757782E0,3.811074829E-1,2.868940960E0
9.088702500E0,1.830992432E0,-2.896925812E0,1.270108795E0,3.654844565E0
9.098745500E0,3.440146179E0,-5.757177887E0,7.164102173E-1,6.744845925E0
9.108788500E0,1.094823303E0,-8.478219452E0,4.818479919E-1,8.562185505E0
9.118831500E0,-1.690734100E0,-8.612190857E0,2.109862518E0,9.026623566E0
9.128873500E0,-4.316723328E0,-8.377329254E0,2.877765656E0,9.853693769E0
9.138916500E0,-7.214696960E0,-9.872270508E0,2.624342651E0,1.250602861E1
9.148959500E0,-8.116721191E0,-1.076920532E1,2.182760925E0,1.366094402E1
9.159002500E0,-6.753206635E0,-9.977351990E0,8.967851257E-1,1.208129033E1
9.169044500E0,-1.219169724E1,-9.902507629E0,2.684816895E0,1.593440870E1
9.179087500E0,-1.468117035E1,-8.700357513E0,2.406096497E0,1.723433445E1
9.189130500E0,-1.467832626E1,-9.159452820E0,1.508413239E0,1.736732991E1
9.199173500E0,-1.476439728E1,-8.842561798E0,1.557660828E0,1.728018036E1
9.209215500E0,-1.611878082E1,-7.030729523E0,-1.127305756E0,1.762149458E1
9.219258500E0,-1.538575516E1,-6.742728424E0,-4.312681732E0,1.734315635E1
9.229301500E0,-1.157378220E1,-5.379812622E0,-5.030439148E0,1.371860548E1
9.239344500E0,-8.616382141E0,-4.307442627E0,-4.520150299E0,1.064085814E1
9.249386500E0,-5.960455170E0,-5.337301025E0,-5.970184937E0,9.982831073E0
9.259429500E0,-4.612208862E0,-6.211932220E0,-5.539081421E0,9.515355773E0
9.269472500E0,-4.656067657E0,-5.793701935E0,-3.091521149E0,8.050059078E0
9.279515500E0,-4.430187378E0,-5.199587402E0,-5.026547241E-1,6.849447505E0
9.289557500E0,-4.023333435E0,-5.162614288E0,1.209185486E0,6.655969333E0
9.299600500E0,-3.261417847E0,-5.316344604E0,1.224603424E0,6.356100996E0
9.309643500E0,-2.651286621E0,-5.565576324E0,9.946815491E-1,6.244545776E0
9.319686500E0,-2.831062775E0,-5.576054535E0,1.177301788E0,6.363437759E0
9.329728500E0,-3.597918091E0,-5.315296783E0,1.803599396E0,6.667110713E0
9.339771500E0,-4.166286163E0,-4.746030579E0,2.301913147E0,6.721722308E0
9.349814500E0,-4.421804810E0,-4.403991852E0,2.425556030E0,6.695582429E0
9.359857500E0,-4.606969757E0,-4.514312439E0,2.213447113E0,6.819276740E0
9.369899500E0,-4.761448517E0,-4.769082642E0,1.812730408E0,6.978648347E0
9.379942500E0,-4.848267975E0,-5.129084015E0,1.708996124E0,7.261809206E0
9.389985500E0,-5.196144562E0,-6.519392853E0,1.869612122E0,8.543877981E0
9.400028500E0,-4.365222473E0,-9.192234650E0,1.773811340E0,1.032950879E1
9.410070500E0,-3.263513489E0,-1.042417282E1,1.387764130E0,1.101089409E1
9.420113500E0,-2.543810120E0,-1.067370392E1,9.533674622E-1,1.101398360E1
9.430156500E0,-1.894161072E0,-9.651329956E0,7.238946533E-1,9.862050474E0
9.440198500E0,-1.183738403E0,-8.790769501E0,5.893244934E-1,8.889666382E0
9.450241500E0,-6.750961304E-1,-8.430768127E0,8.583151245E-1,8.501194672E0
9.460284500E0,-6.336323547E-1,-7.876919861E0,1.032253418E0,7.969498326E0
9.470327500E0,-6.370751953E-1,-7.322323151E0,9.991722107E-1,7.417588977E0
9.480369500E0,-1.110390930E0,-6.919510803E0,6.710545349E-1,7.040093179E0
9.490412500E0,-1.997595978E0,-7.129374390E0,3.276686096E-1,7.411189891E0
9.500455500E0,-2.896776123E0,-1.028331573E1,8.098159790E-1,1.071418202E1
9.510498500E0,-3.176694031E0,-1.350147354E1,1.287322998E0,1.392976573E1
9.520540500E0,-2.080074463E0,-1.534099823E1,1.675316162E0,1.557175715E1
9.530583500E0,-1.212029572E0,-1.591340790E1,1.794468384E0,1.606006486E1
9.540626500E0,-3.086581421E-1,-1.635873184E1,2.320923615E0,1.652543687E1
9.550669500E0,1.595232697E0,-1.707304642E1,3.333717499E0,1.746846741E1
9.560711500E0,3.468287659E0,-1.792522430E1,4.718787231E0,1.885761487E1
9.570754500E0,4.607119446E0,-1.836216568E1,5.364544373E0,1.967671249E1
9.580797500E0,5.840404816E0,-1.813448914E1,6.203250275E0,2.003622566E1
9.590840500E0,6.564898224E0,-1.634825363E1,6.060746613E0,1.863051086E1
9.600882500E0,6.358327789E0,-1.384935013E1,3.890110474E0,1.572786669E1
9.610925500E0,4.921465759E0,-1.149504593E1,1.837728424E0,1.263859770E1
9.620968500E0,3.497626648E0,-9.833351440E0,5.739065552E-1,1.045263419E1
9.631011500E0,2.537074127E0,-8.782985687E0,-6.556365967E-2,9.142312689E0
9.641053500E0,1.874402161E0,-8.207133179E0,-4.448748779E-1,8.430203564E0
9.651096500E0,1.513203278E0,-7.842192078E0,-7.375163269E-1,8.020828578E0
9.661139500E0,1.326990509E0,-7.799231415E0,-9.587562561E-1,7.969198707E0
9.671182500E0,1.226250000E0,-8.090076599E0,-1.207987976E0,8.271170618E0
9.681224500E0,1.022673340E0,-8.686885529E0,-1.472338257E0,8.869927896E0
9.691267500E0,7.589218140E-1,-9.416468353E0,-1.553319855E0,9.573851949E0
9.701310500E0,6.167175293E-1,-1.018871246E1,-1.378034363E0,1.029996024E1
9.711353500E0,6.280938721E-1,-1.074929672E1,-1.107546844E0,1.082444188E1
9.721395500E0,7.396119690E-1,-1.085243225E1,-8.430468750E-1,1.091022638E1
9.731438500E0,9.288185120E-1,-1.043974045E1,-5.867797852E-1,1.049738991E1
9.741481500E0,1.191222839E0,-9.867779846E0,-2.682421875E-1,9.943040019E0
9.751524458E0,1.498833160E0,-9.390572205E0,2.357597351E-1,9.512356691E0
9.761566458E0,1.735341339E0,-9.105415192E0,8.574169922E-1,9.308875296E0
9.771609458E0,1.850751343E0,-8.995843048E0,1.448088684E0,9.297711198E0
9.781652458E0,1.692680054E0,-8.985215149E0,1.807341614E0,9.320179223E0
9.791695458E0,1.402583313E0,-9.018895111E0,2.009271698E0,9.345848369E0
9.801737458E0,1.207089844E0,-9.009614410E0,2.061213684E0,9.320880836E0
9.811780458E0,1.176703033E0,-8.932375031E0,2.039508820E0,9.237507778E0
9.821823458E0,1.211879883E0,-8.833430786E0,1.991758118E0,9.135931956E0
9.831865458E0,1.222507782E0,-8.790769501E0,1.959874420E0,9.089183761E0
9.841908458E0,1.183738403E0,-8.845555573E0,1.966760101E0,9.138557615E0
9.851951458E0,1.098116455E0,-9.047036591E0,2.014061737E0,9.333336783E0
9.861994458E0,9.571096802E-1,-9.323062592E0,2.050136719E0,9.593675812E0
9.872036458E0,7.952961731E-1,-9.593699799E0,2.084864502E0,9.849783339E0
9.882079458E0,7.411088562E-1,-9.811646576E0,2.087259521E0,1.005854379E1
9.892122458E0,7.949967957E-1,-9.990823975E0,2.112107849E0,1.024253793E1
9.902165458E0,8.562194824E-1,-1.004680756E1,2.123484192E0,1.030439901E1
9.912207458E0,9.107061768E-1,-9.981094208E0,2.114203491E0,1.024311885E1
9.922250458E0,8.903485107E-1,-9.797875214E0,2.106868744E0,1.006131080E1
9.932293458E0,8.542735291E-1,-9.721234589E0,2.073937225E0,9.976642762E0
9.942336458E0,8.400531006E-1,-9.850865021E0,2.026635590E0,1.009219910E1
9.952378458E0,8.173004150E-1,-1.010309052E1,2.009122009E0,1.033329517E1
9.962421458E0,7.361691284E-1,-1.035531601E1,1.982477417E0,1.056904591E1
9.972464458E0,5.780978394E-1,-1.040890457E1,1.905537415E0,1.059766787E1
9.982507458E0,3.288661194E-1,-1.029439270E1,1.750010834E0,1.044725858E1
9.992549458E0,2.888992310E-2,-1.041998154E1,1.573078766E0,1.053809407E1
1.000259246E1,-2.371069336E-1,-1.091604996E1,1.277293854E0,1.099308173E1
1.001263546E1,-6.761439514E-1,-1.204530167E1,4.067042542E-1,1.207111723E1
1.002267846E1,-1.332528992E0,-1.346914078E1,-1.209634552E0,1.358884110E1
1.003272046E1,-1.900447998E0,-1.410741348E1,-2.740351410E0,1.449621825E1
1.004276346E1,-2.502795410E0,-1.439331894E1,-8.581205292E0,1.694310182E1
1.005280646E1,-2.564018097E0,-1.446277451E1,-1.741298950E1,2.278065492E1
1.006284946E1,-2.315235443E0,-1.448283279E1,-1.384261414E1,2.016756621E1
1.007289146E1,-2.073937225E0,-1.472398132E1,-7.310946808E0,1.656945337E1
1.008293446E1,-1.862726440E0,-1.467144058E1,-3.038681030E0,1.509816217E1
1.009297746E1,-1.361718292E0,-1.397239426E1,-1.013692017E0,1.407514296E1
1.010302046E1,-5.632786560E-1,-1.309536804E1,-4.126918030E-1,1.311397200E1
1.011306246E1,-3.001258850E-1,-1.226519440E1,-3.206332397E-1,1.227305483E1
1.012310546E1,4.520599365E-2,-1.179891403E1,4.730163574E-2,1.179909545E1
1.013314846E1,9.629475403E-1,-1.224857895E1,1.384920044E0,1.236418043E1
1.014319046E1,2.215093689E0,-1.306977127E1,2.624043274E0,1.351336983E1
1.015323346E1,3.128943329E0,-1.376253067E1,3.467389526E0,1.453342103E1
1.016327646E1,3.245550842E0,-1.440783875E1,4.754862213E0,1.551541595E1
1.017331946E1,3.751947784E0,-1.518068161E1,6.114185486E0,1.679027905E1
1.018336146E1,4.543651428E0,-1.567794754E1,6.215075684E0,1.746625241E1
1.019340446E1,4.499792633E0,-1.543365555E1,5.404960327E0,1.696052633E1
1.020344746E1,3.908522186E0,-1.461276260E1,4.123175812E0,1.567832757E1
1.021349046E1,3.558999023E0,-1.321496933E1,2.148482208E0,1.385344232E1
1.022353246E1,3.708987122E0,-1.128293701E1,6.376739502E-2,1.187709221E1
1.023357546E1,3.578907623E0,-1.004052063E1,-5.498066711E-1,1.067346812E1
1.024361846E1,3.271746368E0,-9.348509674E0,2.008822632E-1,9.906528711E0
1.025366146E1,2.913690948E0,-8.856931915E0,1.538800049E0,9.450012883E0
1.026370346E1,2.613864441E0,-8.409811707E0,2.890489197E0,9.268880626E0
1.027374646E1,2.020049286E0,-7.866741028E0,3.861519928E0,8.993194631E0
1.028378946E1,9.940827942E-1,-7.309300232E0,4.090992737E0,8.435063251E0
1.029383246E1,3.143463135E-2,-6.701114960E0,3.847149811E0,7.726997574E0
1.030387446E1,-9.656419373E-1,-6.323450317E0,3.449875946E0,7.267746027E0
1.031391746E1,-1.414109344E0,-5.967191162E0,3.161276093E0,6.899329108E0
1.032396046E1,-4.816983032E-1,-5.252726898E0,2.965932312E0,6.051440126E0
1.033400346E1,1.091380463E0,-4.661606140E0,2.934198303E0,5.615265159E0
1.034404546E1,1.798659668E0,-4.409530334E0,3.081791382E0,5.672439730E0
1.035408846E1,2.216440887E0,-4.221371613E0,2.950813751E0,5.607128525E0
1.036413146E1,2.733765106E0,-4.041595459E0,2.657723236E0,5.556208987E0
1.037417446E1,3.371738434E0,-3.699856110E0,2.744991760E0,5.708987219E0
1.038421646E1,3.804338837E0,-3.262465668E0,2.650987244E0,5.669604006E0
1.039425946E1,3.858376465E0,-2.783162384E0,2.292183380E0,5.280830091E0
1.040430246E1,3.762126617E0,-2.506986694E0,1.777553558E0,4.857805639E0
1.041434546E1,3.449726257E0,-2.821931763E0,9.318122864E-1,4.553260838E0
1.042438746E1,2.951711884E0,-3.900139618E0,5.523513794E-2,4.891497010E0
1.043443046E1,2.233355713E0,-5.680986328E0,-8.283773804E-1,6.160169842E0
1.044447346E1,1.209035797E0,-7.848329315E0,-1.993853760E0,8.187398452E0
1.045451546E1,-7.244934082E-2,-1.043405228E1,-5.198988647E0,1.165779476E1
1.046455846E1,-1.880539398E0,-1.357257568E1,-1.071112610E1,1.739193668E1
1.047460146E1,-5.114264832E0,-1.671798477E1,-1.421114777E1,2.253005638E1
1.048464446E1,-8.773555298E0,-1.924488007E1,-1.393167892E1,2.532651494E1
1.049468646E1,-1.044063858E1,-2.016666321E1,-1.028136978E1,2.492805254E1
1.050472946E1,-8.689130859E0,-1.956356735E1,-5.951922913E0,2.221845064E1
1.051477246E1,-5.212760010E0,-1.742810806E1,-3.963757324E0,1.861781914E1
1.052481546E1,-3.640429688E0,-1.390533371E1,-3.733386383E0,1.485089922E1
1.053485746E1,-3.965254211E0,-1.042087967E1,-2.807561646E0,1.149784225E1
1.054490046E1,-3.510948944E0,-7.955656128E0,-1.622625732E0,8.846024032E0
1.055494346E1,-2.122885437E0,-6.110742645E0,-5.451663208E-1,6.491919945E0
1.056498646E1,-1.105002136E0,-4.630620575E0,1.077309723E0,4.881011460E0
1.057502846E1,-3.520678711E-1,-3.373534698E0,2.721939697E0,4.348981934E0
1.058507146E1,6.406677246E-1,-3.328927460E0,3.200494537E0,4.662121668E0
1.059511446E1,1.521885223E0,-5.078938293E0,2.917882233E0,6.051924119E0
1.060515746E1,2.333946533E0,-7.779771881E0,2.289788361E0,8.438915077E0
1.061519946E1,3.638783112E0,-1.100571350E1,1.679657135E0,1.171271618E1
1.062524246E1,5.171595612E0,-1.475541595E1,8.753796387E-1,1.565994862E1
1.063528546E1,6.420598297E0,-1.934053116E1,-3.375031586E0,2.065601767E1
1.064532846E1,7.587272186E0,-2.272469376E1,-7.518714752E0,2.510994777E1
1.065537046E1,7.995922394E0,-1.988599686E1,-3.907923431E0,2.178668197E1
1.066541346E1,7.490124207E0,-1.250275040E1,-4.993615723E-1,1.458321261E1
1.067545646E1,6.829996948E0,-7.650440826E0,1.530267792E0,1.036917657E1
1.068549946E1,6.378086700E0,-5.347779236E0,3.341651001E0,8.969133967E0
1.069554146E1,5.417833557E0,-4.352049866E0,3.819158020E0,7.929642266E0
1.070558446E1,4.193529510E0,-4.397106171E0,3.378474426E0,6.952288967E0
1.071562746E1,3.217559052E0,-5.228477325E0,2.806064758E0,6.750085986E0
1.072567046E1,2.494861908E0,-6.305936737E0,2.754871216E0,7.319732884E0
1.073571246E1,2.046544189E0,-7.458988953E0,3.141966248E0,8.348461608E0
1.074575546E1,1.757794647E0,-8.754844208E0,3.582200775E0,9.621294171E0
1.075579787E1,1.492845612E0,-9.882299652E0,4.064198456E0,1.078916788E1
1.076583987E1,1.357676697E0,-1.073881851E1,4.472848663E0,1.171204014E1
1.077588287E1,1.109343109E0,-1.136646332E1,4.554578705E0,1.229517457E1
1.078592587E1,7.065307617E-1,-1.172930878E1,4.290078735E0,1.250922242E1
1.079596887E1,3.652404785E-2,-1.192689789E1,3.941004639E0,1.256119997E1
1.080601087E1,-5.505551147E-1,-1.188977509E1,3.500770111E0,1.240666167E1
1.081605387E1,-1.209784241E0,-1.153710846E1,3.119962006E0,1.201260223E1
1.082609688E1,-1.914219360E0,-1.121258331E1,2.899320831E0,1.173849742E1
1.083613987E1,-2.228865051E0,-1.084255280E1,2.497406616E0,1.134750326E1
1.084618187E1,-3.005899200E0,-1.054467224E1,1.207838287E0,1.103106595E1
1.085622487E1,-3.749103699E0,-1.023002655E1,-1.835183716E-1,1.089692162E1
1.086626787E1,-3.989054718E0,-9.811945953E0,-3.923341370E-1,1.059909274E1
1.087631087E1,-3.995042267E0,-9.419462128E0,-5.755531311E-1,1.024782372E1
1.088635287E1,-3.368445282E0,-8.788823547E0,-8.646020508E-1,9.451845305E0
1.089639587E1,-2.266885986E0,-8.225395203E0,-9.529183960E-1,8.585100569E0
1.090643888E1,-1.310674438E0,-7.782765656E0,-6.236032104E-1,7.916955835E0
1.091648187E1,-6.767427063E-1,-7.369774475E0,-7.933502197E-3,7.400785056E0
1.092652387E1,-2.838098145E-1,-7.174430695E0,5.539979553E-1,7.201383029E0
1.093656687E1,4.266128540E-2,-7.278763733E0,7.511380005E-1,7.317542604E0
1.094660987E1,5.905220032E-1,-7.745642853E0,7.682025146E-1,7.806012717E0
1.095665287E1,9.044192505E-1,-8.478369141E0,6.938072205E-1,8.554652882E0
1.096669487E1,1.014141083E0,-9.090745697E0,5.806425476E-1,9.165548823E0
1.097673787E1,1.105301514E0,-9.653575287E0,4.643344116E-1,9.727734253E0
1.098678088E1,1.151405640E0,-1.020098694E1,2.772235107E-1,1.026950448E1
1.099682388E1,1.155746613E0,-1.060828995E1,-1.805245972E-1,1.067258895E1
1.100686587E1,9.214837646E-1,-1.069091812E1,-9.023236084E-1,1.076842841E1
1.101690887E1,4.861889648E-1,-1.030382309E1,-1.601519623E0,1.043887039E1
1.102695187E1,3.261717224E-1,-9.821675720E0,-1.948198700E0,1.001834218E1
1.103699487E1,4.784051514E-1,-9.646090851E0,-1.757794647E0,9.816607470E0
1.104703687E1,6.997947693E-1,-9.762997742E0,-9.654922485E-1,9.835548429E0
1.105707987E1,7.381150818E-1,-9.986932068E0,3.323089600E-2,1.001422640E1
1.106712288E1,5.412744141E-1,-1.027119095E1,7.816744995E-1,1.031510332E1
1.107716487E1,4.939727783E-3,-1.061697189E1,1.454375610E0,1.071612453E1
1.108720787E1,-8.505313110E-1,-1.101783829E1,2.273322601E0,1.128202817E1
1.109725087E1,-2.004930725E0,-1.132470016E1,2.660866699E0,1.180460896E1
1.110729387E1,-2.690205688E0,-1.133847153E1,2.287093964E0,1.187556070E1
1.111733587E1,-3.046913910E0,-1.158246414E1,1.426982574E0,1.206123705E1
1.112737887E1,-3.664529572E0,-1.243868362E1,5.243595886E-1,1.297784960E1
1.113742187E1,-4.321213989E0,-1.343815521E1,-4.840933228E-1,1.412413722E1
1.114746487E1,-4.721032562E0,-1.407822418E1,-2.097288666E0,1.499610497E1
1.115750687E1,-4.889132996E0,-1.451726120E1,-3.939208374E0,1.581682196E1
1.116754987E1,-4.658462677E0,-1.451112396E1,-5.302573242E0,1.613664389E1
1.117759287E1,-3.412753143E0,-1.432730621E1,-5.793552246E0,1.582668111E1
1.118763587E1,-1.920655975E0,-1.434452042E1,-4.685406647E0,1.521207484E1
1.119767787E1,-1.213376770E0,-1.470916214E1,-3.300037537E0,1.512355718E1
1.120772087E1,-1.353186035E-1,-1.511945892E1,-2.371817780E0,1.530496223E1
1.121776387E1,1.905986481E0,-1.522049881E1,-2.520159302E0,1.554501757E1
1.122780687E1,3.776496735E0,-1.529728912E1,-1.857187958E0,1.586562729E1
1.123784887E1,4.875211945E0,-1.527842834E1,-2.189945984E-1,1.603889095E1
1.124789187E1,5.235812073E0,-1.524025772E1,1.125060425E0,1.615379040E1
1.125793487E1,5.198090515E0,-1.575099564E1,2.157912598E0,1.672634435E1
1.126797787E1,5.235063629E0,-1.646037048E1,3.173251190E0,1.756186809E1
1.127801987E1,5.376669159E0,-1.698443069E1,4.206851807E0,1.830511020E1
1.128806287E1,5.451363831E0,-1.693413528E1,5.146896973E0,1.851952629E1
1.129810587E1,5.099894714E0,-1.566537369E1,5.103487244E0,1.724698353E1
1.130814887E1,4.047583008E0,-1.309117676E1,4.909340973E0,1.455553042E1
1.131819087E1,2.971770172E0,-1.080019089E1,4.939278717E0,1.224222265E1
1.132823387E1,2.262545013E0,-9.139993286E0,4.427043915E0,1.040467707E1
1.133827687E1,2.240989838E0,-7.840994568E0,3.810625763E0,9.001338788E0
1.134831987E1,2.405497742E0,-6.843468933E0,2.687960358E0,7.735930281E0
1.135836187E1,2.511177979E0,-6.012247467E0,1.968855743E0,6.806579713E0
1.136840487E1,2.186054077E0,-5.519172821E0,2.411185913E0,6.407333187E0
1.137844787E1,1.673519897E0,-5.271887054E0,3.135529633E0,6.358066376E0
1.138848988E1,8.586145020E-1,-5.251828766E0,3.598516846E0,6.424036717E0
1.139853287E1,2.216889954E-1,-5.389392700E0,3.482657776E0,6.420561103E0
1.140857587E1,1.148112488E-1,-5.328319702E0,3.222498779E0,6.228055142E0
1.141861887E1,4.495152283E-1,-5.142855377E0,3.387904816E0,6.174862299E0
1.142866087E1,1.032253418E0,-4.921465759E0,3.640279999E0,6.207899066E0
1.143870387E1,1.696422272E0,-4.559967499E0,3.685485992E0,6.103602143E0
1.144874687E1,2.362387390E0,-4.187242584E0,3.520079956E0,5.958593587E0
1.145878987E1,2.740501099E0,-3.902684326E0,3.600013733E0,5.975064025E0
1.146883188E1,3.170257416E0,-3.464994507E0,3.519630890E0,5.868945443E0
1.147887487E1,3.594475250E0,-3.005899200E0,3.314856720E0,5.739682692E0
1.148891787E1,3.840713196E0,-2.551593933E0,3.000660095E0,5.501424403E0
1.149896087E1,3.901037750E0,-2.103126526E0,2.827470245E0,5.256978667E0
1.150900287E1,4.063150635E0,-1.904938660E0,2.065554657E0,4.940091135E0
1.151904587E1,3.942800903E0,-1.923500061E0,7.906558228E-1,4.457652754E0
1.152908887E1,3.805386658E0,-2.589315491E0,-4.257147217E-1,4.622418777E0
1.153913187E1,3.266956329E0,-4.786296844E0,-2.250120850E0,6.216484938E0
1.154917388E1,1.609453125E0,-8.228838043E0,-6.936126251E0,1.088181797E1
1.155921688E1,-2.094743958E0,-1.359023895E1,-2.021875488E1,2.445159700E1
1.156925987E1,-7.599696350E0,-2.008403503E1,-2.422786789E1,3.237458000E1
1.157930287E1,-1.032927017E1,-2.477932114E1,-1.307261536E1,2.985970279E1
1.158934487E1,-1.023571472E1,-2.747521500E1,-6.430627441E0,3.001683301E1
1.159938787E1,-7.340884552E0,-2.550052139E1,-4.539909210E0,2.692166326E1
1.160943087E1,-3.455414429E0,-1.914638489E1,-3.503165131E0,1.976856366E1
1.161947287E1,-3.130140839E0,-1.262699203E1,-2.488874359E0,1.324512005E1
1.162951588E1,-2.541265411E0,-8.516090698E0,-2.115401001E0,9.135466713E0
1.163955888E1,-1.379830627E0,-5.349126434E0,-1.361119537E0,5.689440444E0
1.164960187E1,8.577163696E-2,-2.251617737E0,-3.912863159E-1,2.286972712E0
1.165964387E1,1.246158600E0,-2.270777893E-1,9.605525208E-1,1.589697054E0
1.166968687E1,2.725083160E0,-8.415499878E-1,1.982178040E0,3.473228238E0
1.167972987E1,4.169729004E0,-3.898043976E0,2.545007629E0,6.249676043E0
1.168977287E1,4.482877808E0,-8.013286285E0,3.539539490E0,9.840594003E0
1.169981487E1,4.119433594E0,-1.305764648E1,4.310885468E0,1.435463682E1
1.170985787E1,3.304977264E0,-1.866693192E1,2.447111206E0,1.911453832E1
1.171990088E1,1.381776581E0,-2.662662964E1,-1.034947815E1,2.860067150E1
1.172994387E1,2.613864441E0,-2.527988022E1,-5.437293091E0,2.598978236E1
1.173998587E1,3.462300110E0,-1.607881393E1,4.608915710E-1,1.645382024E1
1.175002883E1,3.371588745E0,-9.797875214E0,2.558629303E0,1.067298240E1
1.176007183E1,2.962489471E0,-6.118376770E0,4.681814117E0,8.254105742E0
1.177011483E1,2.688708801E0,-4.148323517E0,4.967270508E0,7.007961138E0
1.178015683E1,2.785707092E0,-3.767814789E0,4.082161102E0,6.214549988E0
1.179019983E1,2.923121338E0,-4.648433533E0,3.275488586E0,6.393856281E0
1.180024283E1,2.593806152E0,-5.864355011E0,2.488125916E0,6.878172768E0
1.181028583E1,2.382295990E0,-7.023245087E0,2.071242828E0,7.700087830E0
1.182032783E1,2.515219574E0,-8.344248047E0,2.128723297E0,8.971302461E0
1.183037083E1,2.752775574E0,-9.812544708E0,2.612367554E0,1.052084936E1
1.184041383E1,2.551743622E0,-1.094718521E1,3.401825867E0,1.174413380E1
1.185045683E1,1.995200958E0,-1.144011017E1,3.987557831E0,1.227833722E1
1.186049883E1,1.334325256E0,-1.145043869E1,4.331243134E0,1.231473253E1
1.187054183E1,9.184899902E-1,-1.097442856E1,4.567901001E0,1.192255952E1
1.188058483E1,3.185375977E-1,-1.018796402E1,4.651576996E0,1.120416198E1
1.189062683E1,-1.283580780E0,-9.688003693E0,4.228706360E0,1.064833098E1
1.190066983E1,-1.271605682E0,-9.400751038E0,4.316124573E0,1.042209348E1
1.191071283E1,-1.341061249E0,-9.228159943E0,3.677103424E0,1.002389499E1
1.192075583E1,-1.864223328E0,-9.604178009E0,3.184328156E0,1.028861068E1
1.193079783E1,-2.306104431E0,-9.854158173E0,2.322570190E0,1.038349090E1
1.194084083E1,-2.284998322E0,-9.930050354E0,1.192570038E0,1.025911013E1
1.195088383E1,-1.954635315E0,-9.847871246E0,-4.969665527E-2,1.004010145E1
1.196092683E1,-1.880090332E0,-9.904004517E0,-1.563798065E0,1.020144644E1
1.197096883E1,-1.903292084E0,-9.783654785E0,-2.157762909E0,1.019795874E1
1.198101183E1,-1.657802582E0,-9.484726410E0,-2.082918549E0,9.851238204E0
1.199105483E1,-1.035546570E0,-9.042994995E0,-1.602866821E0,9.242147869E0
1.200109783E1,7.110214233E-2,-8.474626923E0,-1.210682373E0,8.560964245E0
1.201113983E1,8.171507263E-1,-8.140372009E0,-1.040635986E0,8.247200435E0
1.202118283E1,1.041534119E0,-8.127498779E0,-9.599537659E-1,8.250002482E0
1.203122583E1,1.109343109E0,-8.618178406E0,-9.000782776E-1,8.735775986E0
1.204126883E1,1.302740936E0,-9.273365936E0,-7.714956665E-1,9.396151090E0
1.205131083E1,1.458417206E0,-9.726473694E0,-5.448669434E-1,9.850286861E0
1.206135383E1,1.315763855E0,-9.696236572E0,-3.439846802E-1,9.791147208E0
1.207139683E1,8.152047729E-1,-9.280251617E0,-2.436932373E-1,9.319174604E0
1.208143983E1,9.580078125E-3,-8.955277405E0,-2.942880249E-1,8.960116663E0
1.209148183E1,-6.532415771E-1,-9.044342194E0,-2.818638611E-1,9.072281825E0
1.210152483E1,-1.034648438E0,-9.438322906E0,-1.785786438E-1,9.496542898E0
1.211156783E1,-1.100661163E0,-9.706714783E0,6.571334839E-2,9.769139425E0
1.212160983E1,-1.005758514E0,-9.871072998E0,4.619393921E-1,9.932926071E0
1.213165283E1,-8.649014282E-1,-1.036070480E1,1.009500732E0,1.044563786E1
1.214169583E1,-1.213077393E0,-1.108864105E1,1.756447449E0,1.129223737E1
1.215173883E1,-2.069895630E0,-1.174397827E1,2.032623138E0,1.209698518E1
1.216178083E1,-2.661615143E0,-1.184920944E1,1.463356934E0,1.223230858E1
1.217182383E1,-2.999761963E0,-1.143112885E1,1.019380188E-1,1.181861540E1
1.218186683E1,-3.465593262E0,-1.126991409E1,-1.617686005E0,1.190118516E1
1.219190983E1,-4.668791199E0,-1.206805435E1,-3.157533875E0,1.331936813E1
1.220195183E1,-5.741161194E0,-1.306138870E1,-4.267625427E0,1.489205941E1
1.221199483E1,-5.864804077E0,-1.336106552E1,-4.247417450E0,1.519718901E1
1.222203783E1,-5.550308075E0,-1.344519058E1,-3.896846466E0,1.505870120E1
1.223208083E1,-5.414390717E0,-1.425979660E1,-4.649930420E0,1.594613680E1
1.224212283E1,-4.301155701E0,-1.542557236E1,-5.050796814E0,1.679162801E1
1.225216583E1,-2.536625061E0,-1.659598846E1,-4.840933228E0,1.747271972E1
1.226220883E1,-1.179247742E0,-1.735146744E1,-4.151466980E0,1.788012096E1
1.227225183E1,2.447410583E-1,-1.778526535E1,-2.156715088E0,1.791722584E1
1.228229383E1,1.864822083E0,-1.775622574E1,2.597099304E-1,1.785577114E1
1.229233683E1,3.572471008E0,-1.747630783E1,1.722917175E0,1.792072343E1
1.230237983E1,4.866679688E0,-1.738873993E1,2.600242767E0,1.824319352E1
1.231242283E1,5.435197449E0,-1.793899567E1,3.604953461E0,1.908781355E1
1.232246483E1,5.816155243E0,-1.854598343E1,5.001100159E0,2.006968276E1
1.233250783E1,6.303541718E0,-1.880434616E1,6.766379242E0,2.095523707E1
1.234255083E1,7.151678009E0,-1.820963287E1,7.463778992E0,2.093908366E1
1.235259283E1,6.731202393E0,-1.602133347E1,7.008575592E0,1.873799198E1
1.236263583E1,4.602329407E0,-1.297546738E1,5.941594391E0,1.499489025E1
1.237267883E1,2.881058807E0,-1.006536896E1,4.968917084E0,1.158888645E1
1.238272183E1,2.202070770E0,-7.904013519E0,4.254901886E0,9.242658462E0
1.239276383E1,2.230811005E0,-6.562802582E0,3.485052795E0,7.758381819E0
1.240280683E1,2.123933258E0,-5.788013763E0,2.635868683E0,6.705221810E0
1.241284983E1,1.727557526E0,-5.095553741E0,1.907034302E0,5.708406324E0
1.242289283E1,1.365310822E0,-4.515060883E0,9.385482788E-1,4.809440849E0
1.243293483E1,8.589138794E-1,-4.175117798E0,6.345304871E-1,4.309520927E0
1.244297783E1,4.108955383E-1,-4.152065735E0,1.374142456E0,4.392806904E0
1.245302083E1,5.760021973E-1,-4.199217682E0,2.092947693E0,4.727117273E0
1.246306383E1,9.937834167E-1,-4.346960449E0,2.653082886E0,5.188691494E0
1.247310583E1,1.473535767E0,-4.366419983E0,2.992726593E0,5.494847003E0
1.248314883E1,1.872755585E0,-4.210893402E0,3.395239563E0,5.724201989E0
1.249319183E1,2.353555756E0,-4.079616394E0,3.760629730E0,6.027008428E0
1.250323483E1,2.905607758E0,-3.937561798E0,3.808979187E0,6.201231475E0
1.251327683E1,3.163371735E0,-3.787723389E0,3.541485443E0,6.074198576E0
1.252331983E1,3.339405670E0,-3.633394318E0,3.087928619E0,5.821381937E0
1.253336283E1,3.637735291E0,-3.417543182E0,2.668051758E0,5.659613028E0
1.254340583E1,3.888314209E0,-3.195854187E0,2.488724670E0,5.614821623E0
1.255344783E1,3.920646973E0,-2.834355927E0,2.175426178E0,5.304481620E0
1.256349083E1,3.971391449E0,-2.609224091E0,1.880689087E0,5.110478631E0
1.257353383E1,4.049229584E0,-2.870730286E0,1.329086151E0,5.138465003E0
1.258357583E1,4.200415192E0,-3.981869659E0,-1.603166199E-1,5.790032399E0
1.259361883E1,4.018693085E0,-6.209387512E0,-2.784659271E0,7.903209136E0
1.260366183E1,1.891766052E0,-9.793683929E0,-1.079210770E1,1.469573449E1
1.261370483E1,-3.211571503E0,-1.555235870E1,-2.362162857E1,2.846350978E1
1.262374683E1,-8.877588959E0,-2.148377426E1,-2.094878677E1,3.129242416E1
1.263378983E1,-1.155761581E1,-2.550830521E1,-1.092263626E1,3.005920991E1
1.264383283E1,-1.137963593E1,-2.702076004E1,-5.854475555E0,2.989803457E1
1.265387583E1,-7.849676514E0,-2.396621201E1,-4.429738312E0,2.560506436E1
1.266391783E1,-4.008663940E0,-1.717303848E1,-3.250340881E0,1.793174150E1
1.267396083E1,-3.725303192E0,-1.106259521E1,-2.323618011E0,1.190202073E1
1.268400383E1,-3.072211304E0,-7.421417084E0,-1.915117493E0,8.257335456E0
1.269404683E1,-1.842368774E0,-4.796176300E0,-9.903405762E-1,5.232437698E0
1.270408883E1,-2.676434326E-1,-2.568359070E0,-2.978805542E-2,2.582438508E0
1.271413183E1,1.153650970E0,-1.066083069E0,1.164278870E0,1.955246521E0
1.272417483E1,2.608924713E0,-1.356628876E0,2.098037109E0,3.612297022E0
1.273421783E1,4.217779083E0,-3.733985138E0,2.175426178E0,6.038607825E0
1.274425983E1,4.944517822E0,-6.641239471E0,2.382595367E0,8.615745986E0
1.275430258E1,4.863386536E0,-9.782008209E0,2.912044373E0,1.130576029E1
1.276434558E1,4.489015045E0,-1.316063232E1,3.967649231E0,1.446014314E1
1.277438758E1,4.542603607E0,-1.638238266E1,4.957840118E0,1.770869526E1
1.278443058E1,4.884941711E0,-1.872725647E1,4.688250732E0,1.991362562E1
1.279447358E1,2.080373840E0,-2.179018707E1,-4.113446045E0,2.227241896E1
1.280451658E1,-1.591640167E0,-2.045107178E1,-9.996212769E0,2.281893786E1
1.281455858E1,4.819976807E-1,-1.414648224E1,-4.846322021E0,1.496135417E1
1.282460158E1,2.395468597E0,-9.986483002E0,-1.331630859E0,1.035574011E1
1.283464458E1,3.558699646E0,-7.436835022E0,1.629511414E0,8.403937515E0
1.284468758E1,3.686533813E0,-6.001020813E0,2.894231415E0,7.614417761E0
1.285472958E1,3.678750000E0,-5.380561066E0,3.251538391E0,7.283964638E0
1.286477258E1,3.319048004E0,-5.613626404E0,3.504362640E0,7.403339690E0
1.287481558E1,2.534379730E0,-6.439309387E0,3.445085907E0,7.730226575E0
1.288485858E1,2.088606720E0,-7.395970001E0,3.299438782E0,8.363548682E0
1.289490058E1,1.970951385E0,-8.629854126E0,3.325484619E0,9.456102768E0
1.290494358E1,1.865570526E0,-9.866582336E0,3.685336304E0,1.069633134E1
1.291498658E1,1.554367676E0,-1.051832703E1,4.027524719E0,1.136979409E1
1.292502958E1,8.610095215E-1,-1.055335419E1,4.316873016E0,1.143459727E1
1.293507158E1,-3.672612762E0,-1.046743286E1,5.774392090E0,1.250595215E1
1.294511458E1,-4.126468964E0,-1.011431717E1,4.982987823E0,1.200655344E1
1.295515758E1,-2.039808197E0,-1.005833359E1,4.674030304E0,1.127729805E1
1.296519958E1,-1.366508331E0,-9.536668396E0,4.907694397E0,1.081206980E1
1.297524258E1,-4.863386536E-1,-8.811426544E0,4.729265442E0,1.001217832E1
1.298528558E1,-6.384223938E-1,-9.152267761E0,3.201392670E0,9.717021321E0
1.299532858E1,-8.672964478E-1,-1.008647507E1,1.520238647E0,1.023720215E1
1.300537058E1,-5.496569824E-1,-1.035606445E1,1.618135071E-1,1.037190327E1
1.301541358E1,-1.095721436E-1,-9.850415955E0,-1.470841370E0,9.960224639E0
1.302545658E1,1.980381775E-1,-8.907975769E0,-3.358416138E0,9.522090652E0
1.303549958E1,3.749702454E-1,-8.211923218E0,-5.595364380E0,9.944062961E0
1.304554158E1,-1.871109009E-1,-8.259374542E0,-4.741090851E0,9.525241245E0
1.305558458E1,-9.978250122E-1,-8.424481201E0,-2.496059418E0,8.842954873E0
1.306562758E1,-9.003776550E-1,-8.149652710E0,-9.797126770E-1,8.257563572E0
1.307567058E1,-2.547702026E-1,-8.259374542E0,-2.257305908E-1,8.266385545E0
1.308571258E1,2.609074402E-1,-8.972192230E0,2.802172852E-1,8.980357890E0
1.309575558E1,4.683760071E-1,-9.858499146E0,7.702981567E-1,9.899633364E0
1.310579858E1,5.291496277E-1,-1.048479675E1,1.114432526E0,1.055712660E1
1.311584158E1,4.650828552E-1,-1.052057236E1,1.227597198E0,1.060215731E1
1.312588358E1,1.143621826E-1,-9.871222687E0,1.100062408E0,9.932988138E0
1.313592658E1,-4.053570557E-1,-9.206754456E0,7.089257812E-1,9.242900936E0
1.314596958E1,-8.484356689E-1,-9.187594299E0,2.489323425E-1,9.230043305E0
1.315601158E1,-1.111289062E0,-9.922865295E0,-2.249821472E-1,9.987433906E0
1.316605458E1,-1.102756805E0,-1.078971268E1,-4.715194702E-1,1.085616428E1
1.317609758E1,-6.947053528E-1,-1.115270782E1,-2.853067017E-1,1.117796526E1
1.318614058E1,-1.158590698E-1,-1.110795090E1,3.028202820E-1,1.111268179E1
1.319618258E1,2.993774414E-2,-1.113534393E1,1.058598633E0,1.118558947E1
1.320622558E1,-4.013154602E-1,-1.136257141E1,1.612596588E0,1.148344682E1
1.321626858E1,-1.040336609E0,-1.149818939E1,1.846110992E0,1.169182558E1
1.322631158E1,-1.558708649E0,-1.147663422E1,1.534459076E0,1.168320462E1
1.323635358E1,-1.899998932E0,-1.130179779E1,9.138496399E-1,1.149677130E1
1.324639658E1,-2.443818054E0,-1.103879471E1,-5.284011841E-2,1.130619420E1
1.325643958E1,-3.420087891E0,-1.104702759E1,-1.777254181E0,1.170010479E1
1.326648258E1,-4.438869324E0,-1.156420212E1,-3.857178955E0,1.297351768E1
1.327652458E1,-4.939727783E0,-1.214409622E1,-5.481600952E0,1.421013486E1
1.328656758E1,-4.832700348E0,-1.243688736E1,-6.086493073E0,1.466548866E1
1.329661058E1,-4.735702057E0,-1.260738281E1,-6.929689636E0,1.514574441E1
1.330665358E1,-4.881947937E0,-1.295301407E1,-8.431217194E0,1.620800458E1
1.331669558E1,-3.862118683E0,-1.361478790E1,-8.088280334E0,1.630026654E1
1.332673858E1,-2.202220459E0,-1.496587830E1,-4.562512207E0,1.580012043E1
1.333678158E1,-1.206491089E0,-1.663969757E1,-1.492995300E0,1.675005048E1
1.334682358E1,-2.454895020E-2,-1.795920364E1,7.414082336E-1,1.797451764E1
1.335686658E1,1.447340240E0,-1.868549332E1,2.197729797E0,1.886988263E1
1.336690958E1,3.060685272E0,-1.854553436E1,2.983296204E0,1.903167611E1
1.337695258E1,4.346661072E0,-1.795695831E1,3.497476959E0,1.880367409E1
1.338699458E1,5.073848877E0,-1.749442017E1,3.948938141E0,1.863847611E1
1.339703758E1,5.346581726E0,-1.731748810E1,4.700225830E0,1.872360684E1
1.340708058E1,5.521567841E0,-1.696063019E1,5.830974426E0,1.876568545E1
1.341712358E1,5.484744415E0,-1.560250443E1,6.385870514E0,1.772850552E1
1.342716558E1,4.763843536E0,-1.335882019E1,6.473588104E0,1.559036963E1
1.343720858E1,4.012555847E0,-1.098251175E1,5.721102905E0,1.301718814E1
1.344725158E1,3.455863495E0,-9.040450287E0,4.387077026E0,1.062634362E1
1.345729458E1,3.272045746E0,-7.690707092E0,3.320993958E0,8.993456499E0
1.346733658E1,3.205434265E0,-6.889123993E0,2.340981903E0,7.950788294E0
1.347737958E1,2.887345734E0,-6.353238373E0,1.095571747E0,7.064041383E0
1.348742258E1,2.380050659E0,-5.984854431E0,1.490899658E-1,6.442464708E0
1.349746558E1,1.747466125E0,-5.731281738E0,-1.442999268E-1,5.993500704E0
1.350750758E1,1.063238983E0,-5.739065552E0,4.625381470E-1,5.855022808E0
1.351755058E1,7.220983887E-1,-5.939498749E0,1.457818451E0,6.158271357E0
1.352759358E1,8.039781189E-1,-5.962700500E0,2.262994080E0,6.428166168E0
1.353763558E1,1.121467896E0,-5.960754547E0,2.875071259E0,6.712251467E0
1.354767858E1,1.565444641E0,-5.735173645E0,3.221750336E0,6.761842122E0
1.355772158E1,2.014660492E0,-5.189408569E0,3.312162323E0,6.477595036E0
1.356776458E1,2.654430084E0,-4.544998627E0,3.352278900E0,6.240255236E0
1.357780658E1,3.071163483E0,-3.893852692E0,3.371888123E0,5.996979526E0
1.358784958E1,3.243604889E0,-3.331172791E0,3.260070648E0,5.678533743E0
1.359789258E1,3.411555634E0,-2.884501648E0,3.075205078E0,5.423647100E0
1.360793558E1,3.693569183E0,-2.673590240E0,2.820734253E0,5.361630332E0
1.361797758E1,4.090094604E0,-2.637515259E0,2.501298523E0,5.471915105E0
1.362802058E1,4.312082977E0,-2.571203156E0,1.878294067E0,5.360329642E0
1.363806358E1,4.354594574E0,-2.673590240E0,9.973759460E-1,5.206278657E0
1.364810658E1,4.468507690E0,-3.401376801E0,-4.745132446E-1,5.635786364E0
1.365814858E1,4.456682281E0,-5.026547241E0,-2.148033142E0,7.052817912E0
1.366819158E1,2.777324524E0,-7.579188995E0,-4.221221924E0,9.109135627E0
1.367823458E1,-7.062313843E-1,-1.112291977E1,-1.067355423E1,1.543187827E1
1.368827758E1,-5.043013000E0,-1.625170441E1,-1.879581390E1,2.535414161E1
1.369831958E1,-9.274114380E0,-2.107467499E1,-1.575593536E1,2.789983195E1
1.370836258E1,-1.273476791E1,-2.427666641E1,-1.040935364E1,2.932380414E1
1.371840558E1,-1.333951035E1,-2.451152802E1,-6.755751343E0,2.871232694E1
1.372844758E1,-9.214687958E0,-2.087109833E1,-4.122577057E0,2.318423734E1
1.373849058E1,-4.272714844E0,-1.491393631E1,-2.842439117E0,1.577216055E1
1.374853358E1,-2.908002777E0,-1.001866608E1,-2.265987854E0,1.067543213E1
1.375857696E1,-2.052382050E0,-7.478747864E0,-1.906435547E0,7.986140381E0
1.376861896E1,-1.054407349E0,-5.431455231E0,-1.022972717E0,5.626629005E0
1.377866196E1,3.600013733E-1,-3.856131134E0,1.143621826E-1,3.874587336E0
1.378870496E1,2.420017548E0,-4.129612427E0,7.605683899E-1,4.846508847E0
1.379874796E1,4.221820679E0,-6.446943512E0,9.960287476E-1,7.770387619E0
1.380878996E1,4.579726410E0,-8.976682892E0,1.110390930E0,1.013842679E1
1.381883296E1,4.506828003E0,-1.164114212E1,1.253792725E0,1.254590310E1
1.382887596E1,4.349804535E0,-1.438538544E1,1.739532623E0,1.512898170E1
1.383891896E1,4.006418610E0,-1.674328217E1,1.847158813E0,1.731475912E1
1.384896096E1,1.810784454E0,-1.876916931E1,-4.073030090E0,1.929119569E1
1.385900396E1,-7.581733704E-1,-1.705059311E1,-7.828570404E0,1.877722202E1
1.386904696E1,7.138655090E-1,-1.368783600E1,-2.919379120E0,1.401389427E1
1.387908896E1,1.798659668E0,-1.175041489E1,4.028123474E-1,1.189410293E1
1.388913196E1,2.348616028E0,-9.676327972E0,2.375260620E0,1.023665880E1
1.389917496E1,2.700983276E0,-7.894433441E0,3.134481812E0,8.913044723E0
1.390921796E1,2.816842346E0,-6.621779938E0,3.099903717E0,7.835303019E0
1.391925996E1,2.837798767E0,-6.100264435E0,3.123853912E0,7.417869727E0
1.392930296E1,2.542911987E0,-6.163433075E0,3.121608582E0,7.361979950E0
1.393934596E1,2.279310150E0,-6.591093750E0,3.052302704E0,7.612773698E0
1.394938896E1,2.144739990E0,-7.211403809E0,3.105741577E0,8.139403250E0
1.395943096E1,2.162253571E0,-8.072263641E0,3.232228546E0,8.960138513E0
1.396947396E1,2.114053802E0,-9.103469238E0,3.489244080E0,9.975830787E0
1.397951696E1,1.754351807E0,-9.903106384E0,3.673660583E0,1.070724280E1
1.398955996E1,1.100361786E0,-1.031145721E1,3.636238403E0,1.098904799E1
1.399960196E1,5.800437927E-1,-1.035426819E1,3.624412994E0,1.098561287E1
1.400964496E1,-8.966354370E-2,-1.022089554E1,3.828588409E0,1.091479887E1
1.401968796E1,-9.765692139E-1,-1.004531067E1,3.933969269E0,1.083226976E1
1.402973096E1,-1.762734375E0,-1.002884491E1,3.794010315E0,1.086643810E1
1.403977296E1,-2.032772827E0,-1.022179367E1,3.603157196E0,1.102723778E1
1.404981596E1,-2.399510193E0,-1.052985306E1,2.967728577E0,1.120012801E1
1.405985896E1,-2.898722076E0,-1.108564728E1,1.501228180E0,1.155629055E1
1.406990096E1,-3.168461151E0,-1.106424179E1,-1.766326904E-1,1.151033412E1
1.407994396E1,-2.945424957E0,-1.061846878E1,-1.676513672E0,1.114621485E1
1.408998696E1,-2.395618286E0,-1.011282028E1,-3.535048828E0,1.097746288E1
1.410002996E1,-1.811233521E0,-9.503287811E0,-4.569248199E0,1.069911563E1
1.411007196E1,-1.223256226E0,-9.029523010E0,-4.108805695E0,9.995545299E0
1.412011496E1,-6.376739502E-1,-8.780141602E0,-2.643951874E0,9.191735207E0
1.413015796E1,-1.468446350E-1,-8.829389191E0,-1.220861206E0,8.914604810E0
1.414020096E1,3.103047180E-1,-9.052425385E0,-5.081932068E-1,9.071987362E0
1.415024296E1,7.696994019E-1,-9.193581848E0,-3.382965088E-1,9.231946106E0
1.416028596E1,9.868977356E-1,-9.310339050E0,-3.342549133E-1,9.368463413E0
1.417032896E1,9.136999512E-1,-9.386680298E0,-2.993774414E-1,9.435795752E0
1.418037196E1,5.391787720E-1,-9.497300262E0,-1.179547119E-1,9.513324305E0
1.419041396E1,-1.975891113E-2,-9.517508240E0,1.604663086E-1,9.518881391E0
1.420045696E1,-4.885839844E-1,-9.401649170E0,4.736151123E-1,9.426241706E0
1.421049996E1,-8.668473816E-1,-9.274114380E0,7.705975342E-1,9.346359852E0
1.422054296E1,-1.037642212E0,-9.106313324E0,1.021475830E0,9.221987670E0
1.423058496E1,-1.132993927E0,-9.097481689E0,1.286424866E0,9.257577289E0
1.424062796E1,-1.060245209E0,-9.232051849E0,1.487007751E0,9.410956025E0
1.425067096E1,-6.902146912E-1,-9.351353760E0,1.544188843E0,9.503090689E0
1.426071296E1,-4.550537109E-2,-9.147477722E0,1.481020203E0,9.266706009E0
1.427075596E1,5.548960876E-1,-8.957822113E0,1.452279968E0,9.091732716E0
1.428079896E1,9.280700684E-1,-9.352251892E0,1.421444092E0,9.505074056E0
1.429084196E1,1.094224548E0,-1.027253815E1,1.347348175E0,1.041814352E1
1.430088396E1,1.183439026E0,-1.097397949E1,1.130898285E0,1.109539025E1
1.431092696E1,1.030008087E0,-1.131077911E1,7.897576904E-1,1.138500584E1
1.432096996E1,5.960604858E-1,-1.135164413E1,3.243754578E-1,1.137190978E1
1.433101296E1,-2.270777893E-1,-1.134760254E1,-9.475296021E-2,1.135026986E1
1.434105496E1,-1.183738403E0,-1.158111694E1,-4.014651489E-1,1.164837673E1
1.435109796E1,-2.241438904E0,-1.181343384E1,-8.405021667E-1,1.205353522E1
1.436114096E1,-3.254981232E0,-1.187510559E1,-1.619182892E0,1.241912996E1
1.437118396E1,-3.772754517E0,-1.177870605E1,-2.170935516E0,1.255725105E1
1.438122596E1,-3.818708954E0,-1.164922531E1,-2.120789795E0,1.244125146E1
1.439126896E1,-3.810027008E0,-1.189441544E1,-2.336491241E0,1.270640058E1
1.440131196E1,-3.540138245E0,-1.274973679E1,-3.968846741E0,1.381448918E1
1.441135396E1,-2.517764282E0,-1.380055161E1,-5.723497925E0,1.515099964E1
1.442139696E1,-1.396146698E0,-1.476679230E1,-5.735772400E0,1.590303321E1
1.443143996E1,-5.920188904E-1,-1.517858597E1,-4.098028107E0,1.573320669E1
1.444148296E1,3.594026184E-1,-1.478026428E1,-1.988614655E0,1.491777365E1
1.445152496E1,1.563648376E0,-1.413750092E1,-3.900888062E-1,1.422905821E1
1.446156796E1,2.477048950E0,-1.373139542E1,7.640112305E-1,1.397392947E1
1.447161096E1,2.894381104E0,-1.341525284E1,1.739682312E0,1.383376107E1
1.448165396E1,3.346441040E0,-1.298474808E1,2.503094788E0,1.364066838E1
1.449169596E1,3.845802612E0,-1.245949036E1,3.178939362E0,1.342142888E1
1.450173896E1,3.923191681E0,-1.201760925E1,4.217330017E0,1.332667391E1
1.451178196E1,4.114942932E0,-1.168380341E1,5.512586517E0,1.355848913E1
1.452182496E1,4.341421967E0,-1.130838409E1,5.834566956E0,1.344506107E1
1.453186696E1,4.298760681E0,-1.078088104E1,5.129233704E0,1.268919926E1
1.454190996E1,4.295317841E0,-9.807455292E0,4.784799957E0,1.172732899E1
1.455195296E1,4.255051575E0,-8.637787628E0,4.389621735E0,1.058232574E1
1.456199596E1,4.192781067E0,-7.471263428E0,4.051325226E0,9.476941826E0
1.457203796E1,4.116739197E0,-6.552024994E0,3.636687469E0,8.549974789E0
1.458208096E1,3.967200165E0,-6.007906494E0,3.178340607E0,7.869908932E0
1.459212396E1,3.633544006E0,-5.926176453E0,2.753524017E0,7.476904701E0
1.460216596E1,3.200195160E0,-6.092929688E0,2.483934631E0,7.316759699E0
1.461220896E1,2.862198029E0,-6.307882690E0,2.309098206E0,7.301609146E0
1.462225196E1,2.691403198E0,-6.567293243E0,2.165696411E0,7.420460408E0
1.463229496E1,2.711461487E0,-6.797514496E0,2.017953644E0,7.591466500E0
1.464233696E1,2.802921295E0,-7.000193024E0,1.797761536E0,7.751839568E0
1.465237996E1,2.933898926E0,-7.216193848E0,1.544188843E0,7.941393816E0
1.466242296E1,3.086132355E0,-7.500452728E0,1.338666229E0,8.220281705E0
1.467246596E1,3.225642242E0,-7.829169159E0,1.156944122E0,8.546296116E0
1.468250796E1,3.366649017E0,-8.264463959E0,1.014739838E0,8.981391154E0
1.469255096E1,3.575913849E0,-9.053622894E0,7.893086243E-1,9.766179164E0
1.470259396E1,3.685186615E0,-1.009380981E1,4.507127380E-1,1.075494021E1
1.471263596E1,3.296295319E0,-1.077848602E1,-1.231938171E-1,1.127193419E1
1.472267896E1,2.040107574E0,-1.060828995E1,-1.022523651E0,1.085096351E1
1.473272196E1,7.153623962E-1,-1.079989151E1,-2.368225250E0,1.107961601E1
1.474276496E1,-1.797761536E-1,-1.162811920E1,-3.568878479E0,1.216480042E1
1.475280687E1,-6.990463257E-1,-1.210757217E1,-3.772155762E0,1.270083182E1
1.476284987E1,-6.935078430E-1,-1.278611115E1,-3.259172516E0,1.321316755E1
1.477289288E1,-9.915380859E-1,-1.274045609E1,-2.375410309E0,1.299788226E1
1.478293588E1,-9.110055542E-1,-1.268911285E1,-1.496737518E0,1.280951753E1
1.479297787E1,-4.474195862E-1,-1.294403275E1,-1.105002136E0,1.299881524E1
1.480302087E1,-6.732998657E-1,-1.210562622E1,-1.201551361E0,1.218372868E1
1.481306387E1,-1.154100037E0,-1.072624466E1,-1.582209778E0,1.090356177E1
1.482310687E1,-1.470242615E0,-9.589059448E0,-1.679208069E0,9.845375269E0
1.483314887E1,-1.321302338E0,-8.753047943E0,-1.313069458E0,8.949069201E0
1.484319187E1,-1.498384094E-1,-8.215216370E0,-7.649093628E-1,8.252109905E0
1.485323487E1,9.535171509E-1,-7.772137756E0,-2.555186462E-1,7.834577847E0
1.486327788E1,1.701511688E0,-7.786657562E0,4.149371338E-1,7.981187308E0
1.487331987E1,2.754871216E0,-7.472910004E0,8.168513489E-1,8.006306606E0
1.488336287E1,3.654799805E0,-6.730004883E0,1.088536377E0,7.735337018E0
1.489340587E1,4.621040497E0,-6.785240021E0,1.390159149E0,8.326226028E0
1.490344787E1,5.244344330E0,-6.796616364E0,1.701062622E0,8.751614450E0
1.491349087E1,5.819897461E0,-7.236102448E0,1.967957611E0,9.492378113E0
1.492353387E1,5.993985443E0,-7.816744995E0,2.141746216E0,1.008049804E1
1.493357687E1,5.903573456E0,-8.378676453E0,2.158511353E0,1.047442456E1
1.494361887E1,5.816454620E0,-8.942853241E0,1.951791229E0,1.084505682E1
1.495366187E1,5.804329834E0,-9.573491821E0,1.490600281E0,1.129441808E1
1.496370487E1,5.780828705E0,-1.009156448E1,8.907975769E-1,1.166409767E1
1.497374787E1,5.630990295E0,-1.050560349E1,2.571652222E-1,1.192232738E1
1.498378987E1,5.411247253E0,-1.081066910E1,-4.070036316E-1,1.209619011E1
1.499383287E1,4.875511322E0,-1.081710571E1,-8.747808838E-1,1.189729500E1
1.500387587E1,3.935615845E0,-1.033974838E1,-1.052910461E0,1.111341933E1
1.501391887E1,3.114124146E0,-9.837243347E0,-1.037492523E0,1.037041545E1
1.502396087E1,2.689606934E0,-9.690548401E0,-9.770182800E-1,1.010422083E1
1.503400387E1,2.360142059E0,-9.639654236E0,-9.160949707E-1,9.966565824E0
1.504404687E1,1.964215393E0,-9.487720184E0,-8.155041504E-1,9.723169413E0
1.505408887E1,1.538051605E0,-9.458979950E0,-5.066963196E-1,9.596595521E0
1.506413187E1,9.535171509E-1,-9.236093445E0,3.287164307E-1,9.290999493E0
1.507417487E1,-7.065307617E-2,-9.147477722E0,1.326990509E0,9.243497409E0
1.508421787E1,-1.030906219E0,-9.166188812E0,1.829196167E0,9.403602692E0
1.509425988E1,-1.196162567E0,-9.042994995E0,1.717378693E0,9.282023106E0
1.510430287E1,-7.765850830E-1,-9.136999512E0,1.016985168E0,9.226164062E0
1.511434587E1,-2.038760376E-1,-9.370214539E0,2.869532776E-1,9.376823989E0
1.512438887E1,2.808160400E-1,-9.536369019E0,8.307723999E-2,9.540864402E0
1.513443087E1,8.638536072E-1,-9.397757263E0,4.586462402E-1,9.448515281E0
1.514447387E1,1.479673004E0,-9.030121765E0,1.422940979E0,9.260523329E0
1.515451687E1,2.935545502E0,-8.606951752E0,2.614163818E0,9.462076850E0
1.516455987E1,4.030967560E0,-5.638325043E0,6.975494385E-1,6.966059429E0
1.517460188E1,5.414241028E0,-5.653443604E0,8.425978088E-1,7.873080817E0
1.518464488E1,7.408843231E0,-9.142987061E0,6.671626282E-1,1.178686881E1
1.519468787E1,8.801547089E0,-1.263702118E1,7.250921631E-1,1.541711043E1
1.520472987E1,7.670050049E0,-1.315599197E1,1.534908142E0,1.530574192E1
1.521477287E1,5.304219818E0,-1.193333450E1,1.960473175E0,1.320540326E1
1.522481587E1,3.599714355E0,-1.145043869E1,2.228865051E0,1.220812553E1
1.523485887E1,2.973865814E0,-1.011042526E1,2.139650574E0,1.075372872E1
1.524490087E1,2.688708801E0,-8.446036377E0,1.877096558E0,9.060252589E0
1.525494388E1,2.788850555E0,-7.278763733E0,1.407073975E0,7.920728885E0
1.526498688E1,3.107986908E0,-7.495812378E0,1.249302063E0,8.210209587E0
1.527502987E1,3.167563019E0,-8.104746094E0,7.384144592E-1,8.733018987E0
1.528507187E1,3.028502197E0,-8.712332611E0,1.842668152E-1,9.225536263E0
1.529511487E1,2.713108063E0,-1.002764740E1,2.656974792E-1,1.039159578E1
1.530515787E1,2.265987854E0,-1.124566452E1,4.435276794E-1,1.148026081E1
1.531520087E1,1.706152039E0,-1.173305099E1,2.694396973E-2,1.185648204E1
1.532524287E1,9.391470337E-1,-1.196192505E1,-8.310717773E-1,1.202748221E1
1.533528587E1,3.668870544E-1,-1.228674957E1,-1.786684570E0,1.242139537E1
1.534532888E1,-2.823129272E-1,-1.194890213E1,-3.351979523E0,1.241336898E1
1.535537087E1,-1.397194519E0,-1.162243103E1,-6.149062958E0,1.322286016E1
1.536541387E1,-1.711540833E0,-1.143906235E1,-8.363108826E0,1.427316043E1
1.537545687E1,-9.978250122E-1,-1.050335815E1,-8.420888672E0,1.349916862E1
1.538549987E1,9.131011963E-1,-9.303752747E0,-7.098239136E0,1.173791156E1
1.539554187E1,3.757935333E0,-9.310788116E0,-5.518574066E0,1.145720354E1
1.540558487E1,5.321883087E0,-1.001896545E1,-3.731141052E0,1.194250903E1
1.541562787E1,5.658982086E0,-1.060679306E1,-1.460961914E0,1.211043133E1
1.542567088E1,5.187462616E0,-1.092113937E1,8.616082764E-1,1.212119724E1
1.543571287E1,4.693190460E0,-1.078282700E1,3.152294769E0,1.217507113E1
1.544575587E1,4.523892517E0,-1.031834290E1,4.872068481E0,1.227480570E1
1.545579887E1,4.616400146E0,-9.723629608E0,5.516628113E0,1.209517709E1
1.546584187E1,5.481900330E0,-8.883426819E0,5.814957733E0,1.194906845E1
1.547588387E1,6.236481171E0,-7.442373505E0,5.602250061E0,1.121016621E1
1.548592687E1,5.629044342E0,-7.080276489E0,5.384602661E0,1.052665195E1
1.549596987E1,4.251159668E0,-7.191495209E0,4.999004517E0,9.735502453E0
1.550601187E1,2.993025970E0,-7.812553711E0,3.750600586E0,9.168489772E0
1.551605487E1,2.875220947E0,-7.888595581E0,1.631906433E0,8.553359243E0
1.552609787E1,3.647764435E0,-7.245682526E0,-2.127076721E-1,8.114884176E0
1.553614087E1,4.170627136E0,-7.464078369E0,-7.430548096E-1,8.582466257E0
1.554618287E1,4.142485657E0,-8.681197357E0,-1.052162018E0,9.676281304E0
1.555622587E1,3.836671600E0,-9.615554352E0,-1.588347015E0,1.047386179E1
1.556626887E1,3.138972473E0,-1.017134857E1,-1.830992432E0,1.080101908E1
1.557631187E1,2.213147736E0,-1.059302170E1,-2.041903839E0,1.101269735E1
1.558635387E1,1.281036072E0,-1.079614929E1,-2.051184540E0,1.106369066E1
1.559639687E1,8.219407654E-1,-1.047626450E1,-1.743723907E0,1.065214896E1
1.560643987E1,6.026467896E-1,-1.032073792E1,-1.960922241E0,1.052264369E1
1.561648287E1,6.251000977E-1,-1.018990997E1,-1.944606171E0,1.039261798E1
1.562652487E1,6.149212646E-1,-1.004471191E1,-1.751956787E0,1.021487730E1
1.563656787E1,1.017883301E-1,-9.356443176E0,-1.460662537E0,9.470318095E0
1.564661087E1,-6.165678406E-1,-8.550668793E0,-1.254690857E0,8.664198858E0
1.565665288E1,-8.068222046E-1,-8.359815674E0,-4.531077576E-1,8.410873130E0
1.566669587E1,-1.176553345E0,-8.793014832E0,1.958826599E0,9.085064075E0
1.567673887E1,-1.258882141E0,-8.292306061E0,4.851561127E0,9.689415329E0
1.568678187E1,1.103205872E-1,-8.490194550E0,8.298892365E0,1.187296040E1
1.569682387E1,2.621947632E0,-1.023885818E1,1.081560883E1,1.512237483E1
1.570686687E1,5.044509888E0,-1.188827820E1,1.123159378E1,1.711510845E1
1.571690987E1,6.861132202E0,-1.308279419E1,9.343719635E0,1.747969495E1
1.572695287E1,7.642657013E0,-1.319042038E1,3.389252014E0,1.561679946E1
1.573699488E1,9.107061768E0,-1.170505920E1,-9.605375519E0,1.766947152E1
1.574703788E1,9.717791748E0,-8.897048492E0,-1.340447525E1,1.879555546E1
1.575708133E1,7.132218475E0,-7.087461548E0,-1.111738129E1,1.498989053E1
1.576712433E1,4.537364502E0,-5.106331329E0,-9.392368469E0,1.161373677E1
1.577716633E1,1.313069458E0,-9.195378113E-1,-6.211483154E0,6.414999935E0
1.578720933E1,8.318202209E-1,-4.021686859E0,-2.359243927E0,4.736235001E0
1.579725233E1,1.813179474E0,-9.297166443E0,7.902067566E-1,9.505227530E0
1.580729433E1,4.468208313E0,-9.909093933E0,2.618504791E0,1.118085844E1
1.581733733E1,6.385122070E0,-1.044138702E1,3.038082275E0,1.261040407E1
1.582738033E1,6.931036835E0,-1.153246811E1,2.486928406E0,1.368290558E1
1.583742333E1,6.202052765E0,-1.194231583E1,1.401834869E0,1.352957896E1
1.584746533E1,4.477938080E0,-1.118983063E1,-1.734892273E-1,1.205381008E1
1.585750833E1,3.251688080E0,-1.097308136E1,-1.729503479E0,1.157467806E1
1.586755133E1,2.189796295E0,-9.763446808E0,-2.768642578E0,1.038197877E1
1.587759433E1,1.715432739E0,-9.066795502E0,-3.701053619E0,9.942197345E0
1.588763633E1,2.156415710E0,-9.013206940E0,-3.672612762E0,9.968756821E0
1.589767933E1,3.963907013E0,-9.324709167E0,-2.327360229E0,1.039612262E1
1.590772233E1,5.461243286E0,-8.554710388E0,-7.068301392E-1,1.017388111E1
1.591776433E1,6.076164551E0,-8.142317963E0,-7.015910339E-1,1.018377864E1
1.592780733E1,6.523284760E0,-7.733368378E0,-2.287992096E0,1.037271123E1
1.593785033E1,6.673871613E0,-7.234605560E0,-3.194207611E0,1.034809365E1
1.594789333E1,7.284751282E0,-7.916138306E0,-2.409239960E0,1.102439495E1
1.595793533E1,7.743996277E0,-9.044791260E0,-6.560856628E-1,1.192510695E1
1.596797833E1,8.061336365E0,-1.001133133E1,2.341281281E0,1.306497214E1
1.597802133E1,8.306825867E0,-1.108265350E1,4.588108978E0,1.459038412E1
1.598806433E1,7.835905151E0,-1.175894714E1,5.817652130E0,1.528133907E1
1.599810633E1,6.268963623E0,-1.127290787E1,5.754184113E0,1.412405719E1
1.600814933E1,4.948709106E0,-1.019305344E1,4.736749878E0,1.228107730E1
1.601819233E1,4.029919739E0,-9.607770538E0,2.792293396E0,1.078639932E1
1.602823533E1,3.911066895E0,-9.376800842E0,8.448431396E-1,1.019483194E1
1.603827733E1,4.093238068E0,-8.970545654E0,-6.900650024E-1,9.884405744E0
1.604832033E1,3.078947296E0,-8.071365509E0,-1.209484863E0,8.722941664E0
1.605836333E1,2.207609253E0,-7.757468262E0,-7.887098694E-1,8.103944453E0
1.606840533E1,1.513203278E0,-7.654781799E0,8.427474976E-2,7.803369195E0
1.607844833E1,1.213376770E0,-7.837551727E0,4.128414917E-1,7.941658414E0
1.608849133E1,8.331674194E-1,-9.130413208E0,1.264869690E0,9.255188201E0
1.609853433E1,-6.050418091E-1,-9.620943146E0,2.508184204E0,9.960904106E0
1.610857633E1,-6.867718506E-1,-9.617051239E0,3.141666870E0,1.014048326E1
1.611861933E1,1.398092651E-1,-1.039633072E1,3.279081116E0,1.090209209E1
1.612866233E1,-1.618135071E-1,-1.145328278E1,3.451522522E0,1.196314665E1
1.613870533E1,-1.251098328E0,-1.235560638E1,3.643872528E0,1.294233608E1
1.614874733E1,-1.861379242E0,-1.055365356E1,3.793710938E0,1.136822673E1
1.615879033E1,4.671934662E0,-1.221160583E0,6.489455109E0,8.088957551E0
1.616883333E1,1.163021484E1,-3.797602844E-1,4.698878632E0,1.254932570E1
1.617887633E1,7.518115997E0,-9.693542175E0,6.441105652E-1,1.228420557E1
1.618891833E1,2.275268555E0,-1.120719452E1,-1.813029785E0,1.157864988E1
1.619896133E1,-4.005670166E-1,-1.184172501E1,-4.159101105E0,1.255726989E1
1.620900433E1,1.692979431E-1,-9.482630768E0,-7.457042999E0,1.206467730E1
1.621904633E1,4.393363953E-1,-1.074016571E1,-1.038495438E1,1.494628560E1
1.622908933E1,2.640359344E0,-1.260483810E1,-1.144609772E1,1.722981701E1
1.623913233E1,5.593717804E0,-1.086470673E1,-9.421258392E0,1.543021843E1
1.624917533E1,7.280410309E0,-9.645791473E0,-5.820196838E0,1.341343948E1
1.625921733E1,7.142097931E0,-1.078402451E1,-3.015628967E0,1.328151970E1
1.626926033E1,6.282285919E0,-1.049781967E1,-1.918111267E0,1.238347629E1
1.627930333E1,4.637206879E0,-9.528285828E0,-2.424957275E0,1.087071002E1
1.628934633E1,2.836900635E0,-1.024364822E1,-3.837869110E0,1.130086605E1
1.629938833E1,1.218615875E0,-1.160746216E1,-4.914879456E0,1.266389523E1
1.630943133E1,-1.206491089E-1,-1.234991821E1,-4.665348358E0,1.320229190E1
1.631947433E1,-3.101550293E0,-1.409409119E1,-3.113076324E0,1.476327419E1
1.632951733E1,-5.052593079E0,-1.226923599E1,-9.550140381E-1,1.330319136E1
1.633955933E1,-3.729793854E0,-1.032537827E1,8.443940735E-1,1.101080378E1
1.634960233E1,1.515598297E0,-9.275461578E0,9.193881226E-1,9.443330991E0
1.635964533E1,5.398972778E0,-8.258925476E0,7.984396362E-1,9.899306184E0
1.636968733E1,5.960305481E0,-8.445287933E0,1.453627167E0,1.043844632E1
1.637973033E1,5.269791412E0,-8.110434265E0,2.369572449E0,9.958148377E0
1.638977333E1,4.028722229E0,-7.491172028E0,2.989583130E0,9.015867592E0
1.639981633E1,3.426823883E0,-7.209757233E0,3.040776672E0,8.542250526E0
1.640985833E1,4.231550446E0,-7.057823181E0,2.645149384E0,8.643824529E0
1.641990133E1,4.537364502E0,-7.764952698E0,2.346670074E0,9.294569783E0
1.642994433E1,3.455863495E0,-8.762628021E0,2.117646332E0,9.654587942E0
1.643998733E1,2.254012756E0,-8.006849670E0,1.884131927E0,8.528784689E0
1.645002933E1,7.141648865E-1,-7.662715302E0,1.705553284E0,7.882648621E0
1.646007233E1,4.281097412E-1,-8.632398834E0,1.853745117E0,8.839567780E0
1.647011533E1,8.045768738E-1,-8.917855225E0,2.914738770E0,9.416537997E0
1.648015833E1,9.988728333E-1,-9.010063477E0,3.782035217E0,9.822564898E0
1.649020033E1,-1.090781708E0,-1.118129837E1,4.161047058E0,1.198021496E1
1.650024333E1,-2.502046967E0,-1.204679855E1,3.333118744E0,1.274736345E1
1.651028633E1,-2.812052307E0,-1.299208282E1,9.584568787E-1,1.332743388E1
1.652032833E1,-2.515668640E0,-1.232656677E1,-8.607101440E-1,1.261006182E1
1.653037133E1,-3.182980957E0,-1.005474106E1,-9.680369568E-1,1.059085837E1
1.654041433E1,-4.401596832E0,-9.149423676E0,-9.361532593E-1,1.019619494E1
1.655045733E1,-3.709585876E0,-9.524244232E0,-6.505920868E0,1.211607453E1
1.656049933E1,-9.720785522E-1,-6.233038330E0,-1.406744659E1,1.541715788E1
1.657054233E1,2.065854034E0,-7.614665222E0,-1.209948898E1,1.444467075E1
1.658058533E1,2.398162994E0,-1.157991943E1,-6.258934479E0,1.337983485E1
1.659062833E1,-6.346801758E-1,-1.455498276E1,-1.297052765E0,1.462643798E1
1.660067033E1,-2.790347443E0,-1.637160507E1,2.102976837E0,1.674031072E1
1.661071333E1,-2.977458344E0,-1.510673538E1,3.672313385E0,1.582923238E1
