"Time (s)","Acceleration x (m/s^2)","Acceleration y (m/s^2)","Acceleration z (m/s^2)","Absolute acceleration (m/s^2)"
1.947499986E-4,-1.042896286E1,-9.973909149E0,-4.661306763E-1,1.443812342E1
1.020375000E-2,-9.321715393E0,-7.931855621E0,2.043251038E-1,1.224134226E1
2.021175000E-2,-8.557554474E0,-6.421346741E0,-1.993853760E-1,1.070070965E1
3.021975000E-2,-8.078251190E0,-5.661975861E0,-1.194066925E0,9.936896334E0
4.022775000E-2,-7.817343750E0,-5.740861816E0,-2.348316650E0,9.979125653E0
5.023575000E-2,-7.764204254E0,-6.884932709E0,-2.844834137E0,1.076003008E1
6.024375000E-2,-7.845634918E0,-8.243956604E0,-2.501448212E0,1.165221228E1
7.025175000E-2,-7.921377411E0,-8.941056976E0,-2.011217651E0,1.211345188E1
8.025975000E-2,-7.689659271E0,-8.855135651E0,-1.917961578E0,1.188372264E1
9.026875000E-2,-7.017706604E0,-8.090076599E0,-2.261796570E0,1.094592477E1
1.002767500E-1,-5.966742096E0,-6.839277649E0,-2.883603516E0,9.523281957E0
1.102807500E-1,-4.726421356E0,-5.553750916E0,-3.642076263E0,8.151559825E0
1.202887500E-1,-3.602708130E0,-4.430786133E0,-4.075125732E0,7.015555670E0
1.302967500E-1,-2.542163544E0,-3.278182983E0,-4.063300323E0,5.806848429E0
1.403047500E-1,-1.769470367E0,-2.380050659E0,-3.533252563E0,4.612975200E0
1.503127500E-1,-1.258582764E0,-1.580712891E0,-2.980901184E0,3.601174209E0
1.603207500E-1,-8.827143860E-1,-7.816744995E-1,-2.743494873E0,2.986128569E0
1.703297500E-1,-6.149212646E-1,-6.526428223E-2,-2.421514435E0,2.499223829E0
1.803377500E-1,-5.480104065E-1,4.176315308E-1,-2.008074188E0,2.122991627E0
1.903457500E-1,-4.993615723E-1,8.873547363E-1,-1.740281067E0,2.016268484E0
2.003537500E-1,-5.081932068E-1,1.111588440E0,-1.566193085E0,1.986668058E0
2.103617500E-1,-4.757107544E-1,1.099613342E0,-1.451082458E0,1.881778554E0
2.203697500E-1,-4.260140991E-1,7.985893250E-1,-1.164578247E0,1.474949293E0
2.303777500E-1,-4.781057739E-1,1.727407837E-1,-6.303392029E-1,8.097851691E-1
2.403857500E-1,-6.765930176E-1,-4.650828552E-1,-1.555265808E-1,8.356247310E-1
2.503947500E-1,-8.391549683E-1,-1.029559021E0,5.957611084E-2,1.329557126E0
2.604027500E-1,-9.922865295E-1,-1.550924835E0,9.999206543E-2,1.843908570E0
2.704107500E-1,-1.259480896E0,-1.956281891E0,1.094224548E-1,2.329228249E0
2.804187500E-1,-1.691183167E0,-2.263742523E0,2.653981018E-1,2.838144969E0
2.904267500E-1,-2.283202057E0,-2.557132416E0,5.632786560E-1,3.474078391E0
3.004347500E-1,-3.075504456E0,-2.951262817E0,1.081351318E0,4.397499352E0
3.104427500E-1,-3.482059021E0,-3.429518280E0,9.687854004E-1,4.982456805E0
3.204507500E-1,-3.984564056E0,-4.070784760E0,3.749702454E-1,5.708646246E0
3.304597500E-1,-5.557792511E0,-5.601501617E0,-1.415606232E0,8.016845949E0
3.404677500E-1,-8.159382477E0,-7.782017212E0,-4.012705536E0,1.196817112E1
3.504757500E-1,-9.982591095E0,-9.857601013E0,-7.138804779E0,1.574125015E1
3.604837500E-1,-1.015593063E1,-1.148187332E1,-7.477999420E0,1.705569750E1
3.704917500E-1,-1.120599701E1,-1.369457199E1,-7.276668091E0,1.913284008E1
3.804997500E-1,-1.500045639E1,-1.722932144E1,-6.108946381E0,2.364703861E1
3.905077500E-1,-1.925206512E1,-2.110610962E1,-5.842051392E0,2.915886553E1
4.005157500E-1,-2.227637604E1,-2.509830780E1,-7.141199799E0,3.430974670E1
4.105247500E-1,-2.246782791E1,-2.685206085E1,-5.751639404E0,3.548123192E1
4.205327500E-1,-2.054313034E1,-2.620271118E1,-2.159858551E0,3.336565999E1
4.305407500E-1,-1.788480835E1,-2.282348831E1,7.674540710E-1,2.900632645E1
4.405487500E-1,-1.476499603E1,-1.741224106E1,5.403762817E-1,2.283600782E1
4.505567500E-1,-1.259286301E1,-1.315539322E1,-6.795867920E-1,1.822378686E1
4.605647500E-1,-1.122186401E1,-1.015263748E1,-1.433419189E0,1.520068980E1
4.705727500E-1,-1.053973251E1,-8.033943329E0,-1.859732666E0,1.338240683E1
4.805807500E-1,-1.026041336E1,-7.024592285E0,-1.707648926E0,1.255137618E1
4.905897500E-1,-9.986932068E0,-6.859186249E0,-1.141226807E0,1.216920896E1
5.005977500E-1,-9.485175476E0,-7.074288940E0,-8.614585876E-1,1.186407302E1
5.106057500E-1,-8.594527588E0,-7.045848083E0,-9.653425598E-1,1.115534697E1
5.206137500E-1,-7.423961792E0,-6.304589539E0,-1.543141022E0,9.861254593E0
5.306217500E-1,-6.186036072E0,-5.663173370E0,-2.280208282E0,8.691255647E0
5.406297500E-1,-4.799020386E0,-4.652026062E0,-3.075354767E0,7.357292307E0
5.506377500E-1,-3.415896606E0,-3.457061005E0,-3.760629730E0,6.145075783E0
5.606457500E-1,-2.211800537E0,-2.551593933E0,-3.790866852E0,5.076747453E0
5.706547500E-1,-1.251397705E0,-1.877246246E0,-3.243904266E0,3.951324408E0
5.806627500E-1,-5.863307190E-1,-1.321601715E0,-2.815495148E0,3.165032027E0
5.906707500E-1,-3.562591553E-2,-8.572673035E-1,-2.200723572E0,2.362067034E0
6.006787500E-1,3.926335144E-1,-4.251159668E-1,-1.335073700E0,1.455096714E0
6.106867500E-1,5.894741821E-1,3.832031250E-2,-4.725672913E-1,7.564840398E-1
6.206947500E-1,6.694079590E-1,3.909869385E-1,-3.173400879E-1,8.376649288E-1
6.307027500E-1,7.099736023E-1,5.710624695E-1,-5.340893555E-1,1.056137444E0
6.407107500E-1,7.080276489E-1,5.182223511E-1,-5.680686951E-1,1.045255758E0
6.507197500E-1,7.096742249E-1,3.194357300E-1,-6.951544189E-1,1.043511551E0
6.607277500E-1,7.782316589E-1,7.334747314E-2,-1.010398865E0,1.277470247E0
6.707357500E-1,9.523196411E-1,-2.734812927E-1,-1.742526398E0,2.004520632E0
6.807437500E-1,1.096020813E0,-7.241940308E-1,-2.591111755E0,2.905095307E0
6.907517500E-1,9.857002258E-1,-1.189127197E0,-2.997516632E0,3.372051955E0
7.007597500E-1,5.770500183E-1,-1.516047363E0,-2.778671722E0,3.217515015E0
7.107677500E-1,4.625381470E-2,-1.801054688E0,-2.168390808E0,2.819194229E0
7.207757500E-1,-5.920188904E-1,-2.220931549E0,-1.967209167E0,3.025381831E0
7.307847500E-1,-1.489253082E0,-2.667153625E0,-2.563419342E0,3.987819195E0
7.407927500E-1,-2.744093628E0,-3.225492554E0,-3.438649292E0,5.455104124E0
7.508007500E-1,-4.233496399E0,-4.055965576E0,-2.754571838E0,6.477732206E0
7.608087500E-1,-5.027894440E0,-5.237159271E0,-2.267484741E0,7.605856085E0
7.708167500E-1,-5.055137787E0,-6.239624634E0,-3.369493103E0,8.708663352E0
7.808247500E-1,-5.395829315E0,-6.642586670E0,-4.294569397E0,9.575085272E0
7.908327500E-1,-5.376818848E0,-6.702312469E0,-4.512516174E0,9.705358086E0
8.008407500E-1,-5.797893219E0,-7.354805603E0,-2.549498291E0,9.706115226E0
8.108497500E-1,-8.322094116E0,-8.264164581E0,-1.349294128E0,1.180568767E1
8.208577500E-1,-1.314147217E1,-1.173843979E1,1.878593445E-1,1.762170680E1
8.308657500E-1,-1.821068069E1,-1.669747742E1,-2.403102722E0,2.482356836E1
8.408737500E-1,-2.087454117E1,-2.008583130E1,-1.507095978E1,3.265456961E1
8.508817500E-1,-2.029779053E1,-2.140593613E1,-1.661380142E1,3.385606001E1
8.608897500E-1,-2.030273026E1,-2.076377151E1,-4.090393982E0,2.932688845E1
8.708977500E-1,-2.014435959E1,-1.974154724E1,-7.966433716E-1,2.821628167E1
8.809057500E-1,-1.946342560E1,-1.863310226E1,-3.329526215E0,2.714964421E1
8.909147500E-1,-1.610695541E1,-1.657353516E1,-6.364914093E0,2.397140404E1
9.009227500E-1,-1.217448303E1,-1.415965485E1,-6.234086151E0,1.968699298E1
9.109307500E-1,-1.104388412E1,-1.223375977E1,-4.010011139E0,1.696208843E1
9.209387500E-1,-1.171194489E1,-1.084644470E1,-2.531535645E0,1.616241592E1
9.309467500E-1,-1.278536270E1,-1.037821838E1,-2.123184814E0,1.660363906E1
9.409547500E-1,-1.323338104E1,-1.051668045E1,-2.227368164E0,1.704946071E1
9.509627500E-1,-1.306168808E1,-1.058359131E1,-2.388433228E0,1.698012702E1
9.609707500E-1,-1.243943207E1,-1.021505768E1,-2.516417084E0,1.629169201E1
9.709797500E-1,-1.148292114E1,-9.453740845E0,-2.476899261E0,1.507865126E1
9.809877500E-1,-1.023736130E1,-8.614136810E0,-2.384241943E0,1.359012616E1
9.909957500E-1,-8.705147552E0,-7.859705658E0,-2.300565948E0,1.195186892E1
1.001003750E0,-7.004533997E0,-7.161407776E0,-2.285746765E0,1.027491587E1
1.011011750E0,-5.274132385E0,-5.938001862E0,-2.352358246E0,8.283111000E0
1.021019750E0,-3.696712646E0,-4.616849213E0,-2.882855072E0,6.579653061E0
1.031027750E0,-2.230212250E0,-3.450474701E0,-2.805466003E0,4.974963501E0
1.041035750E0,-1.269659729E0,-2.613115997E0,-2.649490356E0,3.931947379E0
1.051044750E0,-5.248086548E-1,-1.762285309E0,-2.801723785E0,3.351228104E0
1.061052750E0,7.948471069E-2,-8.313711548E-1,-2.740052032E0,2.864503614E0
1.071060750E0,5.291496277E-1,-3.037184143E-1,-2.498604126E0,2.572016093E0
1.081068750E0,8.848100281E-1,-5.239105225E-3,-2.485581207E0,2.638376427E0
1.091076750E0,9.412426758E-1,4.819976807E-2,-2.304308167E0,2.489597782E0
1.101084750E0,7.737409973E-1,1.444496155E-1,-2.155218201E0,2.294451201E0
1.111093500E0,7.050338745E-1,7.694000244E-2,-2.124532013E0,2.239783204E0
1.121101500E0,6.911128235E-1,-2.513273621E-1,-2.047142944E0,2.175223348E0
1.131110500E0,4.965174866E-1,-7.942483521E-1,-1.770218811E0,2.002756775E0
1.141118500E0,8.547225952E-2,-1.276545410E0,-1.398841095E0,1.895687237E0
1.151126500E0,-3.119512939E-1,-1.558558960E0,-1.154698792E0,1.964624376E0
1.161134500E0,-7.032376099E-1,-1.745071106E0,-9.701325989E-1,2.116831018E0
1.171142500E0,-1.180295563E0,-1.896855469E0,-6.884184265E-1,2.337750674E0
1.181150500E0,-1.695224762E0,-1.830094299E0,-2.318678284E-1,2.505353234E0
1.191158500E0,-2.070644073E0,-1.639390869E0,1.678010559E-1,2.646379885E0
1.201167500E0,-2.386636963E0,-1.534159698E0,1.722917175E-1,2.842422630E0
1.211175500E0,-2.754272461E0,-1.607058105E0,-4.064048767E-1,3.214625556E0
1.221183500E0,-3.204985199E0,-1.699266357E0,-1.045426025E0,3.775228715E0
1.231191500E0,-3.728596344E0,-1.667382660E0,-1.354682922E0,4.303226865E0
1.241199500E0,-4.643044739E0,-1.555714874E0,-1.951940918E0,5.271450139E0
1.251207500E0,-6.295907593E0,-1.774260406E0,-1.214873657E0,6.652997100E0
1.261215500E0,-7.847131805E0,-2.864293671E0,-6.435118103E-1,8.378291189E0
1.271223500E0,-8.382119293E0,-4.699028320E0,-4.420008545E0,1.057720504E1
1.281232500E0,-8.339607697E0,-6.832691345E0,-8.749605103E0,1.388489528E1
1.291240500E0,-9.477241974E0,-8.107889557E0,-6.980284424E0,1.429266802E1
1.301248500E0,-1.256008118E1,-1.014021332E1,-3.226091309E0,1.646168978E1
1.311256500E0,-1.754247025E1,-1.452863754E1,-3.067421265E0,2.298322528E1
1.321264500E0,-2.213731522E1,-2.109338608E1,-1.063762894E1,3.237515731E1
1.331272500E0,-2.192700256E1,-2.553045914E1,-1.612357086E1,3.731711836E1
1.341280500E0,-1.867202133E1,-2.391202469E1,-9.021439819E0,3.165147203E1
1.351288500E0,-1.604333771E1,-1.949755463E1,-1.009051666E0,2.526977456E1
1.361297500E0,-1.475002716E1,-1.552496567E1,1.677860870E0,2.148029509E1
1.371305500E0,-1.404424484E1,-1.336390961E1,3.968247986E-1,1.939052251E1
1.381313500E0,-1.307545944E1,-1.095960938E1,-3.060236206E0,1.733337021E1
1.391321500E0,-1.205907303E1,-8.697064362E0,-3.983067169E0,1.539236807E1
1.401329500E0,-1.138502472E1,-7.738158417E0,-1.984722748E0,1.390816336E1
1.411337500E0,-1.098775085E1,-7.596552887E0,-6.426136780E-1,1.337352747E1
1.421345500E0,-1.080557968E1,-8.084538116E0,-3.028202820E-1,1.349859285E1
1.431353500E0,-1.050904633E1,-8.917555847E0,-8.532257080E-1,1.380908582E1
1.441362500E0,-9.941127319E0,-9.869426422E0,-1.922152863E0,1.413952835E1
1.451370500E0,-9.216783600E0,-1.048464706E1,-2.743195496E0,1.422680728E1
1.461378500E0,-8.455466766E0,-1.037417679E1,-3.175346832E0,1.375504598E1
1.471386500E0,-7.641160126E0,-9.579778748E0,-3.325933685E0,1.269729592E1
1.481394500E0,-6.813531189E0,-8.358618164E0,-3.172652435E0,1.124083753E1
1.491402500E0,-5.984704742E0,-6.845714264E0,-2.953059082E0,9.560389771E0
1.501410500E0,-5.130281525E0,-5.384153595E0,-2.838846588E0,7.960398759E0
1.511418500E0,-4.045936432E0,-3.912863159E0,-3.240910492E0,6.494890340E0
1.521427500E0,-2.759960632E0,-2.465971985E0,-3.083437958E0,4.817259611E0
1.531435500E0,-1.769919434E0,-1.351389771E0,-3.110980682E0,3.825842380E0
1.541443500E0,-9.307644653E-1,-3.414399719E-1,-3.664978638E0,3.796705435E0
1.551451500E0,-3.074606323E-1,2.808160400E-1,-3.999083862E0,4.020704096E0
1.561459500E0,1.450483704E-1,6.671626282E-1,-3.778143311E0,3.839337427E0
1.571467500E0,4.200265503E-1,7.551795959E-1,-3.055296478E0,3.175146468E0
1.581475500E0,5.125341797E-1,6.065386963E-1,-2.262844391E0,2.398133694E0
1.591484500E0,6.797364807E-1,2.405497742E-1,-1.593286743E0,1.748847770E0
1.601492500E0,8.015830994E-1,-3.638932800E-1,-9.400451660E-1,1.287881477E0
1.611500500E0,8.482859802E-1,-1.059945831E0,-3.266207886E-1,1.396336424E0
1.621508500E0,9.366023254E-1,-1.580712891E0,5.763015747E-2,1.838259610E0
1.631516500E0,8.093669128E-1,-1.867965546E0,3.251239014E-1,2.061571156E0
1.641524500E0,5.165757751E-1,-1.811233521E0,5.623805237E-1,1.965626936E0
1.651532500E0,2.314187622E-1,-1.580413513E0,5.879772949E-1,1.702051355E0
1.661540500E0,9.535171509E-2,-1.428329773E0,5.010081482E-1,1.516649945E0
1.671549500E0,5.433700562E-2,-1.411265259E0,4.248165894E-1,1.474819065E0
1.681557500E0,-8.801696777E-2,-1.438658295E0,1.489402771E-1,1.449023078E0
1.691565500E0,-4.602928162E-1,-1.602268066E0,-3.086581421E-1,1.695406229E0
1.701573500E0,-1.125659180E0,-2.093247070E0,-1.914069672E0,3.051631464E0
1.711581500E0,-2.612966309E0,-2.625540161E0,-7.292984161E0,8.179772127E0
1.721589500E0,-4.952002258E0,-2.946772156E0,-8.384664001E0,1.017390696E1
1.731597500E0,-7.777526550E0,-3.972439270E0,-3.794010315E0,9.521801682E0
1.741606500E0,-1.002195923E1,-5.585784302E0,-1.206940155E0,1.153678281E1
1.751614500E0,-1.179113022E1,-7.144642639E0,-3.599714355E0,1.424902150E1
1.761622500E0,-1.373947861E1,-9.986483002E0,-1.070768326E1,2.007878472E1
1.771630500E0,-1.764515671E1,-1.488923767E1,-1.744053223E1,2.893463527E1
1.781638500E0,-2.072245743E1,-1.948093918E1,-1.019200562E1,3.021264986E1
1.791646500E0,-2.128049698E1,-2.139291321E1,-1.577419739E0,3.021596499E1
1.801654500E0,-2.075673615E1,-2.206770996E1,-5.053491211E-1,3.029985637E1
1.811662500E0,-2.018103333E1,-2.196053284E1,-7.397616577E-1,2.983431507E1
1.821671500E0,-1.873728561E1,-1.965832031E1,-2.539618835E0,2.727609014E1
1.831679500E0,-1.651695282E1,-1.507051071E1,-4.177063751E0,2.274594217E1
1.841687500E0,-1.543455368E1,-1.214709000E1,-2.321073303E0,1.977788219E1
1.851695500E0,-1.484238510E1,-1.054781570E1,-3.412902832E-1,1.821178988E1
1.861703500E0,-1.439301956E1,-9.301657104E0,-7.694000244E-2,1.713726223E1
1.871711500E0,-1.422132660E1,-8.628506927E0,-9.940827942E-1,1.666389698E1
1.881719500E0,-1.383962036E1,-9.245374146E0,-2.434986420E0,1.682085591E1
1.891727500E0,-1.259750336E1,-1.098490677E1,-2.976709900E0,1.697722207E1
1.901736500E0,-1.132125732E1,-1.235351074E1,-2.055076447E0,1.688204473E1
1.911744500E0,-1.040695862E1,-1.279194901E1,-9.529183960E-1,1.651807496E1
1.921752500E0,-9.601034546E0,-1.247865051E1,-6.111790466E-1,1.575658982E1
1.931760500E0,-8.903934174E0,-1.139984390E1,-9.599537659E-1,1.449682710E1
1.941768500E0,-8.117918701E0,-9.852661285E0,-2.104024658E0,1.293841019E1
1.951776500E0,-7.048692169E0,-8.328530731E0,-3.464695129E0,1.144782066E1
1.961784500E0,-5.745202789E0,-6.892117767E0,-4.542154541E0,1.005682904E1
1.971792500E0,-4.205055542E0,-5.619913330E0,-4.202959900E0,8.181123998E0
1.981801500E0,-2.633473663E0,-3.917054443E0,-4.387226715E0,6.444087003E0
1.991809500E0,-1.267564087E0,-2.398013306E0,-4.477189636E0,5.234731470E0
2.001817500E0,-3.294648743E-1,-1.426832886E0,-4.005221100E0,4.264527552E0
2.011825500E0,5.168751526E-1,-6.038442993E-1,-4.026776276E0,4.104475001E0
2.021833500E0,1.193318481E0,-1.695973206E-1,-3.897145844E0,4.079279100E0
2.031841500E0,1.685494995E0,2.574645996E-2,-3.288511505E0,3.695384172E0
2.041849500E0,1.967209167E0,4.625381470E-2,-3.063080292E0,3.640674690E0
2.051858500E0,2.036365356E0,9.280700684E-2,-3.134781189E0,3.739284705E0
2.061866500E0,1.903441772E0,-4.864883423E-2,-2.580783234E0,3.207163761E0
2.071874500E0,1.562301178E0,-2.164498901E-1,-1.234333191E0,2.002801526E0
2.081882500E0,1.110390930E0,-1.859133911E-1,1.895059204E-1,1.141684852E0
2.091890500E0,6.821315002E-1,5.209167480E-2,1.244212646E0,1.419888036E0
2.101898500E0,2.734812927E-1,3.405418396E-1,1.765279083E0,1.818507906E0
2.111906625E0,-4.535568237E-2,5.611830139E-1,1.794468384E0,1.880718026E0
2.121915625E0,-2.480342102E-1,6.761439514E-1,1.672023010E0,1.820536338E0
2.131923625E0,-2.965333557E-1,6.659651184E-1,1.485211487E0,1.654477177E0
2.141931625E0,-3.487747192E-1,6.292913818E-1,1.390308838E0,1.565442465E0
2.151939625E0,-4.668791199E-1,4.751119995E-1,1.350940704E0,1.506236473E0
2.161947625E0,-6.689588928E-1,6.331832886E-2,1.407373352E0,1.559556015E0
2.171955625E0,-9.599537659E-1,-4.185296631E-1,1.409468994E0,1.755927435E0
2.181963625E0,-1.360371094E0,-7.411088562E-1,1.333277435E0,2.043888590E0
2.191971625E0,-2.669997711E0,-1.308578796E0,8.322692871E-1,3.087707630E0
2.201980625E0,-5.000202026E0,-3.077001343E0,6.481521606E-2,5.871469882E0
2.211988625E0,-7.546407166E0,-6.135590973E0,-2.038311310E0,9.937225503E0
2.221996625E0,-1.198273178E1,-1.134505783E1,-8.384214935E0,1.850922090E1
2.232004625E0,-1.580233887E1,-1.674642563E1,-1.189336761E1,2.591541777E1
2.242012625E0,-1.720926315E1,-1.989063721E1,-1.063059357E1,2.836909774E1
2.252020625E0,-1.776341080E1,-2.182341797E1,-1.276246033E1,3.089790816E1
2.262028625E0,-1.865405869E1,-2.216919891E1,-1.485720428E1,3.256046383E1
2.272036625E0,-1.821996140E1,-1.846649872E1,-9.866432648E0,2.775473043E1
2.282045625E0,-1.526869858E1,-1.293385391E1,-3.270548859E0,2.027595184E1
2.292053625E0,-1.170775360E1,-9.278305664E0,1.189127197E0,1.498574235E1
2.302061625E0,-9.548793182E0,-7.372618561E0,2.321222992E0,1.228507354E1
2.312069625E0,-8.308472443E0,-6.611451416E0,1.601819000E0,1.073814827E1
2.322077625E0,-8.229736176E0,-7.453151093E0,-8.616082764E-1,1.113644412E1
2.332085625E0,-9.764195251E0,-1.050560349E1,-4.937332764E0,1.516853547E1
2.342093625E0,-1.172002808E1,-1.443059143E1,-6.386768646E0,1.965685226E1
2.352102625E0,-1.291723846E1,-1.690793976E1,-3.701502686E0,2.159709699E1
2.362110625E0,-1.296439041E1,-1.723246490E1,-5.592370605E-1,2.157188011E1
2.372118625E0,-1.230980164E1,-1.623059830E1,2.941383362E-1,2.037277730E1
2.382126625E0,-1.154773636E1,-1.389829834E1,-3.336561584E-1,1.807274850E1
2.392134625E0,-1.060978683E1,-1.126692032E1,-1.265318756E0,1.552778483E1
2.402142625E0,-9.782457275E0,-9.360484772E0,-1.633253632E0,1.363754607E1
2.412150625E0,-9.042994995E0,-7.964338074E0,-1.472188568E0,1.213976024E1
2.422158625E0,-8.443791046E0,-6.950047302E0,-1.224902802E0,1.100459684E1
2.432167625E0,-7.937394104E0,-5.990542603E0,-1.243464203E0,1.002172785E1
2.442175625E0,-7.300318909E0,-5.176984406E0,-1.971849518E0,9.164279253E0
2.452183625E0,-6.335874481E0,-4.766088867E0,-2.652933197E0,8.360440364E0
2.462191625E0,-5.153932343E0,-4.056714020E0,-3.187172241E0,7.292325701E0
2.472199625E0,-3.906276855E0,-3.268153839E0,-3.601211243E0,6.237671906E0
2.482207625E0,-2.739602966E0,-2.689457245E0,-3.681594086E0,5.319091999E0
2.492215625E0,-1.721719666E0,-2.537223816E0,-3.579356689E0,4.713132462E0
2.502224625E0,-8.608598328E-1,-2.505040741E0,-2.723735962E0,3.799348149E0
2.512232625E0,-2.023791504E-1,-2.604284363E0,-2.005379791E0,3.293144769E0
2.522240625E0,2.791694641E-1,-2.889291687E0,-1.592388611E0,3.310837285E0
2.532248625E0,5.445675659E-1,-3.115621033E0,-1.404080200E0,3.460504221E0
2.542256625E0,4.625381470E-1,-3.257975006E0,-1.006357269E0,3.441089599E0
2.552264625E0,2.436932373E-1,-3.201841736E0,-7.327262878E-1,3.293640039E0
2.562272625E0,8.158035278E-2,-3.060236206E0,-7.021897888E-1,3.140823378E0
2.572280625E0,-1.531315613E-1,-3.093018036E0,-8.412506104E-1,3.209036060E0
2.582289625E0,-3.870950317E-1,-3.362158356E0,-1.305135956E0,3.627303576E0
2.592297625E0,-6.990463257E-1,-3.850742340E0,-2.168540497E0,4.474310027E0
2.602305625E0,-1.263372803E0,-4.359384613E0,-2.919678497E0,5.396746017E0
2.612313625E0,-2.201172638E0,-4.790787506E0,-3.154240723E0,6.143780631E0
2.622321625E0,-3.317551117E0,-4.967420197E0,-3.379821625E0,6.863279321E0
2.632329625E0,-4.305796051E0,-4.600533142E0,-3.531156921E0,7.223147100E0
2.642337625E0,-5.003195801E0,-3.726949768E0,-2.635868683E0,6.772734050E0
2.652346625E0,-5.714366913E0,-2.921624451E0,-4.180805969E-1,6.431537144E0
2.662354625E0,-6.777605896E0,-2.577789459E0,4.890330505E-1,7.267743357E0
2.672362625E0,-8.625363464E0,-2.991828461E0,1.628613281E-1,9.130961408E0
2.682370625E0,-1.025876678E1,-3.820205841E0,-1.178798676E0,1.101026044E1
2.692378625E0,-1.095975906E1,-4.682562561E0,-4.090693359E0,1.260065407E1
2.702386625E0,-1.052805679E1,-5.424868927E0,-6.378835144E0,1.345208982E1
2.712394625E0,-9.492510223E0,-5.828429718E0,-4.013603668E0,1.184007423E1
2.722402625E0,-9.200617218E0,-6.308331757E0,-1.185534668E-1,1.115618491E1
2.732411625E0,-1.059975769E1,-7.738008728E0,1.263821869E0,1.318441838E1
2.742419625E0,-1.319910233E1,-1.076336746E1,7.125183105E-2,1.703148432E1
2.752427625E0,-1.442969330E1,-1.568842575E1,-8.984317017E0,2.313137920E1
2.762435625E0,-1.456037155E1,-1.962329315E1,-1.644270721E1,2.945234582E1
2.772443625E0,-1.457938202E1,-2.017803955E1,-1.028002258E1,2.693307492E1
2.782451625E0,-1.450423828E1,-1.870585098E1,-1.529369659E0,2.371962817E1
2.792459625E0,-1.450229233E1,-1.780487457E1,2.384990387E0,2.308718737E1
2.802468625E0,-1.381327515E1,-1.736284378E1,2.502496033E0,2.232795111E1
2.812476625E0,-1.195249466E1,-1.588781113E1,5.294490051E-1,1.988881563E1
2.822484625E0,-1.005204666E1,-1.310644501E1,-3.162024536E0,1.681728105E1
2.832492625E0,-9.081015930E0,-1.078567108E1,-5.204976196E0,1.502954850E1
2.842500625E0,-8.837023315E0,-9.269623718E0,-3.745511169E0,1.334345378E1
2.852508625E0,-8.843459930E0,-8.348439331E0,-1.495839386E0,1.225319380E1
2.862516625E0,-8.613687744E0,-7.631729736E0,-2.055226135E-1,1.151004582E1
2.872524625E0,-8.127049713E0,-6.739135895E0,-4.146377563E-2,1.055777481E1
2.882533625E0,-7.416776733E0,-6.103258209E0,-3.279679871E-1,9.610718021E0
2.892541625E0,-6.608158264E0,-5.822142792E0,-4.372407532E-1,8.817952246E0
2.902549625E0,-5.519921265E0,-4.896467743E0,-9.776170349E-1,7.443162110E0
2.912557625E0,-4.443359985E0,-3.729344788E0,-1.598226471E0,6.017124592E0
2.922565625E0,-3.471730499E0,-2.586321716E0,-1.817221069E0,4.695132064E0
2.932573625E0,-2.564616852E0,-1.450783081E0,-2.029180298E0,3.577653397E0
2.942581625E0,-1.761387177E0,-8.050259399E-1,-2.480042725E0,3.146611426E0
2.952590625E0,-1.056652679E0,-1.785786438E-1,-2.380200348E0,2.610317780E0
2.962598625E0,-6.560856628E-1,3.784130859E-1,-2.106569366E0,2.238588697E0
2.972606625E0,-4.721182251E-1,6.756948853E-1,-1.623972931E0,1.821193915E0
2.982614625E0,-2.136058044E-1,5.083428955E-1,-1.449585571E0,1.550915300E0
2.992622625E0,-1.122665405E-1,-8.666976929E-2,-1.450334015E0,1.457252270E0
3.002630625E0,-5.062472534E-1,-1.012494507E0,-1.461710358E0,1.848791113E0
3.012638625E0,-1.067579956E0,-1.952689362E0,-1.436862030E0,2.649017780E0
3.022647625E0,-1.515298920E0,-2.894979858E0,-1.262923737E0,3.503143668E0
3.032655625E0,-1.814526672E0,-3.722309418E0,-1.191971283E0,4.309163490E0
3.042663625E0,-2.051034851E0,-4.384083252E0,-1.227447510E0,4.993351310E0
3.052671625E0,-2.254910889E0,-4.950804749E0,-1.397194519E0,5.616693271E0
3.062679625E0,-2.503394165E0,-5.394482117E0,-1.631307678E0,6.166732068E0
3.072687625E0,-2.961890717E0,-5.524262238E0,-1.725611572E0,6.501384867E0
3.082695625E0,-3.585793304E0,-5.496420135E0,-2.365830231E0,6.976080605E0
3.092704625E0,-4.459376678E0,-6.151757355E0,-4.371659088E0,8.765931901E0
3.102712625E0,-5.998176727E0,-6.939718781E0,-5.413342896E0,1.065092025E1
3.112720500E0,-7.264692993E0,-7.708070984E0,-5.014123077E0,1.171885459E1
3.122728500E0,-8.087980957E0,-8.042924652E0,-6.237229614E0,1.300027331E1
3.132736500E0,-9.419312439E0,-7.837851105E0,-5.706283722E0,1.351728637E1
3.142744500E0,-1.061023590E1,-8.175099792E0,-5.063071289E0,1.431935939E1
3.152752500E0,-1.090167984E1,-8.488098907E0,-5.849535828E0,1.500371673E1
3.162760500E0,-1.140702896E1,-8.341254272E0,-5.518274689E0,1.517063572E1
3.172769500E0,-1.263477585E1,-8.499924316E0,-1.964065704E0,1.535395155E1
3.182777500E0,-1.418674850E1,-9.706265717E0,5.189707947E-1,1.719723111E1
3.192785500E0,-1.563034653E1,-1.113998428E1,-2.618055725E-1,1.919571631E1
3.202793500E0,-1.635214554E1,-1.214664093E1,-2.458637238E0,2.051775930E1
3.212801500E0,-1.675929886E1,-1.341600128E1,-3.237168274E0,2.171042254E1
3.222809500E0,-1.693009369E1,-1.502530472E1,-2.158361664E0,2.273865386E1
3.232817500E0,-1.691901672E1,-1.645872391E1,-7.093748474E-1,2.361452799E1
3.242826500E0,-1.703667206E1,-1.745041168E1,-2.278262329E-1,2.438886975E1
3.252834500E0,-1.650303177E1,-1.775517792E1,-1.325942688E0,2.427662506E1
3.262842500E0,-1.389844803E1,-1.684551956E1,-2.564018097E0,2.198891938E1
3.272850500E0,-1.089524323E1,-1.534578827E1,-2.768193512E0,1.902268219E1
3.282858500E0,-8.874744873E0,-1.398990784E1,-2.405647430E0,1.674113967E1
3.292866500E0,-7.334298248E0,-1.267085083E1,-2.261796570E0,1.481411878E1
3.302874500E0,-6.210285645E0,-1.151734955E1,-2.536325684E0,1.332853842E1
3.312882500E0,-5.390141144E0,-1.021191422E1,-2.843037872E0,1.189200058E1
3.322891500E0,-4.766088867E0,-8.721613312E0,-2.907404022E0,1.035544012E1
3.332899500E0,-4.349355469E0,-7.127278748E0,-2.547702026E0,8.729592256E0
3.342907500E0,-4.082161102E0,-5.584287415E0,-1.985022125E0,7.196430923E0
3.352915500E0,-3.758534088E0,-4.164938965E0,-1.634600830E0,5.843390706E0
3.362923500E0,-3.402723999E0,-2.831960907E0,-1.536405029E0,4.686050961E0
3.372931500E0,-3.048111420E0,-1.823657684E0,-1.407972107E0,3.820876343E0
3.382939500E0,-2.587519226E0,-1.092877350E0,-1.379980316E0,3.129533882E0
3.392948500E0,-2.138602753E0,-4.513114929E-1,-1.369651794E0,2.579389431E0
3.402956500E0,-1.710193634E0,1.721420288E-1,-1.700164490E0,2.417634058E0
3.412964500E0,-1.162183228E0,8.309220886E-1,-1.674118652E0,2.200857704E0
3.422972500E0,-6.233038330E-1,1.390757904E0,-1.869312744E0,2.411855168E0
3.432980500E0,-3.912863159E-1,1.912423096E0,-1.804497528E0,2.658322480E0
3.442988500E0,-2.450404358E-1,2.189796295E0,-1.938468933E0,2.934776726E0
3.452996500E0,-7.185058594E-2,2.392474823E0,-2.134411469E0,3.206994013E0
3.463005500E0,-1.179547119E-1,2.492466888E0,-1.788780212E0,3.070185524E0
3.473013500E0,-3.673361206E-1,2.188898163E0,-1.073866882E0,2.465644150E0
3.483021500E0,-6.596781921E-1,1.478625183E0,-2.636018372E-1,1.640424847E0
3.493029500E0,-8.428971863E-1,6.956034851E-1,4.623884583E-1,1.186651997E0
3.503037500E0,-1.043779449E0,-1.163081360E-1,8.928932190E-1,1.378499700E0
3.513045500E0,-1.320703583E0,-7.946974182E-1,1.206341400E0,1.957309764E0
3.523053500E0,-1.741478577E0,-1.310075684E0,1.331780548E0,2.553954847E0
3.533062500E0,-2.165097656E0,-1.765877838E0,1.238823853E0,3.056248834E0
3.543070500E0,-2.570005646E0,-2.342628479E0,1.177451477E0,3.671406977E0
3.553078500E0,-3.177891541E0,-2.984194336E0,1.211281128E0,4.524556602E0
3.563086500E0,-3.989503784E0,-3.849245453E0,1.290466461E0,5.691935935E0
3.573094500E0,-5.614374847E0,-5.854924622E0,-3.011737061E-1,8.117391998E0
3.583102500E0,-9.375902710E0,-1.169847290E1,-7.842491455E0,1.691941169E1
3.593110500E0,-1.309671524E1,-1.723216553E1,-1.497321304E1,2.631859775E1
3.603118500E0,-1.654674088E1,-2.010229706E1,-1.631622025E1,3.072647106E1
3.613127500E0,-1.987087830E1,-2.191128525E1,-1.183932999E1,3.186104141E1
3.623135500E0,-2.188119781E1,-2.281271072E1,-6.308631134E0,3.223360692E1
3.633143500E0,-2.237517059E1,-2.255240204E1,-3.364253998E0,3.194647558E1
3.643151500E0,-2.161235687E1,-2.087573868E1,-1.082099762E0,3.006761339E1
3.653159500E0,-1.857562180E1,-1.730656082E1,1.636696472E0,2.544109958E1
3.663167500E0,-1.499476822E1,-1.384426071E1,2.124532013E0,2.051877835E1
3.673175500E0,-1.246697479E1,-1.177810730E1,1.826950836E0,1.724781208E1
3.683184500E0,-1.068642746E1,-1.022463776E1,1.184636536E0,1.483732836E1
3.693192500E0,-9.469158783E0,-9.138496399E0,1.520837402E-1,1.316055523E1
3.703200500E0,-8.550818481E0,-8.671916656E0,-1.059796143E0,1.222463918E1
3.713208500E0,-7.697143707E0,-8.857081604E0,-1.814376984E0,1.187374750E1
3.723216500E0,-7.087611237E0,-9.267677765E0,-1.669478302E0,1.178606134E1
3.733224500E0,-6.672075348E0,-9.260792084E0,-1.235381012E0,1.148063699E1
3.743232500E0,-6.355184326E0,-8.695717163E0,-1.036444702E0,1.082026259E1
3.753241500E0,-6.135890350E0,-7.718399506E0,-1.052311707E0,9.916158593E0
3.763249500E0,-5.819747772E0,-6.443949738E0,-1.350491638E0,8.787364794E0
3.773257500E0,-5.376818848E0,-4.979095917E0,-1.852697296E0,7.558707849E0
3.783265500E0,-4.840933228E0,-3.439697113E0,-2.590812378E0,6.479078601E0
3.793273500E0,-4.257446594E0,-1.955533447E0,-3.660637665E0,5.945605998E0
3.803281500E0,-3.595672760E0,-4.935237122E-1,-4.628375244E0,5.881690714E0
3.813289500E0,-2.966680756E0,6.355783081E-1,-5.156926117E0,5.983230020E0
3.823297500E0,-2.360591125E0,1.365759888E0,-5.528902588E0,6.164937498E0
3.833306500E0,-1.792223053E0,1.758094025E0,-4.833598480E0,5.446708395E0
3.843314500E0,-1.433119812E0,1.617686005E0,-4.021686859E0,4.565600245E0
3.853322500E0,-1.125659180E0,1.318907318E0,-2.895279236E0,3.374798802E0
3.863330500E0,-8.455915833E-1,8.617579651E-1,-1.741927643E0,2.119425353E0
3.873338500E0,-6.460565186E-1,1.651066589E-1,-5.550457764E-1,8.675972844E-1
3.883346500E0,-4.092489624E-1,-4.876858521E-1,3.893403625E-1,7.462627697E-1
3.893354500E0,-1.992356873E-1,-1.068029022E0,9.988728333E-1,1.475848159E0
3.903363500E0,-6.451583862E-2,-1.613195343E0,1.479074249E0,2.189571224E0
3.913371500E0,-5.433700562E-2,-2.213596802E0,1.711391144E0,2.798539433E0
3.923379500E0,-2.083666992E-1,-2.674787750E0,1.746418304E0,3.201231495E0
3.933387500E0,-5.538482666E-1,-2.940185852E0,1.781295776E0,3.482018867E0
3.943395500E0,-9.975256348E-1,-3.251837769E0,1.883832550E0,3.888229847E0
3.953403500E0,-1.620380402E0,-3.659290466E0,1.884131927E0,4.423346299E0
3.963411500E0,-2.261646881E0,-4.183500366E0,1.752555542E0,5.068350112E0
3.973420500E0,-2.955005035E0,-4.810247040E0,1.576820984E0,5.861475562E0
3.983428500E0,-3.762276306E0,-5.452112274E0,1.408271484E0,6.772258104E0
3.993436500E0,-4.632117462E0,-6.170917511E0,1.367855530E0,7.836310603E0
4.003444500E0,-5.951773224E0,-7.295678558E0,9.586065674E-1,9.464114152E0
4.013452500E0,-1.005025040E1,-1.015084122E1,-2.047442322E0,1.443049308E1
4.023460500E0,-1.414543442E1,-1.320748489E1,-8.078251190E0,2.097114957E1
4.033468500E0,-1.518367538E1,-1.456411377E1,-1.010952713E1,2.334223526E1
4.043477500E0,-1.580174011E1,-1.606204880E1,-7.864046631E0,2.386477805E1
4.053485500E0,-1.924697571E1,-1.852113510E1,-5.363945618E0,2.724427338E1
4.063493500E0,-2.338646759E1,-2.037443115E1,-2.754422150E0,3.113890095E1
4.073501500E0,-2.527853302E1,-2.073727661E1,-1.057999878E0,3.271327310E1
4.083509500E0,-2.462379456E1,-2.021186920E1,-4.058061218E-1,3.185930937E1
4.093517500E0,-2.100911133E1,-1.847892288E1,8.689430237E-1,2.799300648E1
4.103525500E0,-1.627505585E1,-1.583302505E1,2.003284149E0,2.279419384E1
4.113533000E0,-1.325328964E1,-1.403586227E1,1.852098541E0,1.939292101E1
4.123542000E0,-1.091634933E1,-1.272174500E1,1.436562653E0,1.682477907E1
4.133550000E0,-9.134754181E0,-1.167227737E1,9.090596008E-1,1.484965260E1
4.143558000E0,-7.929011536E0,-1.076142151E1,2.839595032E-1,1.337004300E1
4.153566000E0,-7.203769684E0,-9.884994049E0,-1.407073975E-1,1.223221990E1
4.163574000E0,-6.689139862E0,-8.859925690E0,-4.888833618E-1,1.111224020E1
4.173582000E0,-5.975573730E0,-7.494016113E0,-7.637118530E-1,9.615145070E0
4.183590000E0,-5.022805023E0,-5.712271271E0,-1.322799225E0,7.720648364E0
4.193599000E0,-3.923191681E0,-4.020938416E0,-2.121388550E0,6.004970282E0
4.203607000E0,-2.595452728E0,-2.562221832E0,-3.092119904E0,4.781481055E0
4.213615000E0,-1.400787048E0,-1.656006317E0,-4.040397949E0,4.585779854E0
4.223623000E0,-4.794529724E-1,-1.192570038E0,-4.218228149E0,4.409710554E0
4.233631000E0,2.140548706E-1,-7.908055115E-1,-3.228186951E0,3.330523057E0
4.243639000E0,4.683760071E-1,-5.915698242E-1,-2.319127350E0,2.438787118E0
4.253647000E0,5.462141418E-1,-4.414320374E-1,-1.385818176E0,1.553610038E0
4.263656000E0,6.230044556E-1,-2.276765442E-1,-8.795709229E-1,1.101642487E0
4.273664000E0,6.074368286E-1,-1.257385254E-2,-5.599855042E-1,8.262695489E-1
4.283672000E0,5.399272156E-1,1.889071655E-1,-2.956352234E-1,6.439002257E-1
4.293680000E0,4.567002869E-1,3.525169373E-1,-3.031196594E-1,6.517091921E-1
4.303688000E0,3.667373657E-1,5.276527405E-1,-4.896318054E-1,8.078694293E-1
4.313696000E0,1.242416382E-1,7.417076111E-1,-9.903405762E-1,1.243519450E0
4.323704000E0,-2.636018372E-1,7.774832153E-1,-2.010020142E0,2.171208661E0
4.333713000E0,-6.189628601E-1,3.965254211E-1,-3.404220886E0,3.482681047E0
4.343721000E0,-9.307644653E-1,-1.658551025E-1,-4.081861725E0,4.189919515E0
4.353729000E0,-1.279090118E0,-7.210505676E-1,-2.483186188E0,2.884822195E0
4.363737000E0,-1.659449158E0,-1.186582489E0,-1.445993042E-1,2.045154877E0
4.373745000E0,-1.921105042E0,-1.565294952E0,1.315614166E0,2.805643153E0
4.383753000E0,-2.164648590E0,-2.091450806E0,1.730102234E0,3.471760898E0
4.393761000E0,-2.678679657E0,-2.955304413E0,1.618883514E0,4.304640834E0
4.403770000E0,-3.744762726E0,-4.093537445E0,1.324146423E0,5.703828577E0
4.413778000E0,-5.391937408E0,-5.543721771E0,9.864486694E-1,7.796083701E0
4.423786000E0,-8.331973572E0,-7.269932098E0,-1.531315613E0,1.116327120E1
4.433794000E0,-1.212328949E1,-9.472002869E0,-9.690548401E0,1.818240124E1
4.443802000E0,-1.387689285E1,-1.192959229E1,-1.297711395E1,2.243409936E1
4.453810000E0,-1.377809830E1,-1.462413895E1,-8.561596069E0,2.184038369E1
4.463818000E0,-1.482142868E1,-1.767195099E1,-3.524121552E0,2.333221020E1
4.473827000E0,-1.763018784E1,-2.157313843E1,-1.307231598E0,2.789144455E1
4.483835000E0,-2.168450684E1,-2.631587585E1,-2.327809296E0,3.417838286E1
4.493843000E0,-2.485596176E1,-2.966276596E1,-5.604645081E0,3.910384337E1
4.503851000E0,-2.558344894E1,-2.853336456E1,-6.881340179E0,3.893608347E1
4.513859000E0,-2.187910217E1,-2.154858948E1,-3.296445007E0,3.088532613E1
4.523867000E0,-1.697440155E1,-1.416758835E1,5.402265930E-1,2.211657099E1
4.533875000E0,-1.414199158E1,-9.767039337E0,1.968406677E0,1.729929502E1
4.543884000E0,-1.243344452E1,-7.225474548E0,1.695224762E0,1.448004876E1
4.553892000E0,-1.109926895E1,-5.948629761E0,6.304888916E-1,1.260862735E1
4.563900000E0,-1.004995102E1,-5.201383667E0,-3.354524231E-1,1.132114994E1
4.573908000E0,-9.146280212E0,-4.721781006E0,-1.327289886E0,1.037840816E1
4.583916000E0,-8.100405121E0,-4.402045898E0,-1.890568542E0,9.411100925E0
4.593924000E0,-6.895111542E0,-4.218228149E0,-1.916614380E0,8.307191016E0
4.603932000E0,-5.677842865E0,-4.119433594E0,-1.627715149E0,7.201186662E0
4.613940000E0,-4.356241150E0,-4.012406158E0,-1.666783905E0,6.152593658E0
4.623949000E0,-2.696941681E0,-3.887865143E0,-2.735561371E0,5.465554484E0
4.633957000E0,-1.433868256E0,-3.611988831E0,-3.615880737E0,5.308204498E0
4.643965000E0,-5.545967102E-1,-3.382366333E0,-4.194577332E0,5.416867961E0
4.653973000E0,-7.244934082E-2,-3.246898041E0,-4.631219330E0,5.656481970E0
4.663981000E0,9.819580078E-2,-3.076701965E0,-4.026476898E0,5.068358078E0
4.673989000E0,-2.200424194E-1,-2.643353119E0,-2.673590240E0,3.766141149E0
4.683997000E0,-7.804769897E-1,-2.015708313E0,-1.105151825E0,2.427670672E0
4.694006000E0,-1.105900269E0,-1.268162842E0,3.038681030E-2,1.682906936E0
4.704014000E0,-1.046922913E0,-5.646258545E-1,7.324269104E-1,1.396889086E0
4.714022000E0,-8.014334106E-1,-7.783813477E-2,1.081051941E0,1.347971656E0
4.724030000E0,-3.315605164E-1,2.589614868E-1,8.193960571E-1,9.210881207E-1
4.734038000E0,2.742297363E-1,4.007167053E-1,-2.514770508E-2,4.862182980E-1
4.744046000E0,6.947053528E-1,6.444099426E-1,-1.296903076E0,1.606187190E0
4.754054000E0,9.141490173E-1,9.110055542E-1,-2.384541321E0,2.711390207E0
4.764063000E0,8.419990540E-1,1.096469879E0,-2.665057983E0,3.002289569E0
4.774071000E0,3.382965088E-1,1.263073425E0,-2.116448822E0,2.487801162E0
4.784079000E0,-4.418811035E-1,1.192120972E0,-8.777746582E-1,1.544959440E0
4.794087000E0,-8.199948120E-1,7.252418518E-1,3.347039795E-1,1.144724416E0
4.804095000E0,-1.142274628E0,-6.990463257E-2,8.997789001E-1,1.455774726E0
4.814103000E0,-1.829345856E0,-8.945397949E-1,9.910890198E-1,2.264721870E0
4.824111000E0,-3.075055389E0,-1.787133636E0,8.741821289E-2,3.557731612E0
4.834120000E0,-5.685476990E0,-4.838987274E0,-3.332819366E0,8.176070656E0
4.844128000E0,-8.461304626E0,-8.808133392E0,-8.330776062E0,1.478440799E1
4.854136000E0,-8.741072845E0,-9.375154266E0,-7.630981293E0,1.491749803E1
4.864144000E0,-9.238937531E0,-9.589059448E0,-4.148622894E0,1.394701042E1
4.874152000E0,-1.091305618E1,-1.195054871E1,-1.207389221E0,1.622862281E1
4.884160000E0,-1.322634567E1,-1.558394302E1,-9.059161377E-1,2.046011202E1
4.894168000E0,-1.550251236E1,-2.112167725E1,-7.290888519E0,2.719577531E1
4.904177000E0,-1.650243301E1,-2.705429031E1,-1.652638321E1,3.574054087E1
4.914185000E0,-1.653267014E1,-2.724005402E1,-1.309027863E1,3.444858661E1
4.924193000E0,-1.551538559E1,-2.200693634E1,-1.924248505E0,2.699509528E1
4.934201000E0,-1.445349380E1,-1.688428894E1,3.976181488E0,2.257858976E1
4.944209000E0,-1.419872360E1,-1.435784271E1,4.429438934E0,2.067296129E1
4.954217000E0,-1.461904953E1,-1.279703842E1,3.663032684E0,1.977115601E1
4.964225000E0,-1.554472458E1,-1.138771912E1,1.201850739E0,1.930707264E1
4.974234000E0,-1.680989365E1,-1.083910995E1,-3.001857605E0,2.022547844E1
4.984242000E0,-1.770158936E1,-1.052715866E1,-6.724316711E0,2.166526645E1
4.994250000E0,-1.763872009E1,-1.089524323E1,-4.336332550E0,2.118099505E1
5.004258000E0,-1.641965515E1,-1.131167725E1,-9.376501465E-1,1.996091945E1
5.014266000E0,-1.448926941E1,-1.087698120E1,-5.589376831E-1,1.812622573E1
5.024274000E0,-1.213736023E1,-1.018018021E1,-1.788480835E0,1.594209039E1
5.034282000E0,-9.762997742E0,-9.770332489E0,-2.678829346E0,1.406952908E1
5.044290000E0,-7.728428650E0,-9.527387695E0,-3.205883331E0,1.267980337E1
5.054299000E0,-6.108647003E0,-8.824449463E0,-3.395089874E0,1.125669187E1
5.064307000E0,-4.710105286E0,-7.457941132E0,-2.983296204E0,9.311607485E0
5.074315000E0,-3.258573761E0,-5.612279205E0,-2.598745880E0,6.990669566E0
5.084323000E0,-1.857337646E0,-3.887865143E0,-2.707419891E0,5.088744538E0
5.094331000E0,-7.625143433E-1,-2.886746979E0,-2.562820587E0,3.934817099E0
5.104339000E0,1.511856079E-1,-2.008223877E0,-1.926344147E0,2.786865982E0
5.114348125E0,6.891668701E-1,-1.593586121E0,-1.423839111E0,2.245392062E0
5.124356125E0,8.934919739E-1,-1.258283386E0,-7.969427490E-1,1.736871536E0
5.134364125E0,9.428892517E-1,-9.836045837E-1,-3.547622681E-1,1.407968176E0
5.144372125E0,8.845106506E-1,-5.986051941E-1,7.634124756E-3,1.068056904E0
5.154380125E0,7.259902954E-1,-2.076182556E-1,5.456153870E-1,9.315918632E-1
5.164388125E0,6.409671021E-1,9.250762939E-2,6.491999817E-1,9.169826081E-1
5.174396125E0,6.661148071E-1,2.643502808E-1,3.029699707E-1,7.780622150E-1
5.184405125E0,8.735833740E-1,3.183879089E-1,-7.476951599E-1,1.193133196E0
5.194413125E0,1.188977509E0,2.552192688E-1,-2.633473663E0,2.900687492E0
5.204421125E0,1.355880432E0,-6.406677246E-2,-4.311633911E0,4.520254781E0
5.214429125E0,9.367520142E-1,-5.837860107E-1,-4.659061432E0,4.788022960E0
5.224437125E0,2.516267395E-1,-9.211843872E-1,-4.204007721E0,4.311099350E0
5.234445125E0,-2.008822632E-1,-1.282532959E0,-3.228785706E0,3.479985863E0
5.244453125E0,-6.024971008E-1,-1.723964996E0,-1.608554993E0,2.433620190E0
5.254462125E0,-9.268725586E-1,-1.914818115E0,2.676434326E-1,2.144120836E0
5.264470125E0,-1.094972992E0,-1.947001190E0,1.027762756E0,2.458876933E0
5.274478125E0,-1.332978058E0,-1.874252472E0,1.062191162E0,2.533358028E0
5.284486125E0,-1.893861694E0,-1.847009125E0,1.114582214E0,2.870618111E0
5.294494125E0,-2.519560547E0,-2.245480499E0,1.249002686E0,3.598663048E0
5.304502125E0,-3.222498779E0,-3.031495972E0,1.427581329E0,4.648919731E0
5.314510125E0,-4.253255310E0,-4.262985077E0,1.695524139E0,6.256039051E0
5.324518125E0,-7.700287170E0,-7.471562805E0,1.991458740E0,1.091258820E1
5.334527125E0,-1.274090515E1,-1.130883316E1,-4.347409515E0,1.758181848E1
5.344535125E0,-1.584320389E1,-1.340402618E1,-1.643522278E1,2.647246825E1
5.354543125E0,-1.672142761E1,-1.569680832E1,-1.604468491E1,2.798978111E1
5.364551125E0,-2.001577698E1,-1.793675034E1,-6.822662201E0,2.772917345E1
5.374559125E0,-2.451212677E1,-1.861094833E1,-1.644929352E0,3.082073246E1
5.384567125E0,-2.481300110E1,-1.685704559E1,-4.481081543E0,3.033026709E1
5.394575125E0,-2.066871918E1,-1.371343277E1,-8.736582184E0,2.629794781E1
5.404584125E0,-1.527633270E1,-1.271890091E1,-7.474107513E0,2.123673855E1
5.414592125E0,-1.262205231E1,-1.349264191E1,-1.801952820E0,1.856379875E1
5.424600125E0,-1.179098053E1,-1.404080200E1,7.143145752E-1,1.834888520E1
5.434608125E0,-1.169383255E1,-1.429721878E1,-4.489164734E-1,1.847586833E1
5.444616125E0,-1.212553482E1,-1.378887589E1,-1.628613281E0,1.843404660E1
5.454624125E0,-1.290915527E1,-1.250454666E1,-1.328038330E0,1.802147782E1
5.464632125E0,-1.331286575E1,-1.102113144E1,-4.435276794E-1,1.728856413E1
5.474641125E0,-1.276665161E1,-9.854158173E0,3.192860413E-1,1.613052294E1
5.484649125E0,-1.176253967E1,-8.983418884E0,6.135740662E-1,1.481335977E1
5.494657125E0,-1.056308395E1,-8.331973572E0,1.032852173E-1,1.345404006E1
5.504665125E0,-9.339079285E0,-7.736811218E0,-1.296903076E0,1.219666378E1
5.514673125E0,-7.827073517E0,-7.439379730E0,-2.257156219E0,1.103187223E1
5.524681125E0,-6.323749695E0,-7.490124207E0,-3.491190033E0,1.040577622E1
5.534689125E0,-5.098697205E0,-7.587122498E0,-4.150269470E0,1.003921698E1
5.544698125E0,-4.211791534E0,-7.610623627E0,-4.406536560E0,9.750812498E0
5.554706125E0,-3.827989655E0,-7.385491791E0,-4.147724762E0,9.295300667E0
5.564714125E0,-3.754791870E0,-6.927593994E0,-3.457510071E0,8.604905370E0
5.574722125E0,-3.755540314E0,-6.275998993E0,-2.450853424E0,7.713554882E0
5.584730125E0,-3.506757660E0,-5.361101532E0,-1.555415497E0,6.592273985E0
5.594738125E0,-3.171903992E0,-4.411176910E0,-7.027885437E-1,5.478445802E0
5.604746125E0,-2.844235382E0,-3.647764435E0,5.179229736E-2,4.625855891E0
5.614755125E0,-2.443668365E0,-2.670746155E0,3.399430847E-1,3.635926485E0
5.624763125E0,-2.069745941E0,-1.787732391E0,3.912863159E-1,2.762777650E0
5.634771125E0,-1.725910950E0,-8.283773804E-1,-1.282832336E-1,1.918706408E0
5.644779125E0,-1.519340515E0,7.229965210E-2,-1.025667114E0,1.834561493E0
5.654787125E0,-1.456620941E0,8.324189758E-1,-2.269730072E0,2.822470641E0
5.664795125E0,-1.667981415E0,1.441951447E0,-4.037254486E0,4.600088017E0
5.674803125E0,-2.203417969E0,1.841320953E0,-5.832770691E0,6.501286606E0
5.684812125E0,-2.945724335E0,1.738484802E0,-6.123466187E0,7.014018777E0
5.694820125E0,-3.470083923E0,1.029259644E0,-5.046455841E0,6.210279736E0
5.704828125E0,-3.539240112E0,-4.909790039E-2,-3.454366608E0,4.945834595E0
5.714836125E0,-3.267854462E0,-1.095871124E0,-1.879192200E0,3.925706258E0
5.724844125E0,-2.942580872E0,-1.884730682E0,-6.414161682E-1,3.552802645E0
5.734852125E0,-2.773731995E0,-2.449655914E0,4.065545654E-1,3.722860445E0
5.744860125E0,-2.805316315E0,-2.986739044E0,1.385069733E0,4.325370263E0
5.754869125E0,-2.907104645E0,-3.623514862E0,1.837578735E0,4.995779517E0
5.764877125E0,-3.079546051E0,-4.251009979E0,1.932182007E0,5.593569257E0
5.774885125E0,-3.452270966E0,-4.654421082E0,2.010768585E0,6.133922132E0
5.784893125E0,-4.015998688E0,-4.861889648E0,1.792522430E0,6.555864022E0
5.794901125E0,-4.747527466E0,-5.495971069E0,1.052461395E0,7.338418769E0
5.804909125E0,-5.649701385E0,-6.917415161E0,-1.016685791E0,8.989071601E0
5.814917125E0,-6.166426849E0,-8.405021667E0,-6.519841919E0,1.229542793E1
5.824926125E0,-6.921307068E0,-8.720415802E0,-1.067789520E1,1.542619815E1
5.834934125E0,-8.784632263E0,-8.315507812E0,-8.896000671E0,1.501520104E1
5.844942125E0,-1.098909805E1,-8.341254272E0,-8.302335205E0,1.610172564E1
5.854950125E0,-1.214454529E1,-8.320297852E0,-8.987909546E0,1.724818410E1
5.864958125E0,-1.160057648E1,-8.576115875E0,-6.177803192E0,1.569357800E1
5.874966125E0,-1.081096848E1,-9.218430176E0,-2.686912537E0,1.445946034E1
5.884974125E0,-1.198901871E1,-9.863588562E0,1.096170502E0,1.556369296E1
5.894983125E0,-1.423060730E1,-1.108744354E1,3.615880737E0,1.839880925E1
5.904991125E0,-1.618838608E1,-1.302022430E1,3.185076599E0,2.101748790E1
5.914999125E0,-1.727332993E1,-1.564247131E1,-1.784289551E-1,2.330422006E1
5.925007125E0,-1.683204758E1,-1.815140396E1,-6.470294952E0,2.558624646E1
5.935015125E0,-1.661080765E1,-1.859927261E1,-8.986562347E0,2.650679489E1
5.945023125E0,-1.657533142E1,-1.670600967E1,-4.081712036E0,2.388498993E1
5.955031125E0,-1.521540939E1,-1.360071716E1,-6.403683472E-1,2.041808664E1
5.965040125E0,-1.367286713E1,-1.115465378E1,-1.525328064E-1,1.764644051E1
5.975048125E0,-1.272129593E1,-9.543703766E0,-1.201701050E0,1.594859671E1
5.985056125E0,-1.205772583E1,-8.434210968E0,-2.827470245E0,1.498396659E1
5.995064125E0,-1.144085861E1,-7.912396088E0,-3.623514862E0,1.437459974E1
6.005072125E0,-1.069151688E1,-7.721093903E0,-3.270698547E0,1.358754184E1
6.015080125E0,-9.730365601E0,-7.706424408E0,-2.769840088E0,1.271774375E1
6.025088125E0,-8.598569183E0,-7.540269928E0,-2.521207123E0,1.171100115E1
6.035097125E0,-7.297175446E0,-7.080575867E0,-2.382445679E0,1.044314950E1
6.045105125E0,-5.847739563E0,-6.588249664E0,-2.505040741E0,9.158401648E0
6.055113125E0,-4.425846405E0,-5.987249451E0,-2.503693542E0,7.855173693E0
6.065121125E0,-2.891237640E0,-4.795427856E0,-2.671494598E0,6.204213633E0
6.075129125E0,-1.562301178E0,-3.572021942E0,-3.067570953E0,4.960858522E0
6.085137125E0,-6.321354675E-1,-2.755619659E0,-3.202889557E0,4.272181699E0
6.095145125E0,-7.185058594E-3,-2.088007965E0,-2.947520599E0,3.612160928E0
6.105154125E0,4.474195862E-1,-1.488804016E0,-2.556833038E0,2.992343040E0
6.115161750E0,6.644682312E-1,-1.259181519E0,-2.128573608E0,2.560836139E0
6.125169750E0,7.661068726E-1,-1.033301239E0,-1.581311646E0,2.038425302E0
6.135177750E0,8.173004150E-1,-9.786648560E-1,-1.031504974E0,1.640051030E0
6.145185750E0,8.678952026E-1,-9.803114319E-1,-6.761439514E-1,1.473574983E0
6.155193750E0,8.976832581E-1,-9.693841553E-1,-6.108796692E-1,1.455580586E0
6.165201750E0,9.190887451E-1,-1.090033264E0,-8.370593262E-1,1.653349616E0
6.175210750E0,7.108717346E-1,-1.236129456E0,-1.563199310E0,2.115879661E0
6.185218750E0,1.966909790E-1,-1.524878998E0,-2.689157867E0,3.097662560E0
6.195226750E0,-6.313870239E-1,-1.880689087E0,-3.530109100E0,4.049359366E0
6.205234750E0,-1.542841644E0,-2.226170654E0,-3.293002167E0,4.263808086E0
6.215242750E0,-2.469115448E0,-2.581681366E0,-2.240241394E0,4.216668267E0
6.225250750E0,-3.376229095E0,-2.609523468E0,-1.438658295E0,4.503140385E0
6.235258750E0,-4.296515350E0,-2.409988403E0,-1.199904785E0,5.070291880E0
6.245267750E0,-5.390290833E0,-2.448159027E0,-1.362167358E0,6.074884179E0
6.255275750E0,-6.409521332E0,-2.834355927E0,-1.414708099E0,7.149610914E0
6.265283750E0,-7.246131592E0,-3.651356964E0,-1.296903076E0,8.217103402E0
6.275291750E0,-8.100704498E0,-4.972359924E0,-2.378254395E0,9.798054427E0
6.285299750E0,-9.130712585E0,-6.868616638E0,-7.841892700E0,1.385796118E1
6.295307750E0,-9.407636719E0,-8.366551666E0,-9.161698151E0,1.557046976E1
6.305315750E0,-9.787397003E0,-9.003028107E0,-3.305276642E0,1.370301094E1
6.315324750E0,-1.212912735E1,-1.041294617E1,6.171665955E-1,1.599768961E1
6.325332750E0,-1.597702560E1,-1.253059250E1,1.770817566E-1,2.030547841E1
6.335340750E0,-1.980755997E1,-1.486618561E1,-5.982309723E0,2.547804812E1
6.345348750E0,-2.083711899E1,-1.614063538E1,-1.316332672E1,2.946148008E1
6.355356750E0,-1.876886993E1,-1.689566528E1,-8.836125183E0,2.675464618E1
6.365364750E0,-1.653446640E1,-1.734128860E1,-1.462009735E0,2.400513158E1
6.375372750E0,-1.515852768E1,-1.702379883E1,1.103355560E0,2.282121998E1
6.385381750E0,-1.397014893E1,-1.636142624E1,-1.721420288E-2,2.151421916E1
6.395389750E0,-1.220442078E1,-1.486379059E1,-2.558180237E0,1.940166084E1
6.405397750E0,-1.076007431E1,-1.305764648E1,-3.773353271E0,1.733549901E1
6.415405750E0,-1.062550415E1,-1.170835236E1,-2.816393280E0,1.605985443E1
6.425413750E0,-1.104493195E1,-1.059751236E1,-1.647773438E0,1.539522482E1
6.435421750E0,-1.115659973E1,-9.564809875E0,-1.146914978E0,1.474010582E1
6.445429750E0,-1.083910995E1,-8.636739807E0,-1.065634003E0,1.390018543E1
6.455438750E0,-1.014635056E1,-7.771389313E0,-1.513502655E0,1.286987225E1
6.465446750E0,-9.206754456E0,-6.917115784E0,-2.035766602E0,1.169423636E1
6.475454750E0,-8.033045197E0,-6.245163116E0,-2.498753815E0,1.047738747E1
6.485462750E0,-6.760092316E0,-5.702691193E0,-3.093467102E0,9.369582363E0
6.495470750E0,-5.514831848E0,-5.222639465E0,-3.251239014E0,8.261954274E0
6.505478750E0,-4.517605591E0,-4.864584045E0,-2.922672272E0,7.253616437E0
6.515486750E0,-3.647165680E0,-4.442611542E0,-2.658771057E0,6.333062319E0
6.525495750E0,-2.921325073E0,-3.653901672E0,-2.325863342E0,5.224440439E0
6.535503750E0,-2.199975128E0,-2.763553162E0,-2.081721039E0,4.100082819E0
6.545511750E0,-1.590742035E0,-1.924248505E0,-1.866318970E0,3.117104269E0
6.555519750E0,-9.572593689E-1,-1.052910461E0,-1.927541656E0,2.395909593E0
6.565527750E0,-3.899391174E-1,-3.658392334E-1,-2.204765167E0,2.268673688E0
6.575535750E0,-1.466949463E-2,5.987548828E-3,-2.493963776E0,2.494014106E0
6.585543750E0,1.776805115E-1,2.580633545E-1,-2.612816620E0,2.631535245E0
6.595552750E0,2.498304749E-1,4.231700134E-1,-2.542313232E0,2.589371487E0
6.605560750E0,2.124082947E-1,4.851411438E-1,-2.409689026E0,2.467200927E0
6.615568750E0,-7.140151978E-2,4.471202087E-1,-2.176473999E0,2.223073037E0
6.625576750E0,-6.945556641E-1,1.163081360E-1,-1.969903564E0,2.091997898E0
6.635584750E0,-1.480720825E0,-7.872129822E-1,-2.110461273E0,2.695604798E0
6.645592750E0,-2.058818665E0,-1.781295776E0,-2.573298798E0,3.746146772E0
6.655600750E0,-2.584375763E0,-2.606230316E0,-3.114573212E0,4.813730449E0
6.665609750E0,-3.236719208E0,-3.359463959E0,-3.732188873E0,5.974243308E0
6.675617750E0,-3.911515961E0,-4.065845032E0,-4.294868774E0,7.090624142E0
6.685625750E0,-4.425696716E0,-4.667444000E0,-3.929927673E0,7.537649265E0
6.695633750E0,-4.770429840E0,-4.787494354E0,-2.579136658E0,7.233882011E0
6.705641750E0,-5.221741333E0,-4.333488464E0,-1.330133972E0,6.914836311E0
6.715649750E0,-5.884562988E0,-3.832929382E0,-3.423381042E-1,7.031118303E0
6.725657750E0,-7.231013031E0,-4.271217957E0,-2.514770508E-1,8.402029100E0
6.735666750E0,-8.677006073E0,-5.901328125E0,-9.810598755E-1,1.053938264E1
6.745674750E0,-9.164242859E0,-8.194858704E0,-4.862937469E0,1.322071167E1
6.755682750E0,-9.572593689E0,-1.028960266E1,-1.231159790E1,1.868384103E1
6.765690750E0,-8.774603119E0,-9.577084351E0,-8.497828674E0,1.552183290E1
6.775698750E0,-8.300538940E0,-7.541766815E0,9.151968384E-1,1.125232326E1
6.785706750E0,-9.991572418E0,-8.054899750E0,3.789220276E0,1.338174576E1
6.795714750E0,-1.349368973E1,-1.081710571E1,4.882995758E0,1.797033906E1
6.805723750E0,-1.733215759E1,-1.418944290E1,-9.264234924E-1,2.241879205E1
6.815731750E0,-1.768736893E1,-1.728335907E1,-1.790202255E1,3.052932904E1
6.825739750E0,-1.751507721E1,-1.956236984E1,-1.574425964E1,3.061610614E1
6.835747750E0,-1.773706558E1,-2.010005173E1,-6.860234070E-1,2.681578272E1
6.845755750E0,-1.661619644E1,-1.916329971E1,3.839216309E0,2.565286771E1
6.855763750E0,-1.425096497E1,-1.730221985E1,1.733545074E0,2.248248191E1
6.865771750E0,-1.164323776E1,-1.414333878E1,-2.314037933E0,1.846493403E1
6.875780750E0,-1.041608963E1,-1.152767807E1,-5.077142029E0,1.634501930E1
6.885788750E0,-1.053733749E1,-9.867330780E0,-4.038152618E0,1.499020930E1
6.895796750E0,-1.107741440E1,-8.852740631E0,-1.591789856E0,1.426933500E1
6.905804750E0,-1.122785156E1,-8.081993408E0,-6.176156616E-1,1.384791382E1
6.915812750E0,-1.090317673E1,-7.271578674E0,-7.207511902E-1,1.312534196E1
6.925820750E0,-1.027164001E1,-6.418053589E0,-1.465153198E0,1.220019157E1
6.935828750E0,-9.355694733E0,-5.465733948E0,-2.738704834E0,1.117603578E1
6.945837750E0,-8.190068665E0,-4.957690430E0,-3.559298401E0,1.021393774E1
6.955845750E0,-7.006180573E0,-4.699178009E0,-3.511547699E0,9.137822904E0
6.965853750E0,-5.872887268E0,-4.325255585E0,-2.847229156E0,7.829773599E0
6.975861750E0,-4.663402405E0,-3.761677551E0,-2.138003998E0,6.361493620E0
6.985869750E0,-3.509002991E0,-2.955005035E0,-1.659898224E0,4.878567296E0
6.995877750E0,-2.617906036E0,-2.347867584E0,-1.201251984E0,3.716035594E0
7.005885750E0,-1.738335114E0,-1.703457642E0,-1.198258209E0,2.712821343E0
7.015894750E0,-1.087488556E0,-1.079405365E0,-1.149309998E0,1.915374838E0
7.025902750E0,-5.011578369E-1,-4.022135925E-1,-1.409468994E0,1.549044156E0
7.035910750E0,-2.978805542E-2,-7.035369873E-3,-1.725162506E0,1.725434003E0
7.045918750E0,3.344046021E-1,1.730401611E-1,-1.873204651E0,1.910671348E0
7.055926750E0,5.647755432E-1,2.454895020E-1,-1.769021301E0,1.873145182E0
7.065934750E0,6.801855469E-1,2.643502808E-1,-1.552870789E0,1.715791693E0
7.075942750E0,7.825726318E-1,8.876541138E-2,-1.395098877E0,1.602061203E0
7.085951750E0,6.659651184E-1,-2.396516418E-1,-1.364861755E0,1.537462214E0
7.095959750E0,1.103205872E-1,-7.869136047E-1,-1.354682922E0,1.570531589E0
7.105967750E0,-5.415737915E-1,-1.466650085E0,-1.768871613E0,2.360777716E0
7.115976125E0,-1.088985443E0,-2.499801636E0,-2.917133789E0,3.993064870E0
7.125984125E0,-1.752106476E0,-3.795207825E0,-4.244273987E0,5.957125247E0
7.135992125E0,-2.456391907E0,-4.924459534E0,-3.954925690E0,6.776842931E0
7.146000125E0,-3.110681305E0,-5.361101532E0,-2.246378632E0,6.592720590E0
7.156009125E0,-3.702550507E0,-5.133424988E0,-8.470884705E-1,6.385803883E0
7.166017125E0,-4.357288971E0,-4.844675446E0,-4.300556946E-1,6.530068549E0
7.176025125E0,-5.043911133E0,-5.149291992E0,-3.574566650E-1,7.216926133E0
7.186033125E0,-5.980363770E0,-5.801785126E0,1.586700439E-2,8.332209384E0
7.196041125E0,-7.459138641E0,-7.189249878E0,9.729766846E-3,1.035973734E1
7.206049125E0,-9.686506805E0,-9.861343231E0,-2.359842682E0,1.402295839E1
7.216057125E0,-1.223390945E1,-1.242476257E1,-8.801397400E0,1.953222624E1
7.226066125E0,-1.333816315E1,-1.220666611E1,-1.153965317E1,2.144930975E1
7.236074125E0,-1.254840546E1,-9.750573578E0,-4.007167053E0,1.638882401E1
7.246082125E0,-1.261112503E1,-7.867639160E0,1.131646729E0,1.490707365E1
7.256090125E0,-1.403391632E1,-6.710695038E0,2.326162720E-1,1.555758161E1
7.266098125E0,-1.574231369E1,-6.139782257E0,-2.899470520E0,1.714422048E1
7.276106125E0,-1.677336960E1,-6.984026642E0,-6.112987976E0,1.917005941E1
7.286114125E0,-1.699011887E1,-9.283544769E0,-5.966293030E0,2.025944212E1
7.296123125E0,-1.676019699E1,-1.190219925E1,-3.489543457E0,2.085050272E1
7.306131125E0,-1.588945770E1,-1.382929184E1,-1.713636475E0,2.113434950E1
7.316139125E0,-1.446995956E1,-1.538410858E1,-1.660946045E0,2.118511903E1
7.326147125E0,-1.293160858E1,-1.629810791E1,-2.882256317E0,2.100386211E1
7.336155125E0,-1.196372131E1,-1.650617523E1,-3.609593811E0,2.070298568E1
7.346163125E0,-1.139879608E1,-1.567285812E1,-3.105741577E0,1.962693722E1
7.356171125E0,-1.087458618E1,-1.396461044E1,-1.853894806E0,1.779617643E1
7.366180125E0,-1.045081741E1,-1.212403793E1,-8.178991699E-1,1.602750260E1
7.376188125E0,-1.010249176E1,-1.054661819E1,-4.610412598E-1,1.461177793E1
7.386196125E0,-9.731114044E0,-9.185648346E0,-7.002438354E-1,1.340003946E1
7.396204125E0,-9.158404999E0,-8.034242706E0,-1.076411591E0,1.223045788E1
7.406212125E0,-8.437653809E0,-7.058571625E0,-1.517244873E0,1.110492986E1
7.416220125E0,-7.436685333E0,-6.172115021E0,-1.868564301E0,9.843313727E0
7.426228125E0,-6.243516541E0,-5.536087646E0,-2.164648590E0,8.620642014E0
7.436237125E0,-5.136568451E0,-4.854554901E0,-2.225721588E0,7.409782408E0
7.446245125E0,-3.976929932E0,-3.933520203E0,-2.166893921E0,5.998665029E0
7.456253125E0,-2.880609741E0,-3.019969940E0,-2.200573883E0,4.718120000E0
7.466261125E0,-1.999691620E0,-2.127525787E0,-2.456391907E0,3.815624949E0
7.476269125E0,-1.252595215E0,-1.225202179E0,-2.786605225E0,3.291699231E0
7.486277125E0,-6.030958557E-1,-7.710466003E-1,-2.916684723E0,3.076570695E0
7.496286125E0,2.365081787E-2,-6.941065979E-1,-3.380270691E0,3.450880072E0
7.506294125E0,3.731739807E-1,-7.182064819E-1,-3.371439056E0,3.467229540E0
7.516302125E0,4.185296631E-1,-8.234376526E-1,-2.585124207E0,2.745192855E0
7.526310125E0,3.647914124E-1,-1.050515442E0,-1.635199585E0,1.977506802E0
7.536318125E0,2.853067017E-1,-1.251996460E0,-8.755293274E-1,1.554170728E0
7.546326125E0,1.869612122E-1,-1.392105103E0,-4.644841003E-1,1.479410893E0
7.556334125E0,-3.772155762E-2,-1.558109894E0,-3.176394653E-1,1.590604975E0
7.566343125E0,-2.701881409E-1,-1.881287842E0,-6.430627441E-1,2.006433470E0
7.576351125E0,-6.233038330E-1,-2.385738831E0,-1.634151764E0,2.958159804E0
7.586359125E0,-1.269510040E0,-3.177442474E0,-3.420387268E0,4.838062162E0
7.596367125E0,-2.144590302E0,-4.093088379E0,-4.749024353E0,6.626150643E0
7.606375125E0,-3.383264465E0,-4.664899292E0,-4.687502289E0,7.428353893E0
7.616383125E0,-4.747527466E0,-5.347479858E0,-4.895868988E0,8.666261652E0
7.626391125E0,-5.891448669E0,-6.036646729E0,-5.210963745E0,9.914858259E0
7.636400125E0,-6.599027252E0,-5.678890686E0,-3.295846252E0,9.309111806E0
7.646408125E0,-6.975344696E0,-4.654570770E0,-1.385668488E0,8.499443502E0
7.656416125E0,-7.724237366E0,-4.365671539E0,-3.206332397E-1,8.878385920E0
7.666424125E0,-8.903634796E0,-5.348827057E0,-4.995112610E-1,1.039875834E1
7.676432125E0,-9.697883148E0,-7.636968842E0,-5.086422729E0,1.335080248E1
7.686440125E0,-9.564211121E0,-1.027134064E1,-1.257415192E1,1.884366921E1
7.696448125E0,-9.828860779E0,-1.014156052E1,-8.426427155E0,1.644574196E1
7.706457125E0,-1.122425903E1,-9.192833405E0,7.454498291E-2,1.450854003E1
7.716465125E0,-1.289643173E1,-9.173224182E0,2.939287720E0,1.609675140E1
7.726473125E0,-1.411878983E1,-9.501491547E0,3.037184143E-1,1.702089341E1
7.736481125E0,-1.327364731E1,-8.955726471E0,-1.234497849E1,2.021863604E1
7.746489125E0,-1.203003342E1,-9.601782990E0,-1.509101807E1,2.155585226E1
7.756497125E0,-1.261756165E1,-1.203841599E1,-4.020489349E0,1.789666606E1
7.766505125E0,-1.333891159E1,-1.400831955E1,1.570534058E0,1.940685848E1
7.776514125E0,-1.435544769E1,-1.600217331E1,1.958676910E0,2.158668211E1
7.786522125E0,-1.545610886E1,-1.822415268E1,-1.046324158E-1,2.389606641E1
7.796530125E0,-1.569471268E1,-1.919443497E1,-4.186943207E0,2.514519503E1
7.806538125E0,-1.446741486E1,-1.720552094E1,-4.994364166E0,2.302780312E1
7.816546125E0,-1.263956589E1,-1.377106293E1,-2.870879974E0,1.891144499E1
7.826554125E0,-1.166284698E1,-1.164054337E1,-1.296004944E0,1.652888013E1
7.836562125E0,-1.095347214E1,-1.019679565E1,-6.484515381E-1,1.497910821E1
7.846571125E0,-1.023317001E1,-8.900790710E0,-6.355783081E-1,1.357740047E1
7.856579125E0,-9.367220764E0,-7.666008453E0,-1.104403381E0,1.215451428E1
7.866587125E0,-8.373587036E0,-6.353986816E0,-1.794767761E0,1.066355005E1
7.876595125E0,-7.383545837E0,-5.282514954E0,-2.276466064E0,9.359701443E0
7.886603125E0,-6.546636200E0,-4.533921661E0,-2.755469971E0,8.426595156E0
7.896611125E0,-5.642216949E0,-3.760180664E0,-3.003803558E0,7.415956213E0
7.906619125E0,-4.613556061E0,-2.745291138E0,-3.108136597E0,6.203389079E0
7.916628125E0,-3.719016266E0,-1.532064056E0,-3.213367767E0,5.148206937E0
7.926636125E0,-3.134781189E0,-4.462220764E-1,-3.501967621E0,4.721201591E0
7.936644125E0,-2.517015839E0,5.945635986E-1,-3.869603119E0,4.654320885E0
7.946652125E0,-1.926493835E0,1.235530701E0,-3.983815613E0,4.594420687E0
7.956660125E0,-1.454674988E0,1.447789307E0,-3.840862885E0,4.354813532E0
7.966668125E0,-1.048419800E0,1.251996460E0,-3.634292450E0,3.984314348E0
7.976676125E0,-7.162605286E-1,7.940986633E-1,-3.225791931E0,3.398434259E0
7.986685125E0,-5.688171387E-1,1.020877075E-1,-2.528392181E0,2.593596318E0
7.996693125E0,-5.114863586E-1,-7.053332520E-1,-1.794468384E0,1.994800760E0
8.006701125E0,-5.084925842E-1,-1.691781921E0,-1.157692566E0,2.112094424E0
8.016709125E0,-6.307882690E-1,-2.777923279E0,-6.935078430E-1,2.931843228E0
8.026717125E0,-7.893086243E-1,-3.781885529E0,-4.989125061E-1,3.895456320E0
8.036725125E0,-9.514215088E-1,-4.577780457E0,-7.036866760E-1,4.728260963E0
8.046733125E0,-1.151405640E0,-5.204078064E0,-1.092727661E0,5.440791963E0
8.056742125E0,-1.487157440E0,-5.587580566E0,-1.084943848E0,5.883009178E0
8.066750125E0,-2.071991272E0,-5.560636597E0,-3.863465881E-1,5.946687387E0
8.076758125E0,-2.947071533E0,-5.106630707E0,-1.032852173E-2,5.896016831E0
8.086766125E0,-3.891457672E0,-4.591851196E0,-9.220825195E-2,6.019721138E0
8.096774125E0,-4.964276733E0,-4.893024902E0,-5.875282288E-1,6.995064374E0
8.106782125E0,-6.649622040E0,-6.522386627E0,-2.779719543E0,9.720382777E0
8.116790000E0,-8.351882172E0,-8.927285614E0,-7.335645447E0,1.425700033E1
8.126799000E0,-1.012150223E1,-1.028196854E1,-1.163051422E1,1.853193313E1
8.136807000E0,-1.064032333E1,-9.180109863E0,-8.951535187E0,1.666195907E1
8.146815000E0,-9.519304504E0,-7.535180511E0,-1.817819824E0,1.227601615E1
8.156823000E0,-9.510023804E0,-7.366631012E0,2.339934082E0,1.225492133E1
8.166831000E0,-1.149863846E1,-8.012687531E0,3.395988007E0,1.442063044E1
8.176839000E0,-1.502021530E1,-9.199569397E0,2.342778168E0,1.776872405E1
8.186847000E0,-1.839883942E1,-1.072953781E1,-4.132755890E0,2.169608132E1
8.196856000E0,-1.912348251E1,-1.297846115E1,-1.206565933E1,2.607159704E1
8.206864000E0,-1.838087677E1,-1.532183807E1,-9.658664703E0,2.580513818E1
8.216872000E0,-1.754576340E1,-1.638313110E1,-2.591710510E0,2.414493241E1
8.226880000E0,-1.631023270E1,-1.609363312E1,1.381626892E0,2.295512166E1
8.236888000E0,-1.487995697E1,-1.467458405E1,1.052611084E0,2.092521270E1
8.246896000E0,-1.315329758E1,-1.227028381E1,-1.375040588E0,1.804050550E1
8.256904000E0,-1.171553741E1,-1.019544846E1,-2.666405182E0,1.575787748E1
8.266913000E0,-1.105960144E1,-8.954379272E0,-2.227368164E0,1.440336284E1
8.276921000E0,-1.059047699E1,-8.336314545E0,-1.416204987E0,1.355204706E1
8.286929000E0,-1.008408005E1,-7.970475311E0,-9.867480469E-1,1.289150181E1
8.296937000E0,-9.439221039E0,-7.767497406E0,-1.180445251E0,1.228113841E1
8.306945000E0,-8.652307434E0,-7.508984985E0,-1.756896515E0,1.159025301E1
8.316953000E0,-7.698939972E0,-7.051985321E0,-2.596650238E0,1.075856710E1
8.326961000E0,-6.576723633E0,-6.382277985E0,-3.423680420E0,9.783064634E0
8.336970000E0,-5.370382233E0,-5.573360138E0,-3.937711487E0,8.683830969E0
8.346978000E0,-4.295018463E0,-4.715494080E0,-4.029620361E0,7.544594639E0
8.356986000E0,-3.258873138E0,-3.783831482E0,-4.081262970E0,6.449367585E0
8.366994000E0,-2.535726929E0,-3.079695740E0,-3.647764435E0,5.405610260E0
8.377002000E0,-1.861977997E0,-2.535577240E0,-3.133433990E0,4.440103892E0
8.387010000E0,-1.053808594E0,-2.093995514E0,-3.044219513E0,3.842213191E0
8.397018000E0,-4.966671753E-1,-1.884880371E0,-2.932402039E0,3.521141010E0
8.407027000E0,-1.835183716E-1,-1.707050171E0,-2.616109772E0,3.129173951E0
8.417035000E0,-5.284011841E-2,-1.561852112E0,-2.205214233E0,2.702802973E0
8.427043000E0,3.038681030E-2,-1.486558685E0,-1.750609589E0,2.296826945E0
8.437051000E0,1.779798889E-1,-1.483864288E0,-1.406175842E0,2.052038149E0
8.447059000E0,3.284170532E-1,-1.591939545E0,-1.162931671E0,1.998634370E0
8.457067000E0,2.944377136E-1,-1.723515930E0,-1.101559296E0,2.066551139E0
8.467076000E0,7.289840698E-2,-1.917213135E0,-1.389710083E0,2.369032397E0
8.477084000E0,-2.478845215E-1,-2.220931549E0,-1.984123993E0,2.988432984E0
8.487092000E0,-7.888595581E-1,-2.586471405E0,-2.639012146E0,3.778428091E0
8.497100000E0,-1.533710632E0,-2.951711884E0,-3.071313171E0,4.527453583E0
8.507108000E0,-2.417173462E0,-3.290756836E0,-2.961291962E0,5.043912983E0
8.517116000E0,-3.318598938E0,-3.400328979E0,-2.250270538E0,5.257285761E0
8.527124000E0,-4.201313324E0,-3.354374542E0,-1.373543701E0,5.548827310E0
8.537133000E0,-5.110821991E0,-3.345991974E0,-9.532177734E-1,6.182619820E0
8.547141000E0,-5.969735870E0,-3.374732208E0,-7.325765991E-1,6.896610205E0
8.557149000E0,-6.977440338E0,-3.612737274E0,-1.518592072E0,8.002666191E0
8.567157000E0,-8.000263367E0,-4.411625977E0,-2.836900635E0,9.566329646E0
8.577165000E0,-8.741072845E0,-5.561983795E0,-5.455405426E0,1.170911895E1
8.587173000E0,-9.527836761E0,-6.709796906E0,-8.315058746E0,1.431576927E1
8.597181000E0,-8.938661957E0,-6.912325745E0,-3.036286011E0,1.170038279E1
8.607190000E0,-9.789492645E0,-7.654931488E0,1.361867981E0,1.250147298E1
8.617198000E0,-1.311901886E1,-9.707762604E0,1.622326355E0,1.640064796E1
8.627206000E0,-1.607297607E1,-1.153710846E1,-1.234931946E-1,1.978536535E1
8.637214000E0,-1.658595932E1,-1.232821335E1,-6.726711731E0,2.173309784E1
8.647222000E0,-1.457563980E1,-1.157453064E1,-1.192135941E1,2.210289224E1
8.657230000E0,-1.461036758E1,-1.231025070E1,-7.785010986E0,2.063035408E1
8.667238000E0,-1.660392197E1,-1.432236649E1,-3.520678711E0,2.220845751E1
8.677247000E0,-1.761327301E1,-1.654539368E1,-4.239633636E0,2.453470871E1
8.687255000E0,-1.765084488E1,-1.863938919E1,-4.666845245E0,2.609135104E1
8.697263000E0,-1.687366104E1,-1.904953629E1,-3.632346497E0,2.570601507E1
8.707271000E0,-1.463476685E1,-1.627176270E1,-2.786006470E0,2.206147080E1
8.717279000E0,-1.246263382E1,-1.218511093E1,-2.302811279E0,1.758115781E1
8.727287000E0,-1.159339142E1,-9.688153381E0,-1.960173798E0,1.523513445E1
8.737295000E0,-1.085797073E1,-8.125552826E0,-1.695973206E0,1.366735023E1
8.747304000E0,-9.956694946E0,-7.169191589E0,-1.527124329E0,1.236386635E1
8.757312000E0,-9.044042816E0,-6.649771729E0,-1.539398804E0,1.133066296E1
8.767320000E0,-8.163274384E0,-6.410269775E0,-1.831591187E0,1.053970272E1
8.777328000E0,-7.280410309E0,-6.039790192E0,-2.274520111E0,9.729176818E0
8.787336000E0,-6.171516266E0,-5.571563873E0,-2.601140900E0,8.711823632E0
8.797344000E0,-4.952301636E0,-5.193001099E0,-2.805166626E0,7.704642218E0
8.807352000E0,-3.683839417E0,-4.788991241E0,-2.813998260E0,6.665110364E0
8.817361000E0,-2.576741638E0,-4.102069702E0,-2.645598450E0,5.519580099E0
8.827369000E0,-1.473386078E0,-3.255130920E0,-2.721640320E0,4.491555396E0
8.837377000E0,-6.891668701E-1,-2.634671173E0,-2.676584015E0,3.818448003E0
8.847385000E0,-1.290316772E-1,-2.243833923E0,-2.616558838E0,3.449321673E0
8.857393000E0,5.418731689E-1,-1.886826324E0,-2.734064484E0,3.365835514E0
8.867401000E0,9.494755554E-1,-1.603914642E0,-2.522704010E0,3.136571621E0
8.877409000E0,1.185684357E0,-1.455573120E0,-2.504741364E0,3.130218810E0
8.887418000E0,1.230590973E0,-1.343605957E0,-2.533182220E0,3.120359478E0
8.897426000E0,9.286688232E-1,-1.190025330E0,-2.408641205E0,2.842558447E0
8.907434000E0,4.581971741E-1,-1.030606842E0,-2.336491241E0,2.594472284E0
8.917442000E0,-7.140151978E-2,-1.021775208E0,-2.397564240E0,2.607189490E0
8.927450000E0,-8.583151245E-1,-1.322948914E0,-2.521207123E0,2.973782782E0
8.937458000E0,-1.635648651E0,-1.801204376E0,-2.735561371E0,3.661008021E0
8.947467000E0,-2.177072754E0,-2.351909180E0,-3.036585388E0,4.414971504E0
8.957475000E0,-2.660866699E0,-2.778671722E0,-3.691024475E0,5.331499771E0
8.967483000E0,-3.240012360E0,-2.902015228E0,-4.043541412E0,5.938821401E0
8.977491000E0,-4.024530945E0,-2.607577515E0,-3.012036438E0,5.662920918E0
8.987499000E0,-4.897665253E0,-2.289339294E0,-1.967957611E0,5.753351761E0
8.997507000E0,-5.896837463E0,-2.418370972E0,-1.782942352E0,6.618163919E0
9.007515000E0,-6.952741699E0,-3.187172241E0,-2.159110107E0,7.947354307E0
9.017524000E0,-8.059091034E0,-4.526437225E0,-3.558400269E0,9.904534049E0
9.027532000E0,-9.270072784E0,-6.245013428E0,-6.089187469E0,1.272841884E1
9.037540000E0,-9.522447968E0,-7.714657288E0,-6.811734924E0,1.402115134E1
9.047548000E0,-8.593928833E0,-8.116870880E0,-2.583926697E0,1.210024309E1
9.057556000E0,-9.256750488E0,-8.358468475E0,1.162033539E0,1.252604274E1
9.067564000E0,-1.189725952E1,-1.086979614E1,2.391576691E0,1.629162028E1
9.077572000E0,-1.466979401E1,-1.557585983E1,-1.609602814E0,2.145695894E1
9.087581000E0,-1.470527023E1,-1.973585907E1,-1.383363281E1,2.823328714E1
9.097589000E0,-1.413540527E1,-1.970487350E1,-1.133517838E1,2.676897441E1
9.107597000E0,-1.439795929E1,-1.643028305E1,3.351530457E-1,2.184874734E1
9.117605250E0,-1.447220490E1,-1.411055695E1,2.865790558E0,2.041483008E1
9.127613250E0,-1.496078888E1,-1.313353867E1,1.294358368E0,1.994969687E1
9.137621250E0,-1.532483185E1,-1.167048111E1,-3.372187500E0,1.955561937E1
9.147629250E0,-1.511511795E1,-1.072983719E1,-6.436614990E0,1.962208473E1
9.157638250E0,-1.474254272E1,-1.044123734E1,-3.274590454E0,1.835987325E1
9.167646250E0,-1.407642792E1,-1.012255005E1,-8.427474976E-2,1.733836626E1
9.177654250E0,-1.328382614E1,-9.724677429E0,7.933502197E-1,1.648207489E1
9.187662250E0,-1.252834717E1,-9.254804535E0,5.390290833E-1,1.558529570E1
9.197670250E0,-1.169727539E1,-8.902437286E0,-9.999206543E-2,1.469998774E1
9.207678250E0,-1.080528030E1,-8.483458557E0,-8.433462524E-1,1.376351643E1
9.217686250E0,-9.718839569E0,-7.840096436E0,-1.632654877E0,1.259319327E1
9.227695250E0,-8.386160889E0,-6.978937225E0,-2.550246735E0,1.120433031E1
9.237703250E0,-6.928342438E0,-6.141728210E0,-3.248095551E0,9.811874390E0
9.247711250E0,-5.447621613E0,-5.133724365E0,-3.667223969E0,8.335480714E0
9.257719250E0,-3.898792419E0,-3.597469025E0,-3.692072296E0,6.463262609E0
9.267727250E0,-2.694846039E0,-2.181563416E0,-3.303181000E0,4.788780516E0
9.277735250E0,-1.807940369E0,-1.198707275E0,-2.773881683E0,3.521358701E0
9.287743250E0,-1.026415558E0,-4.369413757E-1,-2.579436035E0,2.810326836E0
9.297752250E0,-5.616320801E-1,2.589614868E-1,-2.427801361E0,2.505336523E0
9.307760250E0,-1.754351807E-1,9.857002258E-1,-2.487527161E0,2.681449946E0
9.317768250E0,1.559756470E-1,1.286873932E0,-3.002755737E0,3.270613847E0
9.327776250E0,3.504212952E-1,1.197958832E0,-3.337010651E0,3.562799535E0
9.337784250E0,5.596861267E-1,9.385482788E-1,-3.525169373E0,3.690655841E0
9.347792250E0,5.771997070E-1,3.341052246E-1,-3.705544281E0,3.765082233E0
9.357801250E0,8.307723999E-2,-7.833210754E-1,-3.802991638E0,3.883714605E0
9.367809250E0,-5.581892395E-1,-1.714235229E0,-3.951482849E0,4.343316055E0
9.377817250E0,-1.049766998E0,-2.646945648E0,-3.947740631E0,4.867544361E0
9.387825250E0,-1.608405304E0,-3.682941284E0,-3.596720581E0,5.393275727E0
9.397833250E0,-2.227667542E0,-4.446204071E0,-2.952460327E0,5.783446663E0
9.407841250E0,-2.839145966E0,-4.637506256E0,-1.710193634E0,5.700173362E0
9.417849250E0,-3.421435089E0,-3.972888336E0,-6.915618896E-2,5.243552458E0
9.427858250E0,-4.001329193E0,-3.177592163E0,8.033793640E-1,5.172344311E0
9.437866250E0,-4.830155640E0,-3.208577728E0,7.676037598E-1,5.849323899E0
9.447874250E0,-6.034850464E0,-5.575156403E0,-1.837279358E0,8.418870736E0
9.457882250E0,-6.395600281E0,-8.202792206E0,-3.571872253E0,1.099762585E1
9.467890250E0,-6.702013092E0,-9.125772858E0,-5.449567566E0,1.256560768E1
9.477898250E0,-7.404801636E0,-8.825646973E0,-7.447163544E0,1.371799463E1
9.487906250E0,-6.874454498E0,-6.387816467E0,-1.650617523E0,9.528214002E0
9.497915250E0,-7.372468872E0,-7.059170380E0,5.608836365E-1,1.022251310E1
9.507923250E0,-1.063283890E1,-1.168889282E1,-6.490951996E0,1.708273796E1
9.517931250E0,-1.412881897E1,-1.473236389E1,-1.233150650E1,2.384810525E1
9.527939250E0,-1.473730362E1,-1.494402374E1,-8.648415527E0,2.270037565E1
9.537947250E0,-1.364682129E1,-1.482517090E1,-3.541485443E0,2.045882554E1
9.547955250E0,-1.254660919E1,-1.460857132E1,-1.611997833E0,1.932424113E1
9.557963250E0,-1.168784500E1,-1.526645325E1,-3.507057037E0,1.954404678E1
9.567972250E0,-1.157857224E1,-1.489432709E1,-6.323150940E0,1.989689805E1
9.577980250E0,-1.212074478E1,-1.332304459E1,-5.654341736E0,1.887822957E1
9.587988250E0,-1.286305115E1,-1.184666473E1,-4.026925964E0,1.794485115E1
9.597996250E0,-1.321856186E1,-1.065065186E1,-3.200045471E0,1.727446247E1
9.608004250E0,-1.330448318E1,-9.983938293E0,-2.724035339E0,1.685552328E1
9.618012250E0,-1.326646225E1,-9.810748444E0,-2.348017273E0,1.666622305E1
9.628021250E0,-1.308084824E1,-9.831854553E0,-1.793869629E0,1.646183230E1
9.638029250E0,-1.270018982E1,-9.825118561E0,-1.229094086E0,1.610398859E1
9.648037250E0,-1.217747681E1,-9.690847778E0,-1.067430267E0,1.559945125E1
9.658045250E0,-1.143187729E1,-9.303453369E0,-1.404978333E0,1.480594567E1
9.668053250E0,-1.042537033E1,-8.761430511E0,-1.816772003E0,1.373869250E1
9.678061250E0,-9.129215698E0,-8.146060181E0,-2.223326569E0,1.243559636E1
9.688069250E0,-7.673642578E0,-7.355404358E0,-2.520308990E0,1.092422634E1
9.698078250E0,-6.304439850E0,-6.619833984E0,-2.750829620E0,9.546477225E0
9.708086250E0,-5.040168915E0,-5.979465637E0,-2.890189819E0,8.337296276E0
9.718094250E0,-3.882626038E0,-4.896168365E0,-2.663860474E0,6.792893510E0
9.728102250E0,-2.834804993E0,-3.443289642E0,-2.514022064E0,5.119831037E0
9.738110250E0,-1.908231812E0,-2.256557465E0,-2.535277863E0,3.893717257E0
9.748118250E0,-1.313967590E0,-1.232536926E0,-2.639161835E0,3.195439452E0
9.758126250E0,-1.131946106E0,-2.972817993E-1,-2.675536194E0,2.920303474E0
9.768135250E0,-1.141226807E0,4.912783813E-1,-2.554887085E0,2.840985936E0
9.778143250E0,-1.245410156E0,1.136885834E0,-2.330054626E0,2.876231983E0
9.788151250E0,-1.293609924E0,1.529669037E0,-2.406695251E0,3.131372867E0
9.798159250E0,-1.318907318E0,1.506167908E0,-2.652484131E0,3.323210849E0
9.808167250E0,-1.430275726E0,1.141526184E0,-2.705923004E0,3.266617515E0
9.818175250E0,-1.733694763E0,3.972738647E-1,-2.553988953E0,3.112295556E0
9.828184250E0,-1.907183990E0,-1.100511475E0,-2.539618835E0,3.361270609E0
9.838192250E0,-1.819616089E0,-2.376308441E0,-2.619402924E0,3.977325256E0
9.848200250E0,-1.811532898E0,-3.254532166E0,-2.589465179E0,4.536403969E0
9.858208250E0,-1.918710022E0,-3.989952850E0,-2.525997162E0,5.097237836E0
9.868216250E0,-2.127076721E0,-4.612208862E0,-2.498903503E0,5.660516292E0
9.878224250E0,-2.490221558E0,-5.119354248E0,-2.333796844E0,6.152690390E0
9.888232250E0,-3.020718384E0,-5.529351654E0,-1.942061462E0,6.593183752E0
9.898241250E0,-3.804787903E0,-5.885910187E0,-1.947150879E0,7.274046072E0
9.908249250E0,-4.935087433E0,-6.440057831E0,-3.221450958E0,8.729672337E0
9.918257250E0,-6.365063782E0,-8.096812592E0,-6.758296051E0,1.231856228E1
9.928265250E0,-7.401957550E0,-9.928104401E0,-8.952283630E0,1.528069418E1
9.938273250E0,-8.167615356E0,-9.338480530E0,-4.699627075E0,1.326663687E1
9.948281250E0,-9.573342133E0,-8.243956604E0,-2.799179077E-1,1.263685301E1
9.958289250E0,-1.045830185E1,-7.536078644E0,1.273851013E0,1.295342639E1
9.968298250E0,-9.887838135E0,-6.663692780E0,1.115929413E0,1.197578569E1
9.978306250E0,-9.390272827E0,-5.562732239E0,1.242865448E0,1.098480442E1
9.988314250E0,-9.799072723E0,-5.313051453E0,1.609153748E0,1.126231405E1
9.998322250E0,-1.115929413E1,-5.854325867E0,1.814975739E0,1.273173648E1
1.000833025E1,-1.549832108E1,-7.026238861E0,-4.205504608E0,1.752861254E1
1.001833825E1,-1.792761932E1,-1.332184708E1,-1.904609344E1,2.935344647E1
1.002834725E1,-1.867950577E1,-1.786834259E1,-1.516960464E1,2.997196203E1
1.003835525E1,-1.905238037E1,-1.815604431E1,-1.507814484E0,2.636111999E1
1.004836325E1,-1.794677948E1,-1.741718079E1,4.014052734E0,2.532898931E1
1.005837125E1,-1.634196671E1,-1.757809616E1,4.098626862E0,2.434847187E1
1.006837925E1,-1.495225662E1,-1.707379486E1,8.993298340E-1,2.271328341E1
1.007838725E1,-1.318862411E1,-1.357976074E1,-5.491929474E0,1.971068231E1
1.008839525E1,-1.212179260E1,-1.083402054E1,-8.114924927E0,1.817046679E1
1.009840425E1,-1.160581558E1,-9.806706848E0,-4.612657928E0,1.587901344E1
1.010841225E1,-1.116677856E1,-9.216334534E0,-9.017248535E-1,1.450692502E1
1.011841975E1,-1.063912582E1,-8.232879639E0,3.237767029E-1,1.345645335E1
1.012842775E1,-9.775571594E0,-7.594307556E0,-7.569758606E-1,1.240194822E1
1.013843575E1,-8.483159180E0,-7.060667267E0,-2.014959869E0,1.121949532E1
1.014844375E1,-7.196285248E0,-6.144272919E0,-2.773282928E0,9.860512627E0
1.015845175E1,-5.981860657E0,-4.817132721E0,-2.963836670E0,8.232360073E0
1.016846075E1,-4.924309845E0,-3.301384735E0,-2.973267059E0,6.632366518E0
1.017846875E1,-4.078867950E0,-1.914219360E0,-2.904859314E0,5.360933422E0
1.018847675E1,-3.038381653E0,-7.470964050E-1,-3.120560760E0,4.419028804E0
1.019848475E1,-2.055824890E0,9.520202637E-2,-3.562890930E0,4.114568165E0
1.020849275E1,-1.358275452E0,7.786807251E-1,-3.919599152E0,4.220724272E0
1.021850075E1,-6.381230164E-1,1.080004120E0,-4.317022705E0,4.495586160E0
1.022850975E1,-2.290237427E-1,1.041384430E0,-4.087100830E0,4.223899454E0
1.023851775E1,-7.200027466E-2,7.845185852E-1,-3.195405121E0,3.291089081E0
1.024852575E1,-8.187973022E-2,4.692741394E-1,-2.017504578E0,2.072980277E0
1.025853375E1,-1.029858398E-1,4.326004028E-2,-8.849597168E-1,8.919816224E-1
1.026854175E1,-1.823208618E-1,-3.969744873E-1,-4.969665527E-2,4.396582739E-1
1.027854975E1,-3.647914124E-1,-8.873547363E-1,5.224136353E-1,1.092422633E0
1.028855775E1,-5.767506409E-1,-1.427731018E0,7.450007629E-1,1.710579814E0
1.029856675E1,-7.240443420E-1,-2.061063995E0,4.905299377E-1,2.238938280E0
1.030857475E1,-8.288264465E-1,-2.779120789E0,-5.547463989E-1,2.952661376E0
1.031858275E1,-8.544232178E-1,-3.493884430E0,-2.319576416E0,4.279918480E0
1.032859075E1,-1.123713226E0,-4.112847290E0,-3.445385284E0,5.481689886E0
1.033859875E1,-1.871109009E0,-4.255500641E0,-2.654130707E0,5.353012650E0
1.034860675E1,-2.738255768E0,-3.690126343E0,-1.015787659E0,4.706049473E0
1.035861575E1,-3.387904816E0,-2.994822235E0,2.348616028E-1,4.527915550E0
1.036862375E1,-4.189487915E0,-2.943329315E0,5.665718079E-1,5.151310519E0
1.037863175E1,-5.806275787E0,-4.092938690E0,-3.031196594E-1,7.110335236E0
1.038863975E1,-7.765102386E0,-5.990991669E0,-1.802102509E0,9.971778663E0
1.039864775E1,-8.686286774E0,-7.917784882E0,-4.290677490E0,1.251210648E1
1.040865575E1,-9.396260376E0,-9.919272766E0,-1.052745804E1,1.724845077E1
1.041866375E1,-9.728868713E0,-1.031490005E1,-9.648635559E0,1.715063316E1
1.042867275E1,-1.063583267E1,-9.246571655E0,-4.056564331E-1,1.409909859E1
1.043868075E1,-1.466650085E1,-1.045710434E1,3.635789337E0,1.837596916E1
1.044868875E1,-1.976235397E1,-1.268537064E1,4.622836761E0,2.393407367E1
1.045869675E1,-2.135504196E1,-1.247909958E1,2.516566772E0,2.486159391E1
1.046870475E1,-1.783975204E1,-1.028601013E1,-5.839506683E0,2.140463958E1
1.047871275E1,-1.526480667E1,-9.753567352E0,-1.765368896E1,2.529425098E1
1.048872175E1,-1.801518723E1,-1.369442230E1,-1.324790085E1,2.622195740E1
1.049872975E1,-2.058803696E1,-1.812431030E1,-1.152154083E0,2.745333038E1
1.050873775E1,-1.931313812E1,-2.003373962E1,3.345093842E0,2.802744513E1
1.051874575E1,-1.604199051E1,-1.964993774E1,3.430715790E0,2.559756480E1
1.052875375E1,-1.250484604E1,-1.708547058E1,1.789528656E0,2.124822092E1
1.053876175E1,-1.014620087E1,-1.394006149E1,-4.972659302E-1,1.724870951E1
1.054876975E1,-9.259295197E0,-1.130913254E1,-1.876348114E0,1.473606829E1
1.055877875E1,-9.117689667E0,-9.487869873E0,-1.876647491E0,1.329186764E1
1.056878675E1,-9.072483673E0,-8.418643341E0,-1.307530975E0,1.244560778E1
1.057879475E1,-8.788973236E0,-7.587721252E0,-9.868977356E-1,1.165304816E1
1.058880275E1,-8.012687531E0,-6.858437805E0,-1.109043732E0,1.060524911E1
1.059881075E1,-6.698420563E0,-5.760920105E0,-1.612147522E0,8.980871791E0
1.060881875E1,-5.027595062E0,-4.066593475E0,-2.626887360E0,6.979572466E0
1.061882775E1,-3.542383575E0,-2.383044434E0,-3.516637115E0,5.531195058E0
1.062883575E1,-2.211351471E0,-1.163231049E0,-3.969295807E0,4.690254897E0
1.063884375E1,-1.232536926E0,-7.526348877E-1,-3.230581970E0,3.538681451E0
1.064885175E1,-4.698728943E-1,-4.351451111E-1,-2.791245575E0,2.863770882E0
1.065885975E1,1.170565796E-1,-2.059716797E-1,-2.833757172E0,2.843643136E0
1.066886775E1,7.024891663E-1,-3.667373657E-2,-2.943778381E0,3.026659404E0
1.067887675E1,1.086440735E0,6.975494385E-2,-2.873873749E0,3.073169300E0
1.068888475E1,1.347946930E0,5.598358154E-2,-2.725981293E0,3.041557018E0
1.069889275E1,1.418450317E0,4.640350342E-3,-2.374212799E0,2.765666150E0
1.070890075E1,1.247206421E0,-1.365161133E-1,-1.758393402E0,2.160117557E0
1.071890875E1,7.011419678E-1,-2.311193848E-1,-1.190474396E0,1.400801740E0
1.072891675E1,-1.191522217E-1,-1.922003174E-1,-1.015039215E0,1.039924431E0
1.073892475E1,-8.851094055E-1,-9.699829102E-2,-1.364263000E0,1.629122728E0
1.074893375E1,-1.451980591E0,-2.411485291E-1,-2.556533661E0,2.949960103E0
1.075894175E1,-1.984722748E0,-7.699987793E-1,-3.322640533E0,3.946132616E0
1.076894975E1,-2.555485840E0,-1.477577362E0,-3.752696228E0,4.774565082E0
1.077895775E1,-3.355122986E0,-2.278262329E0,-4.636608124E0,6.159988992E0
1.078896575E1,-4.300856323E0,-2.875969391E0,-4.115990753E0,6.611349706E0
1.079897375E1,-5.139412537E0,-3.067121887E0,-2.450254669E0,6.467189949E0
1.080898275E1,-5.710325317E0,-2.980302429E0,-7.587721252E-1,6.485811664E0
1.081899075E1,-6.189927979E0,-2.865491180E0,7.348219299E-1,6.860481860E0
1.082899875E1,-7.203320618E0,-3.145708466E0,1.659299469E0,8.033466524E0
1.083900675E1,-9.160949707E0,-4.172573090E0,2.170037384E0,1.029769042E1
1.084901475E1,-1.144295425E1,-6.097869415E0,2.182461548E-1,1.296814732E1
1.085902275E1,-1.311467789E1,-1.025562332E1,-1.444511124E1,2.204163842E1
1.086903075E1,-1.350416794E1,-1.488339981E1,-2.384316788E1,3.118292475E1
1.087903975E1,-1.394739624E1,-1.453118225E1,-9.486522675E0,2.226385483E1
1.088904775E1,-1.519490204E1,-1.264630188E1,1.289418640E0,1.981102218E1
1.089905575E1,-1.516556305E1,-1.381327515E1,4.315825195E0,2.096251941E1
1.090906375E1,-1.272743317E1,-1.707110046E1,-1.428778839E0,2.134130818E1
1.091907175E1,-1.057206528E1,-1.834959183E1,-1.205188797E1,2.436645416E1
1.092907975E1,-1.192794571E1,-1.639570496E1,-7.969726868E0,2.178558184E1
1.093908875E1,-1.465856735E1,-1.612237335E1,1.157692566E0,2.182074177E1
1.094909675E1,-1.737362137E1,-1.639495651E1,2.928360443E0,2.406683638E1
1.095910475E1,-1.900073776E1,-1.534803360E1,8.515791321E-1,2.444003596E1
1.096911275E1,-1.721779541E1,-1.212209198E1,-3.932023315E0,2.142098037E1
1.097912075E1,-1.421009995E1,-1.001851639E1,-4.813540192E0,1.804072560E1
1.098912875E1,-1.256636810E1,-9.283844147E0,-2.405946808E0,1.580797107E1
1.099913675E1,-1.127186005E1,-8.841364288E0,-8.021818542E-1,1.434810256E1
1.100914575E1,-1.006027954E1,-8.243806915E0,-4.565505981E-1,1.301453093E1
1.101915375E1,-8.818162537E0,-7.267088013E0,-8.214916992E-1,1.145623879E1
1.102916175E1,-7.549400940E0,-6.030509491E0,-1.996248779E0,9.866382745E0
1.103916975E1,-6.467750244E0,-4.822671204E0,-3.536695404E0,8.808982072E0
1.104917775E1,-5.335504761E0,-3.766317902E0,-4.518503723E0,7.941639471E0
1.105918575E1,-4.405788116E0,-2.929408264E0,-4.310137024E0,6.824198332E0
1.106919475E1,-3.671564941E0,-2.111209717E0,-3.571423187E0,5.540095592E0
1.107920275E1,-3.014730835E0,-1.189127197E0,-2.977608032E0,4.400997057E0
1.108921075E1,-2.710862732E0,-3.507206726E-1,-2.643951874E0,3.802928247E0
1.109921875E1,-2.327210541E0,4.608915710E-1,-2.691253510E0,3.587642038E0
1.110922675E1,-2.208507385E0,8.806187439E-1,-2.562970276E0,3.495970663E0
1.111923525E1,-2.258054352E0,1.285526733E0,-2.317630463E0,3.481781067E0
1.112924425E1,-2.211800537E0,1.470242615E0,-2.176473999E0,3.433760916E0
1.113925225E1,-2.009870453E0,1.442101135E0,-2.138752441E0,3.270091272E0
1.114926025E1,-1.891766052E0,1.325942688E0,-1.810185699E0,2.934906314E0
1.115926825E1,-1.902843018E0,1.233584747E0,-1.418899384E0,2.675036138E0
1.116927625E1,-2.036215668E0,1.123563538E0,-1.305734711E0,2.667116871E0
1.117928425E1,-2.232158203E0,5.866300964E-1,-1.525627441E0,2.766623249E0
1.118929225E1,-2.473755798E0,-4.698728943E-1,-1.902992706E0,3.156204925E0
1.119930125E1,-2.861150208E0,-1.603166199E0,-2.252515869E0,3.978712117E0
1.120930925E1,-3.370690613E0,-2.733765106E0,-2.582280121E0,5.050069058E0
1.121931725E1,-4.072880402E0,-3.954476624E0,-2.959046631E0,6.401733913E0
1.122932525E1,-5.094954987E0,-5.342689819E0,-3.966302032E0,8.380599778E0
1.123933325E1,-6.520889740E0,-7.495363312E0,-7.280709686E0,1.231711036E1
1.124934125E1,-7.616910553E0,-9.754166107E0,-9.667945404E0,1.570446596E1
1.125935025E1,-7.511679382E0,-1.058209442E1,-6.648873596E0,1.458127462E1
1.126935825E1,-6.882986755E0,-9.672585754E0,-2.168091431E0,1.206793447E1
1.127936625E1,-6.704707489E0,-8.179889832E0,1.218765564E0,1.064655295E1
1.128937425E1,-6.236481171E0,-6.863976288E0,2.623743896E0,9.638044403E0
1.129938225E1,-5.945037231E0,-5.570815430E0,2.834804993E0,8.626330134E0
1.130939025E1,-6.202501831E0,-5.218298492E0,2.867886200E0,8.598048580E0
1.131939825E1,-6.913972321E0,-5.542973328E0,2.690954132E0,9.261144676E0
1.132940725E1,-9.057514801E0,-7.964487762E0,-5.565426636E-1,1.207399600E1
1.133941525E1,-1.074226135E1,-1.203632034E1,-1.992581406E1,2.563800406E1
1.134942325E1,-1.209260330E1,-1.334534821E1,-2.138408157E1,2.795725877E1
1.135943125E1,-1.218271591E1,-1.338306976E1,-1.750160522E0,1.818208418E1
1.136943925E1,-1.101604202E1,-1.219379288E1,3.415746918E0,1.678419178E1
1.137944725E1,-1.016012192E1,-1.286843994E1,-6.394702148E-1,1.640834379E1
1.138945625E1,-1.029124924E1,-1.477517487E1,-1.132305359E1,2.127033488E1
1.139946425E1,-1.143142822E1,-1.535042862E1,-9.821076965E0,2.151201438E1
1.140947225E1,-1.184456909E1,-1.484358261E1,-3.152594147E0,1.925005485E1
1.141948025E1,-1.149115402E1,-1.381013168E1,-2.521506500E0,1.814178472E1
1.142948825E1,-1.171463928E1,-1.225711121E1,-4.017196198E0,1.742433396E1
1.143949625E1,-1.219094879E1,-1.049287994E1,-4.425547028E0,1.668248268E1
1.144950425E1,-1.215517319E1,-9.385333099E0,-3.549718323E0,1.576176427E1
1.145951325E1,-1.155043076E1,-8.895401917E0,-2.524350586E0,1.479570788E1
1.146952125E1,-1.067475174E1,-8.772956543E0,-1.872605896E0,1.394351979E1
1.147952925E1,-9.771080933E0,-8.797206116E0,-1.555265808E0,1.323947543E1
1.148953725E1,-8.862620087E0,-8.667126617E0,-1.449435883E0,1.248062430E1
1.149954525E1,-7.953859863E0,-8.280780029E0,-1.529669037E0,1.158339726E1
1.150955325E1,-7.043752441E0,-7.785310364E0,-1.704206085E0,1.063625048E1
1.151956225E1,-6.313121796E0,-7.178771667E0,-1.845512238E0,9.736333236E0
1.152957025E1,-5.703739014E0,-6.554569702E0,-1.964963837E0,8.908204398E0
1.153957825E1,-5.180277557E0,-5.859864349E0,-2.053280182E0,8.086361683E0
1.154958625E1,-4.432582397E0,-4.933440857E0,-2.199376373E0,6.987408807E0
1.155959425E1,-3.637735291E0,-3.868854675E0,-2.358345795E0,5.810589422E0
1.156960225E1,-2.877017212E0,-2.598147125E0,-2.542762299E0,4.636079877E0
1.157961125E1,-2.321672058E0,-1.431473236E0,-2.506986694E0,3.704626709E0
1.158961925E1,-1.835632782E0,-5.129832458E-1,-2.811902618E0,3.396983346E0
1.159962725E1,-1.537901917E0,6.376739502E-2,-2.846630402E0,3.236126269E0
1.160963525E1,-1.409319305E0,4.029620361E-1,-2.447410583E0,2.852784231E0
1.161964325E1,-1.264121246E0,4.818479919E-1,-1.883383484E0,2.318903482E0
1.162965125E1,-1.107247467E0,3.025209045E-1,-1.259929962E0,1.704388266E0
1.163965925E1,-1.025218048E0,8.786727905E-2,-8.101153564E-1,1.309610475E0
1.164966825E1,-1.153650970E0,1.025367737E-1,-8.463400269E-1,1.434474047E0
1.165967625E1,-1.714384918E0,-4.457730103E-1,-1.823208618E0,2.542030466E0
1.166968425E1,-2.440375214E0,-1.933678894E0,-4.052073669E0,5.110170865E0
1.167969225E1,-3.275488586E0,-3.675606537E0,-6.302194519E0,7.997284830E0
1.168970025E1,-4.406237183E0,-5.769302673E0,-7.751630402E0,1.062014846E1
1.169970825E1,-5.597909088E0,-8.079448700E0,-9.358688507E0,1.357199794E1
1.170971725E1,-6.222260742E0,-9.950557709E0,-1.087039490E1,1.599673756E1
1.171972525E1,-5.857619019E0,-1.086440735E1,-1.187151306E1,1.712541591E1
1.172973325E1,-5.372178497E0,-1.036070480E1,-9.112899628E0,1.480707417E1
1.173974125E1,-6.641987915E0,-6.630761261E0,-7.855664063E-1,9.418073738E0
1.174974925E1,-7.680827637E0,-3.444187775E0,3.522474976E0,9.124986168E0
1.175975725E1,-7.613168335E0,-2.521506500E0,4.101171570E0,9.007659817E0
1.176976625E1,-7.053033142E0,-2.811303864E0,4.584366760E0,8.869336193E0
1.177977425E1,-6.662046204E0,-2.835254059E0,5.421426086E0,9.045075235E0
1.178978225E1,-6.738237762E0,-3.096161499E0,5.442681885E0,9.198524353E0
1.179979025E1,-7.766599274E0,-3.408561859E0,5.125641174E0,9.910123898E0
1.180979825E1,-1.051458481E1,-4.109404449E0,5.018164673E0,1.235417643E1
1.181980625E1,-1.530806671E1,-6.199058990E0,3.903582458E0,1.697065688E1
1.182981425E1,-1.865495682E1,-1.222717346E1,-2.140084671E1,3.091128313E1
1.183982325E1,-1.640962601E1,-1.847039062E1,-3.766377777E1,4.504432607E1
1.184983125E1,-1.608584930E1,-1.404095169E1,-1.636097717E-1,2.135250899E1
1.185983925E1,-1.438224197E1,-1.390623184E1,5.948330383E0,2.087138717E1
1.186984725E1,-1.251712051E1,-1.492785736E1,1.469643860E0,1.953660883E1
1.187985525E1,-1.196955917E1,-1.621353378E1,-6.012097778E0,2.103079514E1
1.188986325E1,-1.212897766E1,-1.603615265E1,-1.257729538E1,2.371621070E1
1.189987225E1,-1.334669540E1,-1.501452713E1,-5.177882538E0,2.074562052E1
1.190988025E1,-1.459045898E1,-1.413869843E1,6.830296326E-1,2.032857142E1
1.191988825E1,-1.512095581E1,-1.310898972E1,1.314117279E0,2.005531900E1
1.192989625E1,-1.461500793E1,-1.128712830E1,6.068380737E-1,1.847609197E1
1.193990425E1,-1.333127747E1,-9.222621460E0,-2.314187622E-1,1.621213311E1
1.194991225E1,-1.170745422E1,-7.760012970E0,-7.867639160E-1,1.406773909E1
1.195992025E1,-1.012120285E1,-6.819369049E0,-1.264121246E0,1.226949648E1
1.196992925E1,-8.714877319E0,-6.468049622E0,-1.816023560E0,1.100375818E1
1.197993725E1,-7.475754089E0,-6.430178375E0,-2.605032806E0,1.019903373E1
1.198994525E1,-6.307433624E0,-6.202501831E0,-3.251089325E0,9.424666025E0
1.199995325E1,-5.138514404E0,-5.447621613E0,-3.729045410E0,8.365804874E0
1.200996125E1,-4.212689667E0,-4.366869049E0,-3.837719421E0,7.179442170E0
1.201996925E1,-3.547622681E0,-3.250939636E0,-3.795806580E0,6.128815774E0
1.202997825E1,-3.160677338E0,-2.064057770E0,-3.711082764E0,5.293614171E0
1.203998625E1,-2.892584839E0,-9.629475403E-1,-3.798201599E0,4.870385036E0
1.204999425E1,-2.690654755E0,-3.891906738E-1,-4.040697327E0,4.870146535E0
1.206000225E1,-2.274520111E0,2.119592285E-1,-4.184697876E0,4.767605768E0
1.207001025E1,-1.839225311E0,6.396199036E-1,-4.128714294E0,4.564881717E0
1.208001825E1,-1.315464478E0,6.198609924E-1,-4.349654846E0,4.586302620E0
1.209002725E1,-6.821315002E-1,3.158432007E-1,-4.264931030E0,4.330669348E0
1.210003525E1,-1.097218323E-1,-3.447331238E-1,-3.513044586E0,3.531623150E0
1.211004325E1,2.535726929E-1,-1.147813110E0,-2.527344360E0,2.787336284E0
1.212005179E1,3.188369751E-1,-1.851499786E0,-1.527423706E0,2.421307839E0
1.213005979E1,2.444416809E-1,-2.399061127E0,-6.137237549E-1,2.488353446E0
1.214006779E1,4.834945679E-2,-2.785108337E0,1.570234680E-1,2.789950267E0
1.215007579E1,-1.924996948E-1,-3.135529633E0,5.766009521E-1,3.193911531E0
1.216008479E1,-4.415817261E-1,-3.455115051E0,6.881190491E-1,3.550538306E0
1.217009279E1,-7.788304138E-1,-3.657943268E0,2.116598511E-1,3.745921203E0
1.218010079E1,-1.216370544E0,-3.788621521E0,-3.656895447E-1,3.995865260E0
1.219010879E1,-1.697919159E0,-4.084855499E0,-1.048419800E0,4.546224587E0
1.220011679E1,-2.414778442E0,-4.571044464E0,-1.568139038E0,5.402283079E0
1.221012479E1,-3.522924042E0,-4.975503387E0,-1.476828918E0,6.272770633E0
1.222013379E1,-5.121449890E0,-5.799988861E0,-2.390079803E0,8.098246800E0
1.223014179E1,-7.342830505E0,-6.967860260E0,-4.034410400E0,1.089700435E1
1.224014979E1,-9.081614685E0,-7.452103271E0,-4.219575348E0,1.248256322E1
1.225015779E1,-9.835596771E0,-7.436685333E0,-3.946992188E0,1.294689152E1
1.226016579E1,-1.000145187E1,-7.520810394E0,-4.912783813E0,1.344347698E1
1.227017379E1,-1.068283493E1,-7.818241882E0,-5.004692688E0,1.415255515E1
1.228018279E1,-1.225232117E1,-8.207881622E0,-4.337380371E0,1.537210341E1
1.229019079E1,-1.352931564E1,-8.696016541E0,-4.135599976E0,1.660621187E1
1.230019879E1,-1.355476273E1,-9.329349518E0,-6.417454834E0,1.766216526E1
1.231020679E1,-1.286888901E1,-1.012434631E1,-8.115523682E0,1.827491223E1
1.232021479E1,-1.285930893E1,-1.120105728E1,-6.051316223E0,1.809541208E1
1.233022279E1,-1.299133438E1,-1.226220062E1,-3.678600311E0,1.823920046E1
1.234023079E1,-1.318203781E1,-1.314012497E1,-1.897903290E0,1.870911655E1
1.235023979E1,-1.383018997E1,-1.392060196E1,-1.832938385E0,1.970829715E1
1.236024779E1,-1.483325409E1,-1.459315338E1,-3.060535583E0,2.103217608E1
1.237025579E1,-1.559427155E1,-1.407148819E1,-3.759132843E0,2.133820903E1
1.238026379E1,-1.485855148E1,-1.194471085E1,-3.489094391E0,1.938108483E1
1.239027179E1,-1.358814331E1,-1.011581406E1,-2.804418182E0,1.717067541E1
1.240027979E1,-1.268836441E1,-9.340576172E0,-2.244881744E0,1.591478711E1
1.241028879E1,-1.185474792E1,-9.146579590E0,-2.136058044E0,1.512473836E1
1.242029679E1,-1.103804626E1,-9.233698425E0,-2.481539612E0,1.460334519E1
1.243030479E1,-1.031205597E1,-9.359736328E0,-2.692750397E0,1.418428945E1
1.244031279E1,-9.574539642E0,-9.195228424E0,-2.674787750E0,1.354173270E1
1.245032079E1,-8.764424286E0,-8.583899689E0,-2.705773315E0,1.256263015E1
1.246032879E1,-7.890092468E0,-7.639214172E0,-2.692151642E0,1.130746801E1
1.247033779E1,-7.157665558E0,-6.505471802E0,-2.745440826E0,1.005439133E1
1.248034579E1,-6.522835693E0,-5.423671417E0,-3.007096710E0,9.000345979E0
1.249035379E1,-6.135291595E0,-4.443210297E0,-3.266357574E0,8.249424980E0
1.250036179E1,-5.815706177E0,-3.670517120E0,-3.414699097E0,7.678235747E0
1.251036979E1,-5.342540131E0,-2.906954956E0,-3.521576843E0,7.028131019E0
1.252037779E1,-4.611161041E0,-1.938468933E0,-3.752546539E0,6.253165077E0
1.253038579E1,-3.738176422E0,-1.106948090E0,-4.090843048E0,5.651043610E0
1.254039479E1,-2.871179352E0,-3.791615295E-1,-4.085603943E0,5.007953066E0
1.255040279E1,-2.228565674E0,-2.050735474E-2,-3.680097198E0,4.302329707E0
1.256041079E1,-1.695224762E0,9.984237671E-2,-3.246448975E0,3.663766701E0
1.257041879E1,-1.229842529E0,2.333647156E-1,-2.798730011E0,3.065919342E0
1.258042679E1,-8.240364075E-1,1.260379028E-1,-2.326761475E0,2.471586639E0
1.259043479E1,-4.641847229E-1,-1.922003174E-1,-1.847757568E0,1.914841103E0
1.260044379E1,-2.398013306E-1,-7.250921631E-1,-1.395248566E0,1.590591677E0
1.261045179E1,-7.649093628E-2,-1.471589813E0,-1.052012329E0,1.810568248E0
1.262045979E1,-1.288819885E-1,-2.341281281E0,-1.000070343E0,2.549186006E0
1.263046779E1,-4.782554626E-1,-3.172203369E0,-1.029259644E0,3.369121238E0
1.264047579E1,-8.988807678E-1,-3.865411835E0,-1.019978943E0,4.097530028E0
1.265048379E1,-1.426234131E0,-4.361031189E0,-8.267308044E-1,4.662211991E0
1.266049279E1,-2.114203491E0,-4.586163025E0,-6.887178040E-1,5.096771518E0
1.267050079E1,-3.011437683E0,-4.517904968E0,-7.247927856E-1,5.477731903E0
1.268050879E1,-3.924538879E0,-4.320914612E0,-3.950285339E-1,5.850500495E0
1.269051679E1,-4.837789764E0,-4.581223297E0,-6.113287354E-1,6.690705458E0
1.270052479E1,-6.294859772E0,-5.991291046E0,-2.557431793E0,9.058768422E0
1.271053279E1,-8.277187500E0,-7.539820862E0,-4.409530334E0,1.203348201E1
1.272054079E1,-1.004126907E1,-8.726253662E0,-6.478527832E0,1.479682096E1
1.273054979E1,-1.063703018E1,-9.681118011E0,-8.668024750E0,1.679300777E1
1.274055779E1,-1.050081345E1,-9.344168701E0,-6.341412964E0,1.542057360E1
1.275056579E1,-1.120165604E1,-8.601113892E0,-1.349743195E0,1.418725008E1
1.276057379E1,-1.296768356E1,-8.636889496E0,2.032174072E0,1.571261941E1
1.277058179E1,-1.467533249E1,-9.911039886E0,2.507286072E0,1.788520558E1
1.278058979E1,-1.441322754E1,-1.179906372E1,7.424560547E-2,1.862698433E1
1.279059879E1,-1.205398361E1,-1.300675232E1,-5.579347687E0,1.859040740E1
1.280060679E1,-1.164024399E1,-1.343351486E1,-7.994425507E0,1.949013701E1
1.281061479E1,-1.336450836E1,-1.358440109E1,-3.411106567E0,1.935927904E1
1.282062279E1,-1.488504639E1,-1.358754456E1,-2.802172852E-1,2.015600394E1
1.283063079E1,-1.571836349E1,-1.346929047E1,-3.930825806E-1,2.070370137E1
1.284063879E1,-1.553110291E1,-1.274075546E1,-2.061363373E0,2.019384129E1
1.285064679E1,-1.423898987E1,-1.123518631E1,-3.294648743E0,1.843455869E1
1.286065579E1,-1.308264450E1,-9.937534790E0,-3.081941071E0,1.671551811E1
1.287066379E1,-1.223944794E1,-9.292825470E0,-2.449206848E0,1.556146861E1
1.288067179E1,-1.149025589E1,-8.982670441E0,-2.163002014E0,1.474425062E1
1.289067979E1,-1.079240707E1,-8.693920898E0,-2.079176331E0,1.401368207E1
1.290068779E1,-1.000669098E1,-8.339158630E0,-2.087259521E0,1.319212202E1
1.291069579E1,-9.145831146E0,-7.855813751E0,-2.086660767E0,1.223577501E1
1.292070479E1,-8.174501038E0,-7.135212250E0,-2.158361664E0,1.106310292E1
1.293071279E1,-7.213499451E0,-6.305188293E0,-2.208357697E0,9.831928471E0
1.294072079E1,-6.396049347E0,-5.457950134E0,-2.182760925E0,8.686950683E0
1.295072879E1,-5.626499634E0,-4.482877808E0,-2.068548431E0,7.485491579E0
1.296073679E1,-4.972808990E0,-3.739074554E0,-2.077829132E0,6.559487913E0
1.297074479E1,-4.248165894E0,-2.974015503E0,-2.107467499E0,5.597597782E0
1.298075379E1,-3.372337189E0,-2.149530029E0,-2.408641205E0,4.668478330E0
1.299076179E1,-2.577490082E0,-1.366957397E0,-2.864593048E0,4.088755432E0
1.300076979E1,-2.024090881E0,-7.743397522E-1,-2.795436859E0,3.537091062E0
1.301077779E1,-1.480271759E0,-4.469705200E-1,-2.632126465E0,3.052716307E0
1.302078579E1,-9.791139221E-1,-2.553689575E-1,-2.375559998E0,2.582084948E0
1.303079379E1,-5.939648438E-1,-2.655477905E-1,-2.063758392E0,2.163887374E0
1.304080179E1,-3.832031250E-1,-4.352947998E-1,-1.636397095E0,1.736122591E0
1.305081079E1,-2.222877502E-1,-7.696994019E-1,-1.279389496E0,1.509531879E0
1.306081879E1,-9.011260986E-2,-1.168021088E0,-1.104702759E0,1.610205493E0
1.307082679E1,-5.478607178E-2,-1.655108185E0,-9.324110413E-1,1.900467039E0
1.308083479E1,-2.634521484E-1,-2.164947968E0,-6.405180359E-1,2.273031036E0
1.309084279E1,-6.662644958E-1,-2.625390472E0,-3.799099731E-1,2.735126158E0
1.310085079E1,-1.185235291E0,-3.004851379E0,-2.948867798E-1,3.243589481E0
1.311085979E1,-1.768871613E0,-3.254232788E0,-3.733236694E-1,3.722674896E0
1.312086654E1,-2.420466614E0,-3.387156372E0,-7.846682739E-1,4.236412541E0
1.313087454E1,-3.172203369E0,-3.583248596E0,-9.150471497E-1,4.872356309E0
1.314088254E1,-3.910019073E0,-3.990551605E0,-3.909869385E-1,5.600501947E0
1.315089054E1,-4.589456177E0,-4.674928436E0,-1.300794983E-1,6.552479268E0
1.316089854E1,-5.334157562E0,-5.561534729E0,-6.962022400E-1,7.737480404E0
1.317090754E1,-6.014792175E0,-6.194718018E0,-2.004331970E0,8.863949621E0
1.318091554E1,-6.875202942E0,-6.372997284E0,-2.055974579E0,9.597423683E0
1.319092354E1,-8.408763885E0,-7.000791779E0,-2.562670898E0,1.123769005E1
1.320093154E1,-1.105032074E1,-8.330925751E0,-5.139562225E0,1.476241891E1
1.321093954E1,-1.341764786E1,-9.408983917E0,-7.136559448E0,1.787435966E1
1.322094754E1,-1.551239182E1,-1.050620224E1,-7.608527985E0,2.022138184E1
1.323095554E1,-1.752061569E1,-1.207628723E1,-6.610104218E0,2.228232854E1
1.324096454E1,-1.969349716E1,-1.376672195E1,-5.209017792E0,2.458638506E1
1.325097254E1,-2.066422852E1,-1.485974899E1,-3.459605713E0,2.568640403E1
1.326098054E1,-2.014705399E1,-1.588077576E1,-1.623823242E0,2.570485606E1
1.327098854E1,-1.849628677E1,-1.694296692E1,-3.531156921E-1,2.508588135E1
1.328099654E1,-1.694805634E1,-1.751986725E1,-1.055305481E-1,2.437608456E1
1.329100454E1,-1.553963516E1,-1.725881012E1,-3.197351074E-1,2.322604181E1
1.330101354E1,-1.410816193E1,-1.610291382E1,-1.892065430E-1,2.140980769E1
1.331102154E1,-1.273686356E1,-1.417207901E1,1.797761536E-1,1.905538864E1
1.332102954E1,-1.155911270E1,-1.190549240E1,1.627116394E-1,1.659458679E1
1.333103754E1,-1.045560745E1,-9.922865295E0,-1.773811340E-1,1.441577077E1
1.334104554E1,-9.284143524E0,-8.331524506E0,-8.972341919E-1,1.250658430E1
1.335105354E1,-8.089777222E0,-7.060667267E0,-2.260299683E0,1.097298831E1
1.336106254E1,-6.842121735E0,-6.151008911E0,-3.375630341E0,9.800225541E0
1.337107054E1,-5.630541229E0,-5.517526245E0,-3.721560974E0,8.717574576E0
1.338107854E1,-4.531526642E0,-4.906347198E0,-3.652704163E0,7.612438784E0
1.339108654E1,-3.617527313E0,-4.327500916E0,-3.536396027E0,6.657316644E0
1.340109454E1,-2.910697174E0,-3.639681244E0,-3.162922668E0,5.632363394E0
1.341110254E1,-2.462229767E0,-2.909200287E0,-2.674488373E0,4.656061618E0
1.342111054E1,-1.915716248E0,-1.844464417E0,-2.337838440E0,3.540834124E0
1.343111954E1,-1.399739227E0,-8.632548523E-1,-2.120490417E0,2.683460165E0
1.344112754E1,-1.031205597E0,-1.462458801E-1,-1.952988739E0,2.213354435E0
1.345113554E1,-6.715036011E-1,6.348298645E-1,-2.267484741E0,2.448553266E0
1.346114354E1,-4.718188477E-1,1.431473236E0,-3.020269318E0,3.375463731E0
1.347115154E1,-4.140390015E-1,2.023941193E0,-3.670517120E0,4.211942803E0
1.348115954E1,-4.947212219E-1,2.397564240E0,-3.953129425E0,4.649762964E0
1.349116854E1,-7.030879211E-1,2.530936890E0,-3.880829773E0,4.686236645E0
1.350117654E1,-1.125210114E0,2.330803070E0,-3.665427704E0,4.487103855E0
1.351118454E1,-1.669777679E0,1.674118652E0,-3.464844818E0,4.194756295E0
1.352119254E1,-1.942211151E0,4.778063965E-1,-3.409010925E0,3.952447166E0
1.353120054E1,-1.951342163E0,-7.908055115E-1,-3.405717773E0,4.004000892E0
1.354120854E1,-1.864522705E0,-1.886077881E0,-3.300486603E0,4.234022497E0
1.355121754E1,-1.815873871E0,-2.767894135E0,-2.868784332E0,4.380474792E0
1.356122554E1,-1.959724731E0,-3.478167114E0,-2.152074738E0,4.535371338E0
1.357123354E1,-2.337089996E0,-4.036506042E0,-9.466314697E-1,4.759357291E0
1.358124154E1,-3.089724884E0,-4.358935547E0,5.887257385E-1,5.375250409E0
1.359124954E1,-4.068539429E0,-4.703219604E0,1.440454559E0,6.383431449E0
1.360125754E1,-5.303471375E0,-5.514083405E0,5.761518860E-1,7.672279675E0
1.361126554E1,-6.824159088E0,-7.605234833E0,-3.672313385E0,1.085792935E1
1.362127454E1,-7.970026245E0,-9.485923920E0,-6.640341339E0,1.405696283E1
1.363128254E1,-9.996362457E0,-1.090901459E1,-1.173903854E1,1.888753260E1
1.364129054E1,-1.185340073E1,-1.138307877E1,-1.349608475E1,2.126550950E1
1.365129854E1,-1.109358078E1,-1.070379135E1,-6.187383270E0,1.661091194E1
1.366130654E1,-1.166179916E1,-1.089060287E1,-2.758763123E-1,1.595866218E1
1.367131454E1,-1.457953171E1,-1.274030640E1,2.749183044E0,1.955597503E1
1.368132354E1,-1.679881668E1,-1.392928391E1,2.127675476E0,2.192606200E1
1.369133154E1,-1.891646301E1,-1.471335342E1,-4.354145508E0,2.435721505E1
1.370133954E1,-1.949021988E1,-1.535611679E1,-9.377399597E0,2.652573500E1
1.371134754E1,-1.885778503E1,-1.576566513E1,-5.293891296E0,2.514353870E1
1.372135554E1,-1.817086349E1,-1.546479080E1,-6.960525513E-1,2.387099755E1
1.373136354E1,-1.657293640E1,-1.420321426E1,3.626957703E-1,2.182945406E1
1.374137254E1,-1.452549408E1,-1.284778290E1,-6.664141846E-1,1.940359790E1
1.375138054E1,-1.291110123E1,-1.202359680E1,-2.537223816E0,1.782416673E1
1.376138854E1,-1.188797882E1,-1.163380737E1,-3.620221710E0,1.702279412E1
1.377139654E1,-1.136586456E1,-1.137289993E1,-3.142115936E0,1.638287590E1
1.378140454E1,-1.099807938E1,-1.090512268E1,-2.187850342E0,1.564180743E1
1.379141254E1,-1.057625656E1,-1.001058289E1,-1.660347290E0,1.465693439E1
1.380142054E1,-1.000115250E1,-8.643775177E0,-1.775158539E0,1.333750683E1
1.381142954E1,-9.186247101E0,-7.088659058E0,-2.101330261E0,1.179202323E1
1.382143754E1,-8.224946136E0,-5.596861267E0,-2.614163818E0,1.028632332E1
1.383144554E1,-7.132517853E0,-4.245920563E0,-2.805316315E0,8.761874912E0
1.384145354E1,-5.825435944E0,-3.048560486E0,-3.021017761E0,7.235742760E0
1.385146154E1,-4.465813293E0,-2.041903839E0,-3.433260498E0,5.991672330E0
1.386146954E1,-3.281176758E0,-1.131796417E0,-3.863016815E0,5.193263228E0
1.387147854E1,-2.274220734E0,-3.306623840E-1,-4.091741180E0,4.692948268E0
1.388148654E1,-1.484463043E0,2.095642090E-1,-4.072581024E0,4.339753897E0
1.389149454E1,-9.854008484E-1,5.677693176E-1,-3.733087006E0,3.902475550E0
1.390150254E1,-7.728428650E-1,7.536827087E-1,-2.878813477E0,3.074555375E0
1.391151054E1,-5.866300964E-1,9.490264893E-1,-2.014061737E0,2.302440190E0
1.392151854E1,-4.650828552E-1,9.198371887E-1,-1.148262177E0,1.543019294E0
1.393152754E1,-1.965412903E-1,6.105802917E-1,-5.442681885E-1,8.412280502E-1
1.394153554E1,1.392105103E-2,1.354682922E-1,-1.968406677E-1,2.393568514E-1
1.395154354E1,-1.422042847E-2,-4.067042542E-1,-1.437011719E-2,4.072064233E-1
1.396155154E1,-2.769241333E-1,-9.352551270E-1,-1.121168518E-1,9.818142984E-1
1.397155954E1,-7.732919312E-1,-1.447789307E0,-5.209167480E-1,1.722041970E0
1.398156754E1,-1.210682373E0,-1.944456482E0,-1.051712952E0,2.520468796E0
1.399157654E1,-1.559008026E0,-2.367626495E0,-1.589843903E0,3.250194591E0
1.400158454E1,-1.878593445E0,-2.651286621E0,-2.069895630E0,3.852648699E0
1.401159254E1,-2.324815521E0,-2.743345184E0,-2.001637573E0,4.115490613E0
1.402160054E1,-2.850971375E0,-2.654280396E0,-1.291065216E0,4.103668065E0
1.403160854E1,-3.545377350E0,-2.749183044E0,-9.096583557E-1,4.577683507E0
1.404161654E1,-4.632117462E0,-3.405717773E0,-1.786235504E0,6.020470331E0
1.405162454E1,-5.956712952E0,-5.154830475E0,-4.504582672E0,9.074468109E0
1.406163354E1,-6.889573059E0,-6.986571350E0,-6.587650909E0,1.181844070E1
1.407164154E1,-7.816445618E0,-7.694598999E0,-5.164111176E0,1.212318935E1
1.408164954E1,-8.739426270E0,-7.965535583E0,-3.682043152E0,1.238486053E1
1.409165754E1,-9.875413971E0,-8.619675293E0,-3.457510071E0,1.355643682E1
1.410166554E1,-1.189022415E1,-9.593250732E0,-2.878514099E0,1.554650229E1
1.411167354E1,-1.466141144E1,-1.122725281E1,-1.406475220E0,1.851989102E1
1.412168338E1,-1.670526123E1,-1.382569931E1,-9.539662170E-1,2.170543171E1
1.413169137E1,-1.740191254E1,-1.743873596E1,-5.435047760E0,2.522847233E1
1.414169938E1,-1.673040894E1,-1.921494232E1,-9.044491882E0,2.703559552E1
1.415170738E1,-1.644031219E1,-1.802806046E1,-4.269421692E0,2.476939221E1
1.416171538E1,-1.685839279E1,-1.654973465E1,1.637594604E-1,2.362468924E1
1.417172338E1,-1.670571030E1,-1.551867874E1,-3.739224243E-1,2.280460402E1
1.418173137E1,-1.537752228E1,-1.426623322E1,-3.580554199E0,2.127942598E1
1.419174038E1,-1.346749420E1,-1.273162445E1,-4.463118896E0,1.906271469E1
1.420174838E1,-1.234752319E1,-1.142080032E1,-2.697839813E0,1.703450465E1
1.421175637E1,-1.175251053E1,-1.020398071E1,-1.360820160E0,1.562352577E1
1.422176438E1,-1.136361923E1,-9.275760956E0,-9.050180054E-1,1.469662005E1
1.423177238E1,-1.085198318E1,-8.656049652E0,-7.194039917E-1,1.390000995E1
1.424178037E1,-1.014156052E1,-8.136629791E0,-7.583230591E-1,1.302424846E1
1.425178938E1,-9.238488464E0,-7.569758606E0,-8.605604553E-1,1.197461810E1
1.426179738E1,-8.204289093E0,-6.884932709E0,-9.779164124E-1,1.075495135E1
1.427180537E1,-7.108118591E0,-5.970334625E0,-1.129850464E0,9.351299777E0
1.428181338E1,-6.041586456E0,-5.128934326E0,-1.363065491E0,8.041435305E0
1.429182138E1,-5.151687012E0,-4.362977142E0,-1.340163116E0,6.882694661E0
1.430182937E1,-4.070186005E0,-3.473077698E0,-1.317111053E0,5.510305285E0
1.431183838E1,-3.078348541E0,-2.544408875E0,-1.348096619E0,4.215164381E0
1.432184638E1,-2.343975677E0,-1.855242004E0,-1.326092377E0,3.270269999E0
1.433185437E1,-1.716779938E0,-1.319057007E0,-1.099613342E0,2.428249214E0
1.434186238E1,-1.280287628E0,-7.737409973E-1,-8.081694031E-1,1.700279191E0
1.435187038E1,-8.616082764E-1,-3.363505554E-1,-6.390211487E-1,1.124210188E0
1.436187837E1,-4.806504822E-1,3.936813354E-2,-4.845423889E-1,6.836344510E-1
1.437188638E1,-1.980381775E-1,2.665956116E-1,-3.098556519E-1,4.542057517E-1
1.438189538E1,1.312770081E-1,3.094065857E-1,-3.468287659E-1,4.829661282E-1
1.439190337E1,4.454736328E-1,1.112187195E-1,-4.995112610E-1,6.784746576E-1
1.440191138E1,7.066804504E-1,-3.351530457E-1,-7.981402588E-1,1.117476038E0
1.441191938E1,6.740483093E-1,-8.268804932E-1,-1.201102295E0,1.606461701E0
1.442192737E1,2.083666992E-1,-1.201850739E0,-1.726809082E0,2.114173949E0
1.443193538E1,-3.876937866E-1,-1.473086700E0,-2.078876953E0,2.577211727E0
1.444194438E1,-1.102457428E0,-1.662143555E0,-2.232457581E0,2.993660038E0
1.445195237E1,-1.957778778E0,-1.770218811E0,-2.666405182E0,3.751838080E0
1.446196038E1,-2.860850830E0,-1.773362274E0,-3.325634308E0,4.731714782E0
1.447196838E1,-3.781586151E0,-1.884431305E0,-3.609444122E0,5.556938189E0
1.448197637E1,-4.767735443E0,-2.341131592E0,-3.379222870E0,6.295343167E0
1.449198438E1,-5.603148193E0,-3.359613647E0,-3.127596130E0,7.243212760E0
1.450199338E1,-5.962999878E0,-4.888534241E0,-3.503614197E0,8.469382918E0
1.451200137E1,-6.457870789E0,-6.465654602E0,-4.243375854E0,1.007546640E1
1.452200938E1,-7.451654205E0,-8.247100067E0,-5.410349121E0,1.236178335E1
1.453201738E1,-8.852291565E0,-1.025442581E1,-6.575376434E0,1.505828310E1
1.454202537E1,-1.080258591E1,-1.249376907E1,-7.184609528E0,1.801135037E1
1.455203338E1,-1.282143768E1,-1.489342896E1,-6.767726440E0,2.078474468E1
1.456204238E1,-1.388722137E1,-1.702125412E1,-5.990542603E0,2.276981796E1
1.457205037E1,-1.411519730E1,-1.874641663E1,-6.061345367E0,2.423647744E1
1.458205838E1,-1.312605423E1,-1.943288910E1,-7.176975403E0,2.452426256E1
1.459206638E1,-1.049662216E1,-1.586924973E1,-5.932912445E0,1.993016843E1
1.460207438E1,-8.330626373E0,-1.135448822E1,-4.539759521E0,1.479638993E1
1.461208238E1,-7.788004761E0,-9.007518768E0,-4.557123413E0,1.274973672E1
1.462209037E1,-8.478069763E0,-8.147108002E0,-3.223546600E0,1.219197639E1
1.463209937E1,-9.680219879E0,-8.296647034E0,-1.886676636E0,1.288800053E1
1.464210738E1,-1.074091415E1,-9.116342468E0,-1.906435547E0,1.421651973E1
1.465211537E1,-1.161210251E1,-1.046219376E1,-2.411036224E0,1.581491443E1
1.466212338E1,-1.246817230E1,-1.181073944E1,-3.449875946E0,1.751714962E1
1.467213138E1,-1.327634171E1,-1.281634827E1,-3.265908508E0,1.873996239E1
1.468213937E1,-1.369307510E1,-1.310524750E1,-2.233804779E0,1.908501249E1
1.469214838E1,-1.339699081E1,-1.257011032E1,-1.759141846E0,1.845485346E1
1.470215638E1,-1.232297424E1,-1.139206009E1,-1.662442932E0,1.686411705E1
1.471216437E1,-1.101274887E1,-1.008333160E1,-1.637145538E0,1.502113376E1
1.472217238E1,-9.813143463E0,-8.733887787E0,-1.708247681E0,1.324751640E1
1.473218038E1,-8.647218018E0,-7.368576965E0,-1.882934418E0,1.151589111E1
1.474218837E1,-7.562274170E0,-6.005511475E0,-2.127525787E0,9.888403545E0
1.475219638E1,-6.588249664E0,-4.744234314E0,-2.417622528E0,8.470991179E0
1.476220538E1,-5.711672516E0,-3.646716614E0,-2.796933746E0,7.331069729E0
1.477221337E1,-4.935835876E0,-2.703677673E0,-3.214116211E0,6.480963800E0
1.478222138E1,-4.149670715E0,-1.950743408E0,-3.744014282E0,5.919696769E0
1.479222938E1,-3.415297852E0,-1.193019104E0,-3.957470398E0,5.361821141E0
1.480223737E1,-2.774181061E0,-3.779640198E-1,-3.918102264E0,4.815647694E0
1.481224538E1,-2.394720154E0,3.095562744E-1,-3.669768677E0,4.392916098E0
1.482225438E1,-2.102677460E0,6.264472961E-1,-3.469485168E0,4.104998910E0
1.483226237E1,-1.944306793E0,9.132508850E-1,-3.136128387E0,3.801270491E0
1.484227038E1,-2.007176056E0,1.068777466E0,-2.838247833E0,3.636851902E0
1.485227838E1,-2.078427887E0,9.436376953E-1,-2.513273621E0,3.395122807E0
1.486228637E1,-2.046394501E0,4.947212219E-1,-2.062111816E0,2.946995874E0
1.487229438E1,-1.977687378E0,-1.425036621E-1,-1.459764404E0,2.462207703E0
1.488230338E1,-1.819915466E0,-7.015910339E-1,-9.184899902E-1,2.155909587E0
1.489231137E1,-1.561103668E0,-9.045689392E-1,-6.292913818E-1,1.910836799E0
1.490231938E1,-1.281485138E0,-9.401948547E-1,-5.327421570E-1,1.676300907E0
1.491232738E1,-1.033750305E0,-9.883946228E-1,-2.942880249E-1,1.460194872E0
1.492233537E1,-9.457333374E-1,-1.340612183E0,4.908293152E-1,1.712473645E0
1.493234338E1,-1.049617310E0,-1.690734100E0,1.353485413E0,2.406699204E0
1.494235238E1,-1.095571747E0,-1.976340179E0,2.019899597E0,3.030873198E0
1.495236037E1,-1.488504639E0,-2.336640930E0,2.446063385E0,3.695776370E0
1.496236838E1,-2.448009338E0,-2.770887909E0,2.241588593E0,4.323804915E0
1.497237638E1,-3.709286499E0,-3.510200500E0,1.252595215E0,5.258260992E0
1.498238437E1,-5.387596436E0,-4.587061157E0,3.409909058E-1,7.084038411E0
1.499239238E1,-7.954159241E0,-6.140530701E0,-8.668473816E-1,1.008594026E1
1.500240038E1,-1.086365891E1,-7.863896942E0,-4.115841064E0,1.402854617E1
1.501240937E1,-1.390892624E1,-9.901160431E0,-8.431965637E0,1.904177648E1
1.502241738E1,-1.650572617E1,-1.279913406E1,-1.217238739E1,2.417485975E1
1.503242538E1,-1.940295135E1,-1.606758728E1,-1.087847809E1,2.744053877E1
1.504243337E1,-2.267454803E1,-1.867890701E1,-7.457791443E0,3.030932776E1
1.505244138E1,-2.447590210E1,-1.973526031E1,-5.268893280E0,3.187964115E1
1.506244938E1,-2.428415085E1,-1.963646576E1,-2.108665009E0,3.130107407E1
1.507245837E1,-2.240540771E1,-1.910147827E1,1.827100525E0,2.949927225E1
1.508246638E1,-1.982372635E1,-1.796983154E1,4.365072784E0,2.710993974E1
1.509247438E1,-1.724773315E1,-1.532827469E1,4.149820404E0,2.344485686E1
1.510248238E1,-1.506901382E1,-1.199485657E1,2.379900970E0,1.940658884E1
1.511249038E1,-1.368020187E1,-9.268875275E0,5.418731689E-2,1.652461523E1
1.512249850E1,-1.242955261E1,-7.432044983E0,-1.998344421E0,1.461924934E1
1.513250750E1,-1.100346817E1,-7.092550964E0,-3.062481537E0,1.344467865E1
1.514251550E1,-9.632918243E0,-7.372768250E0,-2.331401825E0,1.235258111E1
1.515252350E1,-8.333769836E0,-6.896907806E0,-1.704056396E0,1.095092988E1
1.516253150E1,-7.071444855E0,-5.813909912E0,-1.233884125E0,9.237388745E0
1.517253950E1,-5.500312042E0,-4.660857697E0,-1.664538574E0,7.399169933E0
1.518254750E1,-3.583398285E0,-3.943399658E0,-2.712808685E0,5.979170101E0
1.519255550E1,-2.176024933E0,-2.958597565E0,-3.401077423E0,5.005568069E0
1.520256450E1,-1.156195679E0,-2.602937164E0,-3.601510620E0,4.591617261E0
1.521257250E1,-4.082011414E-1,-2.489473114E0,-3.404669952E0,4.237438146E0
1.522258050E1,8.562194824E-2,-2.283052368E0,-2.842139740E0,3.646562427E0
1.523258850E1,2.776725769E-1,-2.040257263E0,-1.926793213E0,2.819979405E0
1.524259650E1,4.466711426E-1,-1.618284760E0,-1.204694824E0,2.066313212E0
1.525260450E1,5.279521179E-1,-1.180145874E0,-6.662644958E-1,1.454436696E0
1.526261350E1,6.572831726E-1,-7.369175720E-1,-4.186793518E-1,1.072548869E0
1.527262150E1,8.099656677E-1,-4.397854614E-1,-5.803431702E-1,1.089152804E0
1.528262950E1,8.111631775E-1,-2.531236267E-1,-7.084767151E-1,1.106343765E0
1.529263750E1,8.725355530E-1,-1.404080200E-1,-1.231040039E0,1.515418187E0
1.530264550E1,9.800120544E-1,-1.643582153E-1,-2.437381439E0,2.632159860E0
1.531265350E1,6.911128235E-1,-2.320175171E-1,-3.643273773E0,3.715496313E0
1.532266250E1,-1.002914429E-1,-3.710783386E-1,-3.607947235E0,3.628366128E0
1.533267050E1,-9.337582397E-1,-4.782554626E-1,-2.415676575E0,2.633652606E0
1.534267850E1,-1.635648651E0,-5.063969421E-1,-1.230141907E0,2.108324805E0
1.535268650E1,-2.352058868E0,-6.839277649E-1,-2.969824219E-1,2.467414977E0
1.536269450E1,-3.047512665E0,-7.917036438E-1,4.622387695E-1,3.182419328E0
1.537270250E1,-3.763024750E0,-1.110390930E0,4.017645264E-1,3.943949546E0
1.538271150E1,-4.925357666E0,-2.258503418E0,-5.004093933E-1,5.441543475E0
1.539271950E1,-6.392905884E0,-4.354145508E0,-6.673123169E-1,7.763577427E0
1.540272750E1,-7.098239136E0,-6.609804840E0,-2.248474274E0,9.956412778E0
1.541273550E1,-7.894134064E0,-8.544681244E0,-5.984255676E0,1.308205818E1
1.542274350E1,-9.100924530E0,-9.597442017E0,-7.302264862E0,1.510830211E1
1.543275150E1,-1.135972733E1,-1.037866745E1,-2.235900421E0,1.554861388E1
1.544275950E1,-1.621577911E1,-1.323637482E1,6.987469482E-1,2.094376656E1
1.545276850E1,-2.263892212E1,-1.759336441E1,-2.260449371E0,2.876033549E1
1.546277650E1,-2.562491272E1,-1.958901443E1,-1.228106140E1,3.451362206E1
1.547278450E1,-2.311148941E1,-1.768796768E1,-1.079375427E1,3.104046190E1
1.548279250E1,-1.953632401E1,-1.613779129E1,-1.959724731E0,2.541528643E1
1.549280050E1,-1.702843918E1,-1.587778198E1,2.666704559E0,2.343465414E1
1.550280850E1,-1.505898468E1,-1.589514587E1,3.584296417E0,2.218729057E1
1.551281650E1,-1.325119400E1,-1.578482529E1,1.686842194E0,2.067849821E1
1.552282550E1,-1.166060165E1,-1.551074524E1,-1.834584961E0,1.949149945E1
1.553283350E1,-1.094389206E1,-1.477756989E1,-4.361031189E0,1.889878139E1
1.554284150E1,-1.129281647E1,-1.343321548E1,-3.508404236E0,1.789658857E1
1.555284950E1,-1.175580368E1,-1.190085205E1,-1.157842255E0,1.676811851E1
1.556285750E1,-1.137768997E1,-1.048659302E1,3.742218018E-3,1.547321803E1
1.557286550E1,-1.044692551E1,-9.150172119E0,-9.894424438E-2,1.388789733E1
1.558287450E1,-9.151818695E0,-7.734416199E0,-8.192463684E-1,1.201033488E1
1.559288250E1,-7.600594482E0,-6.212830353E0,-2.452500000E0,1.011845115E1
1.560289050E1,-6.079906769E0,-5.024301910E0,-3.720962219E0,8.720919438E0
1.561289850E1,-4.673880615E0,-4.137545929E0,-4.286935272E0,7.572467256E0
1.562290650E1,-3.403472443E0,-3.202590179E0,-4.375401306E0,6.401901680E0
1.563291450E1,-2.524350586E0,-2.477048950E0,-3.841761017E0,5.221804774E0
1.564292350E1,-1.899699554E0,-1.745071106E0,-3.078498230E0,4.016376839E0
1.565293150E1,-1.281784515E0,-1.004111938E0,-2.557132416E0,3.031524125E0
1.566293950E1,-7.122189331E-1,-3.835025024E-1,-2.156565399E0,2.303281203E0
1.567294750E1,-1.908531189E-1,1.550775146E-1,-1.845961304E0,1.862269337E0
1.568295550E1,2.484832764E-1,6.589297485E-1,-1.944157104E0,2.067771554E0
1.569296350E1,3.869453430E-1,1.049168243E0,-2.076931000E0,2.358839350E0
1.570297250E1,4.188290405E-1,1.240919495E0,-2.286345520E0,2.634895595E0
1.571298050E1,4.125421143E-1,1.270857239E0,-2.308349762E0,2.667160989E0
1.572298850E1,2.297721863E-1,1.215622101E0,-2.150577850E0,2.481031527E0
1.573299650E1,-1.621128845E-1,9.857002258E-1,-2.099084930E0,2.324659775E0
1.574300450E1,-6.586303711E-1,2.249821472E-1,-2.082918549E0,2.196123997E0
1.575301250E1,-1.012344818E0,-6.078858948E-1,-2.061962128E0,2.376142906E0
1.576302050E1,-1.346599731E0,-1.413809967E0,-1.898801422E0,2.723533789E0
1.577302950E1,-1.685045929E0,-2.205962677E0,-1.531016235E0,3.170120160E0
1.578303750E1,-2.090702362E0,-2.850222931E0,-9.616003418E-1,3.663261162E0
1.579304550E1,-2.602937164E0,-3.218008118E0,-3.167413330E-1,4.151046037E0
1.580305350E1,-3.237467651E0,-3.459006958E0,-3.818559265E-1,4.753076885E0
1.581306150E1,-4.118086395E0,-3.818559265E0,-1.691183167E0,5.865162481E0
1.582306950E1,-5.348377991E0,-4.406237183E0,-2.600841522E0,7.401651834E0
1.583307850E1,-6.770121460E0,-5.349425812E0,-1.640438690E0,8.783048457E0
1.584308650E1,-8.236621857E0,-6.978039093E0,-1.710792389E0,1.092985726E1
1.585309450E1,-9.540560303E0,-9.490713959E0,-5.576952667E0,1.456702933E1
1.586310250E1,-1.025008484E1,-1.189471481E1,-1.218106934E1,1.987276855E1
1.587311050E1,-1.020068756E1,-1.085018692E1,-8.610843658E0,1.720253503E1
1.588311850E1,-1.118040024E1,-8.934770050E0,8.086184692E-1,1.433475947E1
1.589312750E1,-1.393706772E1,-9.829309845E0,3.544778595E0,1.741903108E1
1.590313550E1,-1.738365051E1,-1.234363129E1,1.294358368E0,2.135958572E1
1.591314350E1,-1.788361084E1,-1.305240738E1,-1.448238373E1,2.645615833E1
1.592315150E1,-1.703786957E1,-1.397269363E1,-2.162792450E1,3.087543174E1
1.593315950E1,-1.902857986E1,-1.568692886E1,-5.524860992E0,2.527233028E1
1.594316750E1,-1.951791229E1,-1.668849609E1,3.365002441E0,2.589938307E1
1.595317550E1,-1.932690948E1,-1.720357498E1,3.967649231E0,2.617698728E1
1.596318450E1,-1.815619400E1,-1.668669983E1,5.433700562E-2,2.465960836E1
1.597319250E1,-1.432865341E1,-1.429227905E1,-5.545218658E0,2.098401771E1
1.598320050E1,-1.221055801E1,-1.223181381E1,-4.901108093E0,1.796485059E1
1.599320850E1,-1.160282181E1,-1.080078964E1,-1.580563202E0,1.593049625E1
1.600321650E1,-1.095916031E1,-9.807455292E0,-8.038284302E-2,1.470699954E1
1.601322450E1,-1.012434631E1,-9.060059509E0,-4.191284180E-3,1.358628294E1
1.602323350E1,-9.184001770E0,-8.302484894E0,-5.319937134E-1,1.239193937E1
1.603324150E1,-8.138126678E0,-7.436385956E0,-1.279090118E0,1.109797339E1
1.604324950E1,-7.090305634E0,-6.620283051E0,-1.995799713E0,9.903726478E0
1.605325750E1,-6.117179260E0,-5.945635986E0,-2.347717896E0,8.847725623E0
1.606326550E1,-4.987029419E0,-5.063670044E0,-2.493514709E0,7.531854509E0
1.607327350E1,-3.855233002E0,-3.919898529E0,-2.531385956E0,6.052796117E0
1.608328250E1,-2.913541260E0,-2.887645111E0,-2.351609802E0,4.728349143E0
1.609329050E1,-2.107467499E0,-1.745969238E0,-2.362237701E0,3.615244777E0
1.610329850E1,-1.410217438E0,-7.996371460E-1,-2.662064209E0,3.116844340E0
1.611330650E1,-8.569679260E-1,4.969665527E-2,-2.893482971E0,3.018129800E0
1.612331413E1,-4.975653076E-1,8.174501038E-1,-2.941682739E0,3.093427427E0
1.613332213E1,-2.993774414E-1,1.369352417E0,-2.732417908E0,3.070970615E0
1.614333113E1,-2.409988403E-1,1.689835968E0,-2.147733765E0,2.743426027E0
1.615333913E1,-2.387535095E-1,1.875300293E0,-1.596130829E0,2.474143902E0
1.616334713E1,-2.043251038E-1,1.908980255E0,-1.336121521E0,2.339054313E0
1.617335512E1,-1.193019104E-1,1.811682587E0,-1.253044281E0,2.206025093E0
1.618336313E1,-3.607498169E-2,1.457369385E0,-1.511706390E0,2.100115030E0
1.619337113E1,-1.942959595E-1,6.990463257E-1,-2.243235168E0,2.357651524E0
1.620337912E1,-6.656657410E-1,-4.129911804E-1,-3.159928894E0,3.255583390E0
1.621338813E1,-1.056652679E0,-1.427132263E0,-3.818858643E0,4.211520238E0
1.622339613E1,-1.395697632E0,-2.309696960E0,-3.576362915E0,4.480295038E0
1.623340412E1,-1.875150604E0,-2.821632385E0,-1.991907806E0,3.930075803E0
1.624341213E1,-2.542911987E0,-2.781366119E0,-4.062551880E-1,3.790440890E0
1.625342013E1,-3.270997925E0,-2.652334442E0,1.026864624E-1,4.212463641E0
1.626342812E1,-4.244723053E0,-3.120860138E0,-7.170089722E-2,5.269021049E0
1.627343713E1,-5.579048309E0,-4.356839905E0,-1.622775421E0,7.262316026E0
1.628344513E1,-7.352709961E0,-6.056106262E0,-6.248456268E0,1.139218910E1
1.629345312E1,-8.682544556E0,-6.489155731E0,-7.666756897E0,1.327685518E1
1.630346113E1,-7.623796234E0,-5.607189789E0,-4.276906128E0,1.038531523E1
1.631346913E1,-7.653584290E0,-6.208639069E0,-1.588197327E0,9.982330505E0
1.632347712E1,-1.061667252E1,-9.090895386E0,-2.390528870E0,1.418001208E1
1.633348513E1,-1.698113754E1,-1.444705719E1,-9.340875549E0,2.417288667E1
1.634349413E1,-2.289369232E1,-1.828702194E1,-1.304207886E1,3.207229553E1
1.635350212E1,-2.308903610E1,-1.895074173E1,-6.229894867E0,3.051304295E1
1.636351013E1,-2.280672318E1,-1.886003036E1,2.562221832E0,2.970542624E1
