"Time (s)","Acceleration x (m/s^2)","Acceleration y (m/s^2)","Acceleration z (m/s^2)","Absolute acceleration (m/s^2)"
1.672333339E-3,5.414241028E-1,9.901759186E0,3.119512939E-1,9.921455974E0
1.175033336E-2,9.006770325E-1,9.603728943E0,2.740800476E-1,9.649764173E0
2.182933339E-2,1.314566345E0,9.593250732E0,2.258802795E-1,9.685533862E0
3.190833330E-2,1.123862915E0,9.780211945E0,1.224453735E-1,9.845334245E0
4.198733333E-2,6.771917725E-1,9.536369019E0,1.062789917E-2,9.560388889E0
5.206533335E-2,1.119072876E0,9.417965240E0,-1.963916016E-1,9.486251263E0
6.214433338E-2,1.543739777E0,9.322164459E0,-1.577719116E-1,9.450437804E0
7.222333329E-2,1.538650360E0,9.252259827E0,-2.769241333E-2,9.379366914E0
8.230233332E-2,1.699865112E0,9.307944031E0,4.086502075E-2,9.461978304E0
9.238033334E-2,1.891616364E0,9.249266052E0,6.945556641E-2,9.440972357E0
1.024593334E-1,1.909579010E0,9.033115540E0,1.359173584E-1,9.233750152E0
1.125383333E-1,1.858834534E0,8.785680084E0,1.736389160E-1,8.981847852E0
1.226173333E-1,1.873504028E0,8.598718872E0,2.347119141E-1,8.803582979E0
1.326953333E-1,2.036215668E0,8.489446106E0,2.893482971E-1,8.735021000E0
1.427743334E-1,2.283501434E0,8.392148438E0,2.918930054E-1,8.702168450E0
1.528533334E-1,2.505489807E0,8.262817383E0,2.432441711E-1,8.637754222E0
1.629323333E-1,2.559976501E0,8.055797882E0,2.562670898E-1,8.456656078E0
1.730103333E-1,2.400258636E0,7.921227722E0,3.698808289E-1,8.285161554E0
1.830893334E-1,2.334395599E0,7.968529358E0,5.601351929E-1,8.322296220E0
1.931683334E-1,2.240540771E0,8.276738434E0,8.455915833E-1,8.616231611E0
2.032473333E-1,2.227218475E0,8.906029816E0,1.256936188E0,9.265946136E0
2.133253333E-1,2.104174347E0,9.755363617E0,1.786983948E0,1.013844074E1
2.234043333E-1,1.961221619E0,1.073702225E1,2.337089996E0,1.116207985E1
2.334828334E-1,1.815724182E0,1.173335037E1,2.974314880E0,1.223989029E1
2.435618333E-1,1.640887756E0,1.252310806E1,3.506907349E0,1.310798029E1
2.536398333E-1,1.343007202E0,1.292202850E1,3.874692535E0,1.355712843E1
2.637188333E-1,9.098080444E-1,1.275677216E1,3.981121216E0,1.339448814E1
2.737978334E-1,5.863307190E-1,1.222537720E1,3.798500977E0,1.281531275E1
2.838768334E-1,3.764671326E-1,1.157258469E1,3.521127777E0,1.210226362E1
2.939548333E-1,3.486250305E-1,1.104972198E1,3.218157806E0,1.151409723E1
3.040338333E-1,4.355941772E-1,1.052311707E1,2.958597565E0,1.093979134E1
3.141128334E-1,5.605842590E-1,1.004321503E1,2.776875458E0,1.043510710E1
3.241918334E-1,6.351292419E-1,9.708660736E0,2.690954132E0,1.009468754E1
3.342698333E-1,5.807922363E-1,9.577383728E0,2.658471680E0,9.956458726E0
3.443488333E-1,5.340893555E-1,9.595496063E0,2.688559113E0,9.979335962E0
3.544278333E-1,5.611830139E-1,9.657317505E0,2.612816620E0,1.002025541E1
3.645068334E-1,7.406597900E-1,9.699080658E0,2.384092255E0,1.001522034E1
3.745848334E-1,1.059646454E0,9.734107819E0,2.166594543E0,1.002845140E1
3.846638333E-1,1.457818451E0,9.766440582E0,1.918859711E0,1.005935479E1
3.947428333E-1,1.955383759E0,9.722132721E0,1.560953979E0,1.003892263E1
4.048208334E-1,2.440375214E0,9.567504272E0,1.261277161E0,9.954063957E0
4.148998334E-1,2.797981567E0,9.477840729E0,1.084644470E0,9.941560207E0
4.249788333E-1,2.909649353E0,9.515562286E0,1.062490540E0,1.000704108E1
4.350578333E-1,3.056493988E0,9.760752411E0,1.151705017E0,1.029275802E1
4.451358333E-1,2.906356201E0,9.955946503E0,1.369502106E0,1.046151582E1
4.552148334E-1,2.534529419E0,9.846973114E0,1.742825775E0,1.031620863E1
4.652938333E-1,2.221081238E0,9.857301636E0,2.065404968E0,1.031336488E1
4.753728333E-1,2.040257263E0,9.779463501E0,2.447260895E0,1.028540918E1
4.854508333E-1,1.803749084E0,9.464668121E0,2.739902344E0,1.001701144E1
4.955298334E-1,1.643432465E0,9.276659088E0,2.665357361E0,9.790883717E0
5.056088334E-1,1.641935577E0,9.003177795E0,2.731968842E0,9.550749531E0
5.156878333E-1,1.216520233E0,8.764424286E0,2.892285461E0,9.309155157E0
5.257658333E-1,3.885919189E-1,8.621321869E0,3.143912201E0,9.184899475E0
5.358448334E-1,-2.543211365E-1,8.679850159E0,3.283721466E0,9.283711795E0
5.459238334E-1,-2.079176331E-1,8.288863220E0,3.133433990E0,8.863796692E0
5.560028333E-1,1.230441284E-1,7.654931488E0,2.957549744E0,8.207326997E0
5.660808333E-1,5.292993164E-1,7.130871277E0,2.302661591E0,7.512105786E0
5.761598333E-1,1.260379028E0,6.959627380E0,1.660646667E0,7.265171431E0
5.862388334E-1,2.155367889E0,6.958729248E0,1.423090668E0,7.422581123E0
5.963178333E-1,3.049608307E0,7.114255829E0,1.418300629E0,7.869200944E0
6.063958333E-1,3.503913574E0,7.550448761E0,1.387464752E0,8.438705189E0
6.164748333E-1,3.448379059E0,8.339008942E0,1.265318756E0,9.112157802E0
6.265538334E-1,2.959046631E0,8.927135925E0,1.031205597E0,9.461136178E0
6.366328333E-1,2.249971161E0,9.222771149E0,9.259744263E-1,9.538307320E0
6.467108333E-1,1.763333130E0,9.408085785E0,8.882528687E-1,9.613033601E0
6.567898333E-1,1.389560394E0,1.007809250E1,7.132667542E-1,1.019841046E1
6.668688334E-1,8.852590942E-1,1.084449875E1,4.522096252E-1,1.088996466E1
6.769478334E-1,6.451583862E-1,1.166464325E1,3.089575195E-1,1.168655579E1
6.870258333E-1,4.513114929E-1,1.232836304E1,1.142124939E-1,1.233714966E1
6.971048333E-1,3.255729675E-1,1.276216095E1,-3.053649902E-1,1.276996467E1
7.071838334E-1,2.444416809E-1,1.300510574E1,-7.945477295E-1,1.303164737E1
7.172628334E-1,9.265731812E-2,1.328053299E1,-1.204694824E0,1.333538269E1
7.273408333E-1,2.628533936E-1,1.336929840E1,-1.275497589E0,1.343257703E1
7.374198333E-1,6.646179199E-1,1.315389633E1,-1.029559021E0,1.321085529E1
7.474988333E-1,8.672964478E-1,1.281694702E1,-7.593708801E-1,1.286868207E1
7.575778334E-1,1.130299530E0,1.246637604E1,-6.890171814E-1,1.253646095E1
7.676558334E-1,1.475631409E0,1.243748611E1,-6.731501770E-1,1.254279395E1
7.777348333E-1,1.596579895E0,1.229034210E1,-6.004014587E-1,1.240814484E1
7.878138333E-1,1.752256165E0,1.191626999E1,-5.590873718E-1,1.205738242E1
7.978928334E-1,1.651365967E0,1.146825165E1,-5.861810303E-1,1.160135396E1
8.079708334E-1,1.486259308E0,1.102083206E1,-6.306385803E-1,1.113846538E1
8.180498333E-1,1.483864288E0,1.054182816E1,-9.545649719E-1,1.068846052E1
8.281288333E-1,1.485810242E0,9.921667786E0,-1.293460236E0,1.011534296E1
8.382078334E-1,1.624871063E0,9.352551270E0,-1.295256500E0,9.580611182E0
8.482858334E-1,1.888772278E0,8.946894836E0,-1.253643036E0,9.229626688E0
8.583648333E-1,2.007176056E0,8.623567200E0,-1.228345642E0,8.938875767E0
8.684438333E-1,2.137105865E0,8.438701630E0,-1.133742371E0,8.778626227E0
8.785228333E-1,2.194436646E0,8.346643066E0,-8.834628296E-1,8.675396777E0
8.886008334E-1,2.042203217E0,8.159681854E0,-5.399272156E-1,8.428672691E0
8.986798334E-1,1.889820099E0,7.919880524E0,-9.280700684E-2,8.142760015E0
9.087588333E-1,1.770667877E0,7.742798767E0,3.483256531E-1,7.950316235E0
9.188378333E-1,1.669627991E0,7.910300446E0,7.015910339E-1,8.114970163E0
9.289158334E-1,1.567240906E0,8.083340607E0,7.759863281E-1,8.270356353E0
9.389948334E-1,1.410666504E0,8.261021118E0,6.348298645E-1,8.404609382E0
9.490738333E-1,1.360071716E0,8.183182983E0,6.394702148E-1,8.320048135E0
9.591528333E-1,1.410816193E0,8.068371735E0,8.843609619E-1,8.238392992E0
9.692308333E-1,1.618584137E0,8.123157806E0,1.026714935E0,8.346235733E0
9.793098334E-1,1.803898773E0,8.076604614E0,8.602610779E-1,8.320194830E0
9.893888333E-1,1.890269165E0,8.150401154E0,5.529501343E-1,8.384981236E0
9.994668333E-1,1.748813324E0,8.243507538E0,2.700384521E-1,8.431292032E0
1.009545833E0,1.461410980E0,8.153394928E0,2.077679443E-1,8.285936183E0
1.019624833E0,1.406325531E0,8.032296753E0,4.469705200E-1,8.166720595E0
1.029703833E0,1.330732727E0,8.155490570E0,7.622149658E-1,8.298424410E0
1.039782833E0,1.061143341E0,8.417595520E0,1.070573730E0,8.551495053E0
1.049860833E0,5.566923523E-1,8.720116425E0,1.428030396E0,8.853790581E0
1.059939833E0,3.022215271E-1,8.983119507E0,1.772015076E0,9.161212330E0
1.070018833E0,5.748046875E-2,9.282197571E0,2.126477966E0,9.522835937E0
1.080097833E0,-2.770738220E-1,9.580676880E0,2.248324585E0,9.844851589E0
1.090175833E0,-4.321513367E-1,9.716743927E0,2.095941467E0,9.949614965E0
1.100254833E0,-4.442761230E-1,9.630074158E0,1.877395935E0,9.821421743E0
1.110333833E0,-3.514691162E-1,9.450747070E0,1.713337097E0,9.611226495E0
1.120411833E0,-3.345542908E-1,9.245823212E0,1.600621490E0,9.389311082E0
1.130490833E0,-3.975732422E-1,9.248966675E0,1.344354401E0,9.354610510E0
1.140569833E0,-5.016069031E-1,9.721084900E0,1.345102844E0,9.826515292E0
1.150648833E0,-6.667135620E-1,1.012434631E1,1.710493011E0,1.028944515E1
1.160726833E0,-5.758525085E-1,1.045949936E1,1.902094574E0,1.064662842E1
1.170805833E0,-3.237767029E-1,1.067430267E1,1.816023560E0,1.083252097E1
1.180884833E0,2.896476746E-1,1.079360458E1,1.524130554E0,1.090452978E1
1.190963833E0,5.704637146E-1,1.038375687E1,9.839039612E-1,1.044585576E1
1.201041833E0,1.024918671E0,1.007854156E1,4.504133606E-1,1.014052911E1
1.211120833E0,1.585802307E0,9.831106110E0,9.056167603E-2,9.958595168E0
1.221199833E0,1.987417145E0,9.793234863E0,-3.652404785E-2,9.992927999E0
1.231279708E0,2.309846649E0,1.014934433E1,-4.939727783E-3,1.040887152E1
1.241357708E0,2.571652222E0,1.092413315E1,1.082249451E-1,1.122327015E1
1.251436708E0,2.690654755E0,1.166269730E1,2.186952209E-1,1.197104669E1
1.261515708E0,2.664608917E0,1.238314911E1,2.992277527E-1,1.267012469E1
1.271594708E0,2.580932922E0,1.313114365E1,2.549198914E-1,1.338480976E1
1.281672708E0,2.830314331E0,1.391641068E1,2.453398132E-1,1.420342765E1
1.291751708E0,3.275787964E0,1.473191483E1,1.441502380E-1,1.509241135E1
1.301830708E0,3.702101440E0,1.497949997E1,-2.761756897E-1,1.543266819E1
1.311909708E0,3.724255371E0,1.456112000E1,-1.265019379E0,1.508298935E1
1.321987708E0,2.977907410E0,1.381552048E1,-2.510579224E0,1.435407770E1
1.332066708E0,3.035238190E0,1.269629791E1,-3.455414429E0,1.350364915E1
1.342145708E0,3.378624115E0,1.143936172E1,-4.243076477E0,1.266008671E1
1.352224708E0,3.295247498E0,1.023900787E1,-5.037773895E0,1.187750412E1
1.362302708E0,2.800226898E0,9.019942932E0,-5.216801605E0,1.078960890E1
1.372381708E0,1.902693329E0,8.174201660E0,-4.538412323E0,9.541226394E0
1.382460708E0,1.487007751E0,7.783813477E0,-3.546275482E0,8.681878488E0
1.392539708E0,1.432670746E0,7.589218140E0,-2.982398071E0,8.279098725E0
1.402617708E0,1.473386078E0,7.381899261E0,-2.438728638E0,7.912692374E0
1.412696708E0,1.724863129E0,7.275171204E0,-1.695823517E0,7.666752002E0
1.422775708E0,1.841770020E0,7.881709900E0,-9.930349731E-1,8.154727844E0
1.432854708E0,1.888323212E0,9.015901337E0,-4.102967834E-1,9.220660763E0
1.442932708E0,1.488504639E0,9.553283844E0,2.880010986E-1,9.672839443E0
1.453011708E0,8.502319336E-1,9.272318115E0,1.070873108E0,9.372595520E0
1.463090708E0,8.816665649E-2,8.347092133E0,2.064806213E0,8.599136301E0
1.473169708E0,-1.971400452E-1,7.574249268E0,2.944377136E0,8.128805133E0
1.483247708E0,3.516188049E-1,7.482639771E0,3.187471619E0,8.140854319E0
1.493326708E0,3.246748352E-1,7.896080017E0,2.959346008E0,8.438674196E0
1.503405708E0,-4.281097412E-1,8.351582794E0,2.363285522E0,8.690070862E0
1.513484708E0,-7.072792053E-1,8.385711823E0,1.961221619E0,8.640995133E0
1.523562708E0,-9.274713135E-1,8.881181488E0,2.017504578E0,9.154556919E0
1.533641708E0,1.170715485E0,8.213120728E0,1.895508270E0,8.509928227E0
1.543720708E0,2.543061676E0,7.650590515E0,1.632505188E0,8.225799117E0
1.553799708E0,3.175197144E0,7.523055725E0,1.281934204E0,8.265688093E0
1.563877708E0,3.929927673E0,7.816445618E0,8.170010376E-1,8.786844958E0
1.573956708E0,4.184997253E0,7.928712158E0,4.956193542E-1,8.979104468E0
1.584035708E0,4.988526306E0,7.897427216E0,2.935395813E-1,9.345636245E0
1.594114708E0,5.700146484E0,8.208480377E0,4.779560852E-1,1.000496187E1
1.604192708E0,5.002896423E0,8.267906799E0,7.306306458E-1,9.691288697E0
1.614271708E0,4.441713409E0,8.001760254E0,9.681866455E-1,9.202954447E0
1.624350708E0,4.024680634E0,8.149952087E0,1.283580780E0,9.179725097E0
1.634429708E0,3.580254822E0,8.059390411E0,1.340761871E0,8.920181657E0
1.644507708E0,3.098855896E0,7.939190369E0,1.205293579E0,8.607344781E0
1.654586708E0,2.574645996E0,8.290659485E0,1.181642761E0,8.761285083E0
1.664665708E0,1.869312744E0,8.794511719E0,1.298699341E0,9.084293395E0
1.674744708E0,1.089584198E0,8.910221100E0,1.479523315E0,9.097704272E0
1.684822708E0,5.203179932E-1,8.946445770E0,1.384470978E0,9.067876412E0
1.694901708E0,-1.850152588E-1,9.113797760E0,1.050964508E0,9.176059429E0
1.704980708E0,-6.511459351E-1,9.370513916E0,7.448510742E-1,9.422596521E0
1.715058708E0,-8.452922058E-1,9.847272491E0,4.860392761E-1,9.895429683E0
1.725137708E0,-9.457333374E-1,1.061876816E1,4.486170959E-1,1.067023458E1
1.735216708E0,-1.012344818E0,1.171089706E1,6.759942627E-1,1.177399339E1
1.745295708E0,-1.092278595E0,1.296319290E1,9.006770325E-1,1.304027077E1
1.755373708E0,-1.415905609E0,1.425006683E1,1.147214355E0,1.436611618E1
1.765452708E0,-1.723366241E0,1.525223282E1,1.148561554E0,1.539219902E1
1.775531708E0,-1.888023834E0,1.613270187E1,7.824229431E-1,1.626163858E1
1.785610708E0,-2.103276215E0,1.677531555E1,1.806742859E-1,1.690762035E1
1.795688708E0,-2.092798004E0,1.685240524E1,-4.028123474E-1,1.698663074E1
1.805767708E0,-1.289268951E0,1.599813171E1,-7.077282715E-1,1.606559405E1
1.815846708E0,-9.662406921E-1,1.470631805E1,-7.500901794E-1,1.475710158E1
1.825925708E0,-7.952961731E-1,1.339998459E1,-7.441026306E-1,1.344417241E1
1.836003708E0,-6.532415771E-1,1.225830872E1,-7.670050049E-1,1.229964039E1
1.846082708E0,-4.760101318E-1,1.141795624E1,-9.032217407E-1,1.146351254E1
1.856161708E0,-5.337899780E-1,1.051877609E1,-1.080453186E0,1.058758524E1
1.866240708E0,-4.989125061E-1,9.710457001E0,-1.132993927E0,9.789053279E0
1.876318708E0,-1.035845947E-1,9.214687958E0,-1.209035797E0,9.294243998E0
1.886397708E0,1.004411316E-1,8.616082764E0,-1.217568054E0,8.702266520E0
1.896476708E0,3.570075989E-1,8.040978699E0,-1.198707275E0,8.137671165E0
1.906555708E0,8.116122437E-1,7.320227509E0,-1.207838287E0,7.463465585E0
1.916633708E0,1.369352417E0,6.570436707E0,-1.082997894E0,6.798429892E0
1.926712708E0,1.650467834E0,6.081703033E0,-7.423063660E-1,6.345248191E0
1.936791708E0,1.628014526E0,5.848338318E0,-3.239263916E-1,6.079343771E0
1.946870708E0,1.702260132E0,5.824837189E0,2.906954956E-1,6.075435927E0
1.956948708E0,2.051932983E0,6.003415833E0,1.086590424E0,6.436777872E0
1.967027708E0,2.327360229E0,6.504274292E0,1.748813324E0,7.126046432E0
1.977106708E0,1.791474609E0,7.124434662E0,2.062710571E0,7.630316208E0
1.987185708E0,9.951306152E-1,7.491621094E0,1.903441772E0,7.793443535E0
1.997263708E0,7.667056274E-1,7.897127838E0,1.624122620E0,8.098780149E0
2.007342708E0,4.881349182E-1,8.060288544E0,1.554068298E0,8.223238740E0
2.017421708E0,2.911445618E-1,8.042774963E0,1.594783630E0,8.204531010E0
2.027500708E0,2.390528870E-1,8.126001892E0,1.679357758E0,8.301162299E0
2.037578708E0,2.360591125E-1,8.301736450E0,1.843566284E0,8.507249182E0
2.047657708E0,2.719844055E-1,8.382867737E0,2.062411194E0,8.637128397E0
2.057736708E0,2.990780640E-1,8.528365173E0,2.036515045E0,8.773246477E0
2.067815708E0,2.441423035E-1,8.771160278E0,1.870959320E0,8.971808450E0
2.077893708E0,1.303788757E-1,9.122330017E0,1.689536591E0,9.278385500E0
2.087972708E0,3.517684937E-2,9.465566254E0,1.460662537E0,9.577667616E0
2.098051708E0,-1.646575928E-3,9.686207428E0,1.364712067E0,9.781873853E0
2.108130708E0,1.631607056E-1,9.741442566E0,1.402882690E0,9.843292362E0
2.118208708E0,2.008822632E-1,9.857451324E0,1.443148956E0,9.964556147E0
2.128287708E0,1.802252197E-1,1.004291565E1,1.604812775E0,1.017192508E1
2.138366708E0,2.680924988E-1,1.025622208E1,1.902843018E0,1.043469101E1
2.148445708E0,1.311273193E-1,1.036265076E1,2.243085480E0,1.060345027E1
2.158523708E0,-1.058299255E-1,1.040665924E1,2.623594208E0,1.073280034E1
2.168602708E0,-1.893562317E-1,1.029394363E1,2.828518066E0,1.067715532E1
2.178681708E0,-2.704875183E-1,9.978848877E0,2.731519775E0,1.034948253E1
2.188759708E0,-2.698887634E-1,9.817035370E0,2.446512451E0,1.012089159E1
2.198838708E0,-1.649569702E-1,9.874366150E0,2.166295166E0,1.011054659E1
2.208917708E0,-1.017883301E-1,9.922116852E0,1.958826599E0,1.011413690E1
2.218996708E0,-5.688171387E-2,9.849368134E0,1.625170441E0,9.982708406E0
2.229074708E0,-2.574645996E-2,1.004605911E1,1.145418091E0,1.011117942E1
2.239152625E0,9.669891357E-2,1.065020279E1,6.697073364E-1,1.067167644E1
2.249231625E0,1.823208618E-1,1.173679321E1,4.369413757E-1,1.174633873E1
2.259310625E0,3.106040955E-1,1.318203781E1,4.875361633E-1,1.319470679E1
2.269388625E0,4.879852295E-1,1.476020599E1,5.562432861E-1,1.477874207E1
2.279467625E0,8.147557068E-1,1.600696335E1,3.812571716E-1,1.603221942E1
2.289546625E0,1.827848969E0,1.575698318E1,1.351689148E-1,1.586322229E1
2.299625625E0,3.489094391E0,1.451741089E1,-3.345542908E-1,1.493455474E1
2.309703625E0,4.521198120E0,1.375983627E1,-1.359173584E0,1.454722240E1
2.319782625E0,4.944368134E0,1.341016342E1,-3.740571442E0,1.477400196E1
2.329861625E0,5.217699738E0,1.297920959E1,-8.441396027E0,1.633834261E1
2.339940625E0,5.104834442E0,1.156779465E1,-1.133098709E1,1.697835316E1
2.350018625E0,4.032314758E0,1.065304688E1,-8.898695068E0,1.445454060E1
2.360097625E0,3.352428589E0,1.031235535E1,-6.908583527E0,1.285737052E1
2.370176625E0,2.310295715E0,9.631720734E0,-5.376369781E0,1.126999834E1
2.380255625E0,1.594035187E0,8.814570007E0,-3.811823273E0,9.734864624E0
2.390333625E0,1.305585022E0,8.295449524E0,-2.654130707E0,8.807011120E0
2.400412625E0,1.080902252E0,8.317004700E0,-1.838476868E0,8.586088402E0
2.410491625E0,6.634204102E-1,8.138276367E0,-1.310375061E0,8.269749190E0
2.420570625E0,3.359014893E-1,7.712262268E0,-9.354048157E-1,7.776040205E0
2.430648625E0,5.089416504E-2,7.317982178E0,-3.827540588E-1,7.328161709E0
2.440727625E0,-3.119512939E-1,6.958280182E0,3.294648743E-1,6.973056991E0
2.450806625E0,-7.384144592E-1,6.584507446E0,1.348994751E0,6.761714358E0
2.460885625E0,-1.251846771E0,5.866151276E0,2.561623077E0,6.522328106E0
2.470963625E0,-4.297563171E-1,5.626050568E0,3.382965088E0,6.578874392E0
2.481042625E0,-1.817221069E-1,6.433770905E0,3.361709290E0,7.261371794E0
2.491121625E0,-4.119433594E-1,7.084168396E0,2.887046356E0,7.660951368E0
2.501200625E0,-3.046165466E-1,7.569608917E0,2.398462372E0,7.946344578E0
2.511278625E0,2.924917603E-1,7.735763397E0,1.679657135E0,7.921416215E0
2.521357625E0,1.074315948E0,7.534731445E0,1.629212036E0,7.783358181E0
2.531436625E0,1.902992706E0,7.950866089E0,2.128423920E0,8.447948934E0
2.541515625E0,3.003055115E0,8.392896881E0,2.704126740E0,9.315114573E0
2.551593625E0,3.970343628E0,8.801098022E0,2.715203705E0,1.002972014E1
2.561672625E0,4.981490936E0,9.249415741E0,2.308649139E0,1.075624490E1
2.571751625E0,5.666466522E0,9.372908936E0,1.454076233E0,1.104873760E1
2.581829625E0,5.892945557E0,9.315578156E0,5.267546082E-1,1.103559124E1
2.591908625E0,5.131479034E0,9.101373596E0,-1.721420288E-1,1.044972302E1
2.601987625E0,4.315825195E0,8.940607910E0,-8.352630615E-2,9.928131424E0
2.612066625E0,3.686683502E0,8.922944641E0,3.881428528E-1,9.662361574E0
2.622144625E0,3.178190918E0,8.950337677E0,7.761360168E-1,9.529524078E0
2.632223625E0,3.033292236E0,8.905281372E0,1.102756805E0,9.472115428E0
2.642302625E0,2.897374878E0,8.826096039E0,1.173709259E0,9.363351211E0
2.652381625E0,2.709066467E0,8.759933624E0,1.115031281E0,9.236816171E0
2.662459625E0,2.436183929E0,8.474776611E0,1.073866882E0,8.883131251E0
2.672538625E0,2.116149445E0,7.904462585E0,9.285191345E-1,8.235336363E0
2.682617625E0,1.700314178E0,7.590415649E0,7.310797119E-1,7.812807151E0
2.692696625E0,1.169218597E0,7.697592773E0,5.923182678E-1,7.808383159E0
2.702774625E0,6.551875305E-1,8.286168823E0,4.664300537E-1,8.325107895E0
2.712853625E0,3.739224243E-1,9.263636169E0,3.739224243E-1,9.278717101E0
2.722932625E0,9.804611206E-2,1.048883835E1,4.625381470E-1,1.049948972E1
2.733011625E0,-1.595681763E-1,1.195174622E1,6.319857788E-1,1.196950733E1
2.743089625E0,-3.844006348E-1,1.335852081E1,8.352630615E-1,1.339012720E1
2.753168625E0,-6.556365967E-1,1.434227509E1,9.545649719E-1,1.438895091E1
2.763247625E0,-6.379733276E-1,1.516406616E1,1.038839722E0,1.521299118E1
2.773326625E0,-1.790277100E-1,1.562495773E1,9.090596008E-1,1.565240379E1
2.783404625E0,5.023553467E-1,1.544039154E1,4.519102478E-1,1.545516984E1
2.793483625E0,8.572673035E-1,1.490121277E1,4.700225830E-2,1.492592571E1
2.803562625E0,9.539662170E-1,1.432057022E1,-2.990780640E-1,1.435542513E1
2.813641625E0,8.927435303E-1,1.380549133E1,-4.194277954E-1,1.384068285E1
2.823719625E0,1.028511200E0,1.346479980E1,-4.296066284E-1,1.351085604E1
2.833798625E0,1.186732178E0,1.303324722E1,-4.808001709E-1,1.309599310E1
2.843877625E0,1.215771790E0,1.242012222E1,-7.402107239E-1,1.250141788E1
2.853956625E0,1.155297546E0,1.172571625E1,-9.187893677E-1,1.181826163E1
2.864034625E0,1.237476654E0,1.119866226E1,-9.406439209E-1,1.130602476E1
2.874113625E0,1.295256500E0,1.063613205E1,-1.010398865E0,1.076224420E1
2.884192625E0,1.248104553E0,9.918823700E0,-9.870474243E-1,1.004565036E1
2.894270625E0,1.271006927E0,8.994795227E0,-8.553213501E-1,9.124328709E0
2.904349625E0,1.719025269E0,8.024812317E0,-1.010997620E0,8.268904207E0
2.914428625E0,1.886676636E0,7.321874084E0,-1.266067200E0,7.666310390E0
2.924507625E0,1.357826385E0,7.079078979E0,-1.085243225E0,7.289362424E0
2.934585625E0,1.052461395E0,6.977440338E0,-6.069877625E-1,7.082427748E0
2.944664625E0,9.397457886E-1,6.789281616E0,-2.755769348E-1,6.859548794E0
2.954743625E0,7.050338745E-1,6.835086365E0,-1.402583313E-1,6.872783336E0
2.964822625E0,5.743556213E-1,7.124135284E0,1.871109009E-2,7.147274868E0
2.974900625E0,5.466632080E-1,7.436835022E0,3.088078308E-1,7.463291371E0
2.984979625E0,8.090675354E-1,7.714357910E0,6.758445740E-1,7.786056391E0
2.995058625E0,1.327289886E0,7.839946747E0,8.837622070E-1,8.000468678E0
3.005137625E0,1.490899658E0,7.797435150E0,8.891510010E-1,7.988326872E0
3.015215625E0,1.465452576E0,8.023315430E0,6.168672180E-1,8.179343916E0
3.025294625E0,1.182989960E0,8.462502136E0,1.923500061E-1,8.546953035E0
3.035373625E0,9.029223633E-1,8.705746307E0,1.661544800E-2,8.752460433E0
3.045452625E0,8.322692871E-1,8.970096588E0,5.164260864E-2,9.008771943E0
3.055530625E0,7.367678833E-1,8.801397400E0,1.719923401E-1,8.833855583E0
3.065609625E0,6.415658569E-1,8.637637939E0,3.073109436E-1,8.666881558E0
3.075688625E0,7.833210754E-1,8.636440430E0,2.477348328E-1,8.675428966E0
3.085767625E0,8.637039185E-1,8.604556732E0,1.782792664E-1,8.649633779E0
3.095845625E0,5.867797852E-1,8.445437622E0,3.905378723E-1,8.474800704E0
3.105924625E0,4.367916870E-1,8.244705048E0,8.339158630E-1,8.298274758E0
3.116003625E0,3.632945251E-1,8.104746094E0,1.312620392E0,8.218385757E0
3.126082625E0,3.625460815E-1,7.980205078E0,1.738784180E0,8.175480608E0
3.136160625E0,3.537144470E-1,7.992629242E0,2.067949677E0,8.263392280E0
3.146239625E0,5.228627014E-1,8.066126404E0,2.262395325E0,8.393700803E0
3.156318625E0,4.249662781E-1,8.051007843E0,2.226619720E0,8.364039634E0
3.166397625E0,1.245410156E-1,8.180189209E0,2.146835632E0,8.458126813E0
3.176475625E0,2.498304749E-1,8.407865753E0,2.073488159E0,8.663369722E0
3.186554625E0,5.316943359E-1,8.620723114E0,1.921554108E0,8.848273055E0
3.196633625E0,8.723858643E-1,8.861123199E0,1.528022461E0,9.034124977E0
3.206712625E0,1.113684082E0,8.750503235E0,8.809181213E-1,8.864965642E0
3.216790625E0,1.295256500E0,8.451574860E0,3.129991150E-1,8.555978930E0
3.226869625E0,1.525328064E0,8.209528198E0,-2.574645996E-2,8.350068372E0
3.236949250E0,1.633253632E0,8.348888397E0,-1.600172424E-1,8.508646215E0
3.247028250E0,1.804946594E0,9.052724762E0,-9.789642334E-2,9.231426842E0
3.257106250E0,2.301314392E0,1.024080414E1,1.655557251E-1,1.049750094E1
3.267185250E0,2.829715576E0,1.171374115E1,2.287243652E-1,1.205285596E1
3.277264250E0,3.527265015E0,1.304986267E1,4.805007935E-2,1.351824038E1
3.287342250E0,4.172722778E0,1.399948792E1,-2.478845215E-1,1.461022669E1
3.297421250E0,5.081932068E0,1.482711685E1,-9.566606140E-1,1.570301332E1
3.307500250E0,6.326444092E0,1.545760574E1,-2.514920197E0,1.689042018E1
3.317579250E0,7.951015778E0,1.565115326E1,-4.200415192E0,1.805050520E1
3.327657250E0,9.181457062E0,1.627340927E1,-4.556075592E0,1.923228608E1
3.337736250E0,7.250322876E0,1.672262512E1,-3.563938751E0,1.857188822E1
3.347815250E0,5.171296234E0,1.649075729E1,-3.003653870E0,1.754164523E1
3.357894250E0,5.842500458E0,1.561522797E1,-3.068319397E0,1.695242578E1
3.367972250E0,5.051694946E0,1.441098221E1,-3.616928558E0,1.569325340E1
3.378051250E0,4.157005463E0,1.291529251E1,-4.439617767E0,1.427570247E1
3.388130250E0,3.306773529E0,1.134835098E1,-4.509672089E0,1.265136212E1
3.398209250E0,2.811154175E0,1.002959335E1,-3.628753967E0,1.103010363E1
3.408287250E0,2.601739655E0,9.037755890E0,-2.872227173E0,9.833604105E0
3.418366250E0,2.396217041E0,8.129145355E0,-2.526595917E0,8.843559648E0
3.428445250E0,1.952839050E0,7.447013855E0,-2.190844116E0,8.004460860E0
3.438524250E0,1.667981415E0,6.978637848E0,-1.542392578E0,7.339109147E0
3.448602250E0,1.342558136E0,6.938820648E0,-8.716374207E-1,7.121056532E0
3.458681250E0,9.607022095E-1,7.312593384E0,-3.231779480E-1,7.382507346E0
3.468760250E0,5.742059326E-1,7.590864716E0,3.222798157E-1,7.619370306E0
3.478839250E0,2.498304749E-1,7.390431519E0,1.390608215E0,7.524273022E0
3.488917250E0,2.245330811E-1,7.183561707E0,2.671494598E0,7.667519631E0
3.498996250E0,1.984872437E-1,7.039561157E0,3.829336853E0,8.016148652E0
3.509075250E0,4.165837097E-1,6.878047028E0,4.412524109E0,8.182386077E0
3.519154250E0,9.858499146E-1,6.812633057E0,4.104464722E0,8.014393294E0
3.529232250E0,1.547481995E0,6.871311035E0,3.402274933E0,7.822089912E0
3.539311250E0,2.004631348E0,6.829847260E0,2.802172852E0,7.649675360E0
3.549390250E0,2.167492676E0,6.818021851E0,2.452350311E0,7.562900800E0
3.559468250E0,2.205064545E0,6.849606171E0,2.341730347E0,7.567239613E0
3.569547250E0,2.248773651E0,7.159461823E0,2.061513062E0,7.782333366E0
3.579626250E0,2.396217041E0,7.520061951E0,1.484463043E0,8.030991120E0
3.589705250E0,3.031495972E0,7.540419617E0,1.299747162E0,8.230263575E0
3.599783250E0,3.462000732E0,7.734865265E0,1.654808807E0,8.634348958E0
3.609862250E0,3.763174438E0,7.470365295E0,2.175575867E0,8.642972281E0
3.619941250E0,3.822600861E0,7.126979370E0,2.630479889E0,8.504442176E0
3.630020250E0,3.744014282E0,7.353308716E0,2.724334717E0,8.689694567E0
3.640098250E0,3.920796661E0,7.512727203E0,2.725532227E0,8.901811187E0
3.650177250E0,4.496200104E0,7.583529968E0,2.762505341E0,9.238894842E0
3.660256250E0,5.113067322E0,7.861052856E0,2.596500549E0,9.730438045E0
3.670335250E0,5.757177887E0,7.939040680E0,2.117197266E0,1.003274581E1
3.680413250E0,6.100264435E0,7.851173401E0,1.759740601E0,1.009707071E1
3.690492250E0,5.339696045E0,7.568710785E0,1.620530090E0,9.403395906E0
3.700571250E0,4.472998352E0,7.344626770E0,1.646725616E0,8.755738798E0
3.710650250E0,3.726051636E0,7.338190155E0,1.585502930E0,8.381307481E0
3.720728250E0,3.018473053E0,7.501500549E0,1.553768921E0,8.233947287E0
3.730807250E0,2.680924988E0,7.842042389E0,1.514400787E0,8.424867795E0
3.740886250E0,2.395767975E0,8.323740692E0,1.374741211E0,8.770078489E0
3.750965250E0,2.162852325E0,8.727301483E0,1.293909302E0,9.083937618E0
3.761043250E0,1.970502319E0,9.083111572E0,1.359323273E0,9.393271793E0
3.771122250E0,1.819017334E0,9.450298004E0,1.456920319E0,9.733425566E0
3.781201250E0,1.938618622E0,9.983489227E0,1.601070557E0,1.029522832E1
3.791280250E0,2.188898163E0,1.047461792E1,1.605112152E0,1.082059521E1
3.801358250E0,2.400108948E0,1.090871521E1,1.518592072E0,1.127238716E1
3.811437250E0,2.565964050E0,1.150432663E1,1.366807709E0,1.186599621E1
3.821516250E0,2.721340942E0,1.244916183E1,1.328786774E0,1.281222078E1
3.831595250E0,2.931503906E0,1.370295456E1,1.493893433E0,1.409242337E1
3.841673250E0,3.177741852E0,1.537093597E1,1.890119476E0,1.580937278E1
3.851752250E0,3.440295868E0,1.709639786E1,2.078577576E0,1.756254367E1
3.861831250E0,3.475622406E0,1.770817566E1,1.047521667E0,1.807641386E1
3.871909250E0,3.231779480E0,1.702275101E1,-8.092172241E-1,1.734569926E1
3.881988250E0,2.617606659E0,1.547691559E1,-2.605481873E0,1.591148379E1
3.892067250E0,1.800455933E0,1.372675507E1,-3.338357849E0,1.424114038E1
3.902146250E0,1.686842194E0,1.210308151E1,-3.091670837E0,1.260509608E1
3.912224250E0,1.591939545E0,1.058164536E1,-2.501897278E0,1.098931208E1
3.922303250E0,1.455273743E0,9.745933228E0,-2.083217926E0,1.007178401E1
3.932382250E0,1.462608490E0,8.977880402E0,-1.931283875E0,9.299000887E0
3.942461250E0,1.690285034E0,8.120762787E0,-1.616638184E0,8.450879880E0
3.952539250E0,2.180665283E0,7.376660156E0,-1.205892334E0,7.786179580E0
3.962618250E0,2.725232849E0,6.769522705E0,-7.650590515E-1,7.337482340E0
3.972697250E0,3.199446716E0,6.323899384E0,-4.963677979E-1,7.104543877E0
3.982776250E0,3.651806030E0,5.882167969E0,-2.698887634E-1,6.928811387E0
3.992854250E0,3.898642731E0,5.604046326E0,-2.653981018E-1,6.831924071E0
4.002933250E0,4.144431610E0,5.724246368E0,-1.657054138E-1,7.069000505E0
4.013012250E0,4.440665588E0,5.770200806E0,2.510279846E-1,7.285447361E0
4.023091250E0,4.679119720E0,5.807622986E0,5.626799011E-1,7.479254961E0
4.033169250E0,5.045557709E0,6.196813660E0,5.279521179E-1,8.008550778E0
4.043248250E0,4.402045898E0,7.149881744E0,2.841091919E-1,8.401162722E0
4.053327250E0,2.687660980E0,8.236921234E0,1.779798889E-1,8.666145037E0
4.063405250E0,2.184557190E0,8.954978027E0,5.108876038E-1,9.231734817E0
4.073484250E0,1.914668427E0,8.996741180E0,1.232087860E0,9.280374321E0
4.083563250E0,2.164947968E0,8.809330902E0,1.808838501E0,9.250038236E0
4.093642250E0,2.096240845E0,8.618328094E0,1.737287292E0,9.038139851E0
4.103721250E0,1.876797180E0,8.423433380E0,1.302291870E0,8.727689367E0
4.113799250E0,1.692230988E0,8.360713806E0,9.351054382E-1,8.581352064E0
4.123878250E0,1.542841644E0,8.451874237E0,8.532257080E-1,8.633801745E0
4.133957250E0,1.437011719E0,8.557105408E0,9.059161377E-1,8.724089619E0
4.144035250E0,1.597328339E0,8.673862610E0,9.816586304E-1,8.874176247E0
4.154114250E0,1.769470367E0,8.711584167E0,1.058748322E0,8.952299822E0
4.164193250E0,1.849404144E0,8.896300049E0,1.120569763E0,9.155333246E0
4.174272250E0,1.574425964E0,9.004375305E0,1.208437042E0,9.220515812E0
4.184350250E0,1.263372803E0,9.017098846E0,1.284329224E0,9.195307716E0
4.194429250E0,9.815089417E-1,9.110504608E0,1.374292145E0,9.265707362E0
4.204508250E0,8.174501038E-1,9.282946014E0,1.487307129E0,9.436810577E0
4.214587250E0,4.114942932E-1,9.475745087E0,1.747316437E0,9.644282619E0
4.224665250E0,2.427951050E-1,9.949060822E0,2.059118042E0,1.016281102E1
4.234744333E0,5.310955811E-1,1.057416092E1,2.274520111E0,1.082905275E1
4.244823333E0,1.211430817E0,1.080198715E1,2.170935516E0,1.108437874E1
4.254902333E0,1.792971497E0,1.041593994E1,1.609752502E0,1.069101748E1
4.264980333E0,2.381248169E0,9.736802216E0,9.886940002E-1,1.007239674E1
4.275059333E0,2.975961456E0,9.417815552E0,4.318519592E-1,9.886257759E0
4.285138333E0,3.345093842E0,9.750274200E0,1.161584473E-1,1.030878230E1
4.295217333E0,3.661835175E0,1.067594925E1,2.986289978E-1,1.129044324E1
4.305295333E0,3.797602844E0,1.169428162E1,7.680528259E-1,1.231941212E1
4.315374333E0,3.761677551E0,1.256307495E1,1.210832062E0,1.316993487E1
4.325453333E0,3.948638763E0,1.323577606E1,1.304686890E0,1.387370621E1
4.335531333E0,4.529730377E0,1.376597351E1,9.330097961E-1,1.452208633E1
4.345610333E0,4.965474243E0,1.457429260E1,3.860472107E-1,1.540178469E1
4.355689333E0,5.770799561E0,1.540491531E1,-4.944218445E-1,1.645776401E1
4.365768333E0,7.415429535E0,1.533665726E1,-1.909878387E0,1.714203274E1
4.375846333E0,8.306227112E0,1.556942322E1,-3.948189697E0,1.808282473E1
4.385925333E0,7.983198853E0,1.503862701E1,-5.412893829E0,1.786592248E1
4.396004333E0,6.466103668E0,1.371448059E1,-5.222489777E0,1.603657925E1
4.406083333E0,6.117628326E0,1.213900681E1,-4.563260651E0,1.433890548E1
4.416161333E0,5.645959167E0,1.011117371E1,-4.533023529E0,1.243627721E1
4.426240333E0,4.393513641E0,8.743617554E0,-4.572391663E0,1.080095253E1
4.436319333E0,3.252885590E0,7.930508423E0,-3.973786469E0,9.448026641E0
4.446398333E0,2.551444244E0,7.047045593E0,-3.007845154E0,8.075757042E0
4.456476333E0,2.130369873E0,6.319558411E0,-2.104024658E0,6.993011802E0
4.466555333E0,1.880389709E0,5.912704468E0,-1.607656860E0,6.409407162E0
4.476634333E0,1.532513123E0,6.188730469E0,-1.400337982E0,6.527628034E0
4.486713333E0,8.294252014E-1,7.066654816E0,-1.134191437E0,7.204994564E0
4.496791333E0,4.939727783E-1,6.906338196E0,-5.722599792E-1,6.947589356E0
4.506870333E0,2.785707092E-1,6.378236389E0,-2.529739380E-2,6.384366925E0
4.516949333E0,5.179229736E-2,6.073170776E0,6.911128235E-1,6.112587231E0
4.527028333E0,-4.805007935E-2,5.784570923E0,1.821562042E0,6.064788359E0
4.537106333E0,-1.207987976E-1,5.480702820E0,3.099304962E0,6.297490532E0
4.547185333E0,-3.064128113E-1,5.273383942E0,4.138444061E0,6.710378995E0
4.557264333E0,4.939727783E-3,5.413043518E0,4.551734619E0,7.072436113E0
4.567343333E0,1.524729309E0,6.106401672E0,3.920197906E0,7.414910146E0
4.577421333E0,2.495760040E0,6.324498138E0,3.240760803E0,7.531973544E0
4.587500333E0,3.280128937E0,6.540798340E0,2.950813751E0,7.889777599E0
4.597579333E0,3.766467590E0,7.038064270E0,2.752476196E0,8.443740403E0
4.607657333E0,3.871100006E0,7.631729736E0,2.487527161E0,8.911593875E0
4.617736333E0,4.256099396E0,8.194259949E0,2.152673492E0,9.481259481E0
4.627815333E0,4.927004242E0,8.721763000E0,1.931283875E0,1.020168506E1
4.637894333E0,5.454207916E0,8.945697327E0,1.638343048E0,1.060462411E1
4.647972333E0,5.816005554E0,8.794661407E0,1.324894867E0,1.062672745E1
4.658051333E0,5.791157227E0,8.551566925E0,8.211923218E-1,1.036055769E1
4.668130333E0,5.604794769E0,8.373886414E0,3.134481812E-1,1.008136637E1
4.678209333E0,5.744454346E0,8.463849335E0,4.849914551E-2,1.022926456E1
4.688287333E0,6.031557312E0,8.762478333E0,1.197509766E-3,1.063770236E1
4.698366333E0,6.069578247E0,8.908724213E0,-5.538482666E-3,1.077985055E1
4.708445333E0,5.974675598E0,8.916657715E0,-4.580474854E-2,1.073338863E1
4.718524333E0,6.192772064E0,8.855135651E0,-9.400451660E-2,1.080614131E1
4.728602333E0,5.684578857E0,8.657247162E0,-2.688409424E-1,1.036024327E1
4.738681333E0,4.414170685E0,8.374934235E0,-2.324665833E-1,9.469871540E0
4.748760333E0,3.368145905E0,8.404273224E0,-5.403762817E-2,9.054233006E0
4.758839333E0,2.694546661E0,8.839867401E0,-8.831634521E-2,9.241841654E0
4.768917333E0,1.957629089E0,9.332343292E0,-2.627037048E-1,9.539075228E0
4.778996333E0,1.500330048E0,9.801018677E0,-3.990701294E-1,9.923215926E0
4.789075333E0,1.195114746E0,1.046863037E1,-4.275109863E-1,1.054529690E1
4.799154333E0,1.195563812E0,1.155851395E1,-1.619631958E-1,1.162131015E1
4.809232333E0,1.520538025E0,1.292457321E1,3.050656128E-1,1.301728442E1
4.819311333E0,1.680405579E0,1.463416809E1,8.906478882E-1,1.475723186E1
4.829390333E0,1.600471802E0,1.637699387E1,1.537752228E0,1.652670929E1
4.839468333E0,1.217418365E0,1.796593964E1,1.942510529E0,1.811161069E1
4.849547333E0,3.802093506E-1,1.898367325E1,1.701062622E0,1.906352599E1
4.859626333E0,-7.177574158E-1,1.906495422E1,6.825805664E-1,1.909066713E1
4.869705333E0,-1.930086365E0,1.842757965E1,-6.715036011E-1,1.854054590E1
4.879783333E0,-2.944526825E0,1.729997452E1,-1.616937561E0,1.762310539E1
4.889862333E0,-2.941383362E0,1.559681625E1,-2.091001740E0,1.600889445E1
4.899941333E0,-8.240364075E-1,1.404544235E1,-2.257305908E0,1.424952339E1
4.910020333E0,3.558100891E-1,1.287158340E1,-2.309696960E0,1.308200903E1
4.920098333E0,8.948391724E-1,1.156779465E1,-2.384691010E0,1.184488756E1
4.930177333E0,1.318308563E0,1.044602737E1,-2.530487823E0,1.082870232E1
4.940256333E0,1.616488495E0,9.234895935E0,-2.537373505E0,9.712600182E0
4.950335333E0,1.992057495E0,7.805668030E0,-2.265389099E0,8.368317288E0
4.960413333E0,2.660267944E0,6.397546234E0,-1.883383484E0,7.180024840E0
4.970492333E0,2.992427216E0,5.760920105E0,-1.665586395E0,6.702014558E0
4.980571333E0,3.174748077E0,5.476661224E0,-1.358574829E0,6.474455119E0
4.990650333E0,3.584595795E0,5.340444489E0,-1.306932220E0,6.563363937E0
5.000728333E0,3.406615906E0,5.063819733E0,-1.147214355E0,6.209943880E0
5.010807333E0,3.079546051E0,4.568649445E0,-8.406518555E-1,5.573406245E0
5.020886333E0,3.025807800E0,4.274511108E0,-4.468208313E-1,5.256101875E0
5.030965333E0,3.224744110E0,4.150568848E0,7.259902954E-2,5.256564178E0
5.041043333E0,3.539090424E0,4.554129639E0,4.508624268E-1,5.785199627E0
5.051122333E0,1.410067749E0,5.459596710E0,2.945874023E-1,5.646438615E0
5.061201333E0,-9.175918579E-2,6.074967041E0,-2.706372070E-1,6.081684700E0
5.071279333E0,-3.570075989E-1,6.542295227E0,-7.764353943E-1,6.597873384E0
5.081358333E0,-4.697232056E-1,7.225773926E0,-7.696994019E-1,7.281818858E0
5.091437333E0,-5.152285767E-1,7.858358459E0,-3.472778320E-1,7.882883994E0
5.101516333E0,-4.923262024E-1,8.311316528E0,1.543290710E-1,8.327315593E0
5.111594333E0,-2.092648315E-1,8.646619263E0,5.025050354E-1,8.663736362E0
5.121673333E0,6.539900208E-1,8.866511993E0,5.899232483E-1,8.910148557E0
5.131752333E0,1.188079376E0,9.009464722E0,6.414161682E-1,9.110071453E0
5.141831333E0,1.465452576E0,9.051078186E0,5.246589661E-1,9.183944393E0
5.151909333E0,1.722617798E0,8.986712036E0,3.043171692E-1,9.155381709E0
5.161988333E0,1.706152039E0,8.574319611E0,1.561253357E-1,8.743814195E0
5.172067333E0,1.364412689E0,8.074958038E0,9.220825195E-2,8.189937220E0
5.182146333E0,1.473236389E0,7.818840637E0,1.871109009E-1,7.958624558E0
5.192224333E0,1.376986542E0,7.730973358E0,4.209246826E-1,7.863918781E0
5.202303333E0,1.200353851E0,7.885003052E0,7.915539551E-1,8.015028394E0
5.212382333E0,8.529263306E-1,8.211324463E0,1.204395447E0,8.342895250E0
5.222461333E0,5.839356995E-1,8.537496185E0,1.542991333E0,8.695438130E0
5.232539333E0,3.174897766E-1,8.636889496E0,1.667682037E0,8.802148789E0
5.242617125E0,4.468208313E-1,8.644373932E0,1.545835419E0,8.792863963E0
5.252696125E0,8.050259399E-1,8.651858368E0,1.036893768E0,8.750878166E0
5.262774125E0,1.250349884E0,8.719068604E0,5.516029358E-1,8.825519698E0
5.272853125E0,1.742526398E0,9.171577606E0,3.141966248E-1,9.340928945E0
5.282932125E0,2.337089996E0,1.005519012E1,3.363505554E-1,1.032869642E1
5.293011125E0,2.868934021E0,1.128144012E1,5.839356995E-1,1.165515571E1
5.303089125E0,3.503614197E0,1.271785309E1,9.475296021E-1,1.322561575E1
5.313168125E0,4.162094879E0,1.410337189E1,1.129700775E0,1.474802889E1
5.323247125E0,4.851561127E0,1.496348328E1,1.006506958E0,1.576250403E1
5.333326125E0,5.504203949E0,1.531689835E1,5.218148804E-1,1.628422325E1
5.343404125E0,6.037395172E0,1.531121017E1,-3.884422302E-1,1.646311589E1
5.353483125E0,6.915020142E0,1.504970398E1,-1.556313629E0,1.663529998E1
5.363562125E0,7.796387329E0,1.482442245E1,-2.818638611E0,1.698504872E1
5.373641125E0,8.669671326E0,1.507365417E1,-4.189787292E0,1.788665896E1
5.383719125E0,8.449628906E0,1.561028824E1,-5.241350555E0,1.850808156E1
5.393798125E0,5.909561005E0,1.537767197E1,-4.736151123E0,1.714137783E1
5.403877125E0,4.994064789E0,1.407133850E1,-3.410807190E0,1.531590206E1
5.413956125E0,4.077670441E0,1.202928497E1,-3.061882782E0,1.306545902E1
5.424034125E0,3.159330139E0,1.020907013E1,-3.512146454E0,1.124907341E1
5.434113125E0,2.561174011E0,8.900191956E0,-3.733685760E0,9.985661647E0
5.444192125E0,1.837728424E0,7.650291138E0,-3.392096100E0,8.567993709E0
5.454271125E0,1.212328949E0,6.538702698E0,-2.740650787E0,7.192742258E0
5.464349125E0,1.092727661E0,5.858367462E0,-2.030527496E0,6.295837115E0
5.474428125E0,9.343569946E-1,5.761818237E0,-1.285975800E0,5.977065011E0
5.484507125E0,3.647914124E-1,5.984105988E0,-8.414002991E-1,6.053969913E0
5.494585125E0,-8.322692871E-2,6.376739502E0,-5.706134033E-1,6.402759800E0
5.504664125E0,3.128494263E-2,7.047943726E0,-5.972579956E-2,7.048266218E0
5.514743125E0,2.749781799E-1,7.627089386E0,6.586303711E-1,7.660411181E0
5.524822125E0,7.619155884E-2,7.644303589E0,1.360371094E0,7.764778942E0
5.534900125E0,-1.350192261E-1,7.412286072E0,2.132315826E0,7.714077118E0
5.544979125E0,3.049159241E-1,7.247179413E0,2.721490631E0,7.747328212E0
5.555058125E0,1.547481995E0,7.518714752E0,2.570754089E0,8.095341169E0
5.565137125E0,2.272574158E0,7.711962891E0,1.928739166E0,8.267950151E0
5.575215125E0,2.565514984E0,7.862699432E0,1.534459076E0,8.411805642E0
5.585294125E0,2.612966309E0,8.141719208E0,1.472338257E0,8.676575622E0
5.595373125E0,2.568209381E0,8.534053345E0,1.626367950E0,9.059295703E0
5.605452125E0,2.544259186E0,8.522078247E0,1.797312469E0,9.073555233E0
5.615530125E0,2.697989502E0,8.204738159E0,1.763632507E0,8.815173012E0
5.625609125E0,3.045117645E0,7.704328766E0,1.388063507E0,8.399770444E0
5.635688125E0,3.584146729E0,7.176226959E0,5.255570984E-1,8.038690901E0
5.645767125E0,4.257446594E0,6.657256165E0,-9.041198730E-2,7.902726458E0
5.655845125E0,4.377946014E0,6.698869629E0,7.514373779E-2,8.002931475E0
5.665924125E0,4.775968323E0,6.913223877E0,6.809339905E-1,8.430077633E0
5.676003125E0,5.148094482E0,6.999743958E0,1.162632294E0,8.766470562E0
5.686081125E0,5.669609985E0,7.144193573E0,1.329086151E0,9.216856796E0
5.696160125E0,6.040089569E0,7.376510468E0,1.312770081E0,9.623874166E0
5.706239125E0,6.098468170E0,7.407196655E0,1.303040314E0,9.682757374E0
5.716318125E0,6.096073151E0,7.298971710E0,1.243015137E0,9.590734201E0
5.726396125E0,6.104755096E0,7.430548096E0,1.001417542E0,9.668708129E0
5.736475125E0,5.327421570E0,8.134234772E0,7.643106079E-1,9.753530982E0
5.746554125E0,4.536765747E0,8.819210358E0,6.658154297E-1,9.940021376E0
5.756633125E0,4.385131073E0,9.733359375E0,4.471202087E-1,1.068492282E1
5.766711125E0,4.432582397E0,1.058044785E1,2.302212524E-1,1.147373806E1
5.776790125E0,4.694986725E0,1.092667786E1,7.304809570E-2,1.189287708E1
5.786869125E0,4.899461517E0,1.056532928E1,-1.785786438E-1,1.164743733E1
5.796948125E0,4.937931519E0,9.833201752E0,-6.080355835E-1,1.102019653E1
5.807026125E0,4.518354034E0,9.256301422E0,-1.035396881E0,1.035213436E1
5.817105125E0,3.891757050E0,8.902437286E0,-1.266815643E0,9.798162299E0
5.827184125E0,3.283272400E0,8.755592651E0,-1.198557587E0,9.427450377E0
5.837263125E0,2.673290863E0,8.633296967E0,-1.047521667E0,9.098219727E0
5.847341125E0,2.407294006E0,8.815168762E0,-1.051263885E0,9.198229204E0
5.857420125E0,2.181413727E0,9.326505432E0,-1.144819336E0,9.646392110E0
5.867499125E0,2.156116333E0,1.005339386E1,-1.235530701E0,1.035596938E1
5.877577125E0,2.455194397E0,1.112711105E1,-1.220262451E0,1.145991363E1
5.887656125E0,2.958148499E0,1.248194366E1,-1.236279144E0,1.288712328E1
5.897735125E0,3.606001282E0,1.405008270E1,-1.353784790E0,1.456848662E1
5.907814125E0,4.128265228E0,1.540147247E1,-1.420695648E0,1.600831985E1
5.917892125E0,4.267475739E0,1.619392456E1,-1.663341064E0,1.682917839E1
5.927971125E0,4.016447754E0,1.608495117E1,-2.153122559E0,1.671805741E1
5.938050125E0,3.737577667E0,1.481708771E1,-2.916834412E0,1.555710442E1
5.948129125E0,3.272195435E0,1.320149734E1,-3.606450348E0,1.407100847E1
5.958207125E0,2.498454437E0,1.186807022E1,-4.352947998E0,1.288570998E1
5.968286125E0,2.113455048E0,1.052191956E1,-4.769082642E0,1.174400411E1
5.978365125E0,2.182012482E0,9.518556061E0,-4.579277344E0,1.078581795E1
5.988444125E0,2.518662415E0,8.871900787E0,-3.849095764E0,9.993488987E0
5.998522125E0,2.519710236E0,8.461753693E0,-3.049159241E0,9.340641696E0
6.008601125E0,2.356549530E0,8.095315704E0,-2.373015289E0,8.758919089E0
6.018680125E0,2.080972595E0,7.743098145E0,-1.909878387E0,8.242187287E0
6.028759125E0,1.703607330E0,7.462731171E0,-1.517843628E0,7.803748057E0
6.038837125E0,1.663341064E0,7.393425293E0,-1.030906219E0,7.648019920E0
6.048916125E0,1.876348114E0,7.519612885E0,-4.924758911E-1,7.765809210E0
6.058995125E0,1.855541382E0,7.855214996E0,3.547622681E-2,8.071474154E0
6.069074125E0,1.879790955E0,7.913892975E0,4.059558105E-1,8.144207523E0
6.079152125E0,1.930385742E0,7.874225464E0,5.655239868E-1,8.127092540E0
6.089231125E0,1.936223602E0,7.959548035E0,5.171745300E-1,8.207973943E0
6.099310125E0,2.280956726E0,7.710316315E0,2.615061951E-1,8.044882022E0
6.109388125E0,2.851420441E0,7.705526276E0,-1.764830017E-1,8.218082499E0
6.119467125E0,3.334765320E0,7.721542969E0,-5.830375671E-1,8.431062707E0
6.129546125E0,3.515589294E0,7.808961182E0,-9.698332214E-1,8.618574087E0
6.139625125E0,3.601061554E0,7.562423859E0,-1.237326965E0,8.466928425E0
6.149703125E0,4.218527527E0,7.808362427E0,-1.165775757E0,8.951286578E0
6.159782125E0,4.572241974E0,8.455017700E0,-1.018781433E0,9.665952441E0
6.169861125E0,4.045786743E0,8.645571442E0,-8.376580811E-1,9.582064860E0
6.179940125E0,3.415597229E0,8.747210083E0,-5.899232483E-1,9.408931826E0
6.190018125E0,3.276686096E0,8.866811371E0,-4.023632813E-1,9.461443435E0
6.200097125E0,3.175197144E0,9.005872192E0,-2.477348328E-1,9.552433375E0
6.210176125E0,2.694396973E0,9.116342468E0,-1.097218323E-1,9.506814079E0
6.220255125E0,2.295326843E0,9.212891693E0,1.387614441E-1,9.495533340E0
6.230333125E0,1.969454498E0,9.151070251E0,3.998185730E-1,9.369135107E0
6.240413333E0,1.576671295E0,8.859626312E0,5.435197449E-1,9.015225149E0
6.250492333E0,1.192120972E0,8.522677002E0,8.237370300E-1,8.644982266E0
6.260571333E0,7.595205688E-1,8.374185791E0,1.113983459E0,8.482029138E0
6.270649333E0,4.824467468E-1,8.426576843E0,1.448687439E0,8.563798658E0
6.280728333E0,5.307962036E-1,8.841813354E0,1.869462433E0,9.052861304E0
6.290807333E0,6.255491638E-1,9.441616058E0,2.198927307E0,9.714458649E0
6.300885333E0,6.430627441E-1,9.724976807E0,2.393223267E0,1.003574717E1
6.310964333E0,9.204359436E-1,9.336983643E0,2.271526337E0,9.653305018E0
6.321043333E0,1.522034912E0,8.485404510E0,1.754651184E0,8.797583802E0
6.331122333E0,2.114353180E0,7.834707642E0,1.218316498E0,8.205938599E0
6.341200333E0,2.764002228E0,7.821385345E0,1.072819061E0,8.364491483E0
6.351279333E0,3.316203918E0,8.328381042E0,1.256337433E0,9.051934764E0
6.361358333E0,3.824397125E0,9.218430176E0,1.551822968E0,1.010017934E1
6.371437333E0,4.253704376E0,1.038181091E1,1.672472076E0,1.134341931E1
6.381515333E0,4.611909485E0,1.158006912E1,1.529070282E0,1.255809563E1
6.391594333E0,4.978347473E0,1.258882141E1,1.255439301E0,1.359553220E1
6.401673333E0,5.131479034E0,1.336346054E1,9.541159058E-1,1.434658468E1
6.411752333E0,5.471721497E0,1.412911835E1,5.334906006E-1,1.516101361E1
6.421830333E0,6.676566010E0,1.477831833E1,-2.592608643E-1,1.621858325E1
6.431909333E0,8.429869995E0,1.560983917E1,-1.873803406E0,1.783930846E1
6.441988333E0,9.325457611E0,1.560085785E1,-3.542982330E0,1.851765776E1
6.452066333E0,9.184001770E0,1.340492432E1,-4.682263184E0,1.691039541E1
6.462145333E0,9.178463287E0,1.194411209E1,-5.935157776E0,1.619049412E1
6.472224333E0,8.988807678E0,1.097652420E1,-6.353537750E0,1.554510177E1
6.482303333E0,6.134692841E0,1.017524048E1,-5.833818512E0,1.323644263E1
6.492381333E0,3.369343414E0,9.264234924E0,-4.995711365E0,1.105150016E1
6.502460333E0,2.815495148E0,7.954608307E0,-3.945195923E0,9.314900811E0
6.512539333E0,2.610122223E0,7.248676300E0,-2.911146240E0,8.235946731E0
6.522618333E0,2.275867310E0,6.766079865E0,-2.062411194E0,7.430541614E0
6.532696333E0,1.760788422E0,5.997128906E0,-1.419049072E0,6.409339377E0
6.542775333E0,1.641187134E0,5.847889252E0,-1.180594940E0,6.187496127E0
6.552854333E0,1.886976013E0,6.397396545E0,-9.009764099E-1,6.730462059E0
6.562933333E0,1.532213745E0,6.857988739E0,-1.951940918E-1,7.029778747E0
6.573011333E0,1.230291595E0,6.785838776E0,7.259902954E-1,6.934571884E0
6.583090333E0,7.858657837E-1,6.621480560E0,1.451980591E0,6.824209659E0
6.593169333E0,1.691482544E-1,6.747668152E0,1.894460449E0,7.010607464E0
6.603248333E0,-5.126838684E-1,7.150181122E0,2.347867584E0,7.543236508E0
6.613326333E0,-1.102307739E0,7.660170593E0,2.749183044E0,8.212874240E0
6.623405333E0,-6.439608765E-1,8.047115936E0,3.093467102E0,8.645247204E0
6.633484333E0,1.352437592E0,7.981402588E0,3.283272400E0,8.735659813E0
6.643563333E0,2.193538513E0,8.202043762E0,3.236270142E0,9.086175076E0
6.653641333E0,2.686762848E0,8.313861237E0,3.130889282E0,9.281241887E0
6.663720333E0,3.407214661E0,8.368497620E0,2.939138031E0,9.501547059E0
6.673799333E0,4.160148926E0,8.368347931E0,2.746638336E0,9.740642090E0
6.683877333E0,4.755910034E0,8.434660034E0,2.454745331E0,9.989391612E0
6.693956333E0,5.115312653E0,8.355175323E0,2.099983063E0,1.001924683E1
6.704035333E0,5.483397217E0,7.975864105E0,1.562899933E0,9.804320959E0
6.714114333E0,5.963149567E0,7.369924164E0,9.318122864E-1,9.525923004E0
6.724192333E0,6.422095184E0,6.827152863E0,4.421804810E-1,9.383434677E0
6.734271333E0,6.637946320E0,6.451733551E0,1.329235840E-1,9.257692252E0
6.744350333E0,6.960525513E0,6.232888641E0,-2.484832764E-2,9.343363081E0
6.754429333E0,7.461533661E0,6.265221405E0,-1.797761536E-1,9.744732079E0
6.764507333E0,8.068222046E0,6.440506897E0,-4.098477173E-1,1.033171386E1
6.774586333E0,8.704848175E0,6.716532898E0,-7.153623962E-1,1.101807330E1
6.784665333E0,9.322763214E0,7.194788361E0,-9.418414307E-1,1.181380374E1
6.794744333E0,9.985435181E0,7.795638885E0,-1.173709259E0,1.272236200E1
6.804822333E0,1.052850586E1,8.573720856E0,-1.425186310E0,1.365244597E1
6.814901333E0,9.860295410E0,9.192683716E0,-1.658700714E0,1.358242053E1
6.824980333E0,6.844816132E0,9.229656830E0,-1.751058655E0,1.162343665E1
6.835058333E0,5.669011230E0,9.170380096E0,-1.724414063E0,1.091820330E1
6.845137333E0,4.896467743E0,9.546098785E0,-1.657802582E0,1.085595264E1
6.855216333E0,4.197720795E0,1.007689499E1,-1.626068573E0,1.103670111E1
6.865295333E0,3.577410736E0,1.047521667E1,-1.683848419E0,1.119657883E1
6.875373333E0,3.195854187E0,1.091709778E1,-1.784888306E0,1.151444024E1
6.885452333E0,3.014431458E0,1.134939880E1,-1.797911224E0,1.187973632E1
6.895531333E0,2.997666321E0,1.202404587E1,-1.849553833E0,1.252934682E1
6.905610333E0,2.755469971E0,1.266905457E1,-1.905537415E0,1.310452713E1
6.915688333E0,2.466271362E0,1.315389633E1,-2.016157379E0,1.353411887E1
6.925767333E0,2.129771118E0,1.353186035E1,-2.242786102E0,1.388082343E1
6.935846333E0,2.056423645E0,1.366403549E1,-2.499053192E0,1.404208001E1
6.945925333E0,3.552861786E0,1.322993820E1,-2.632126465E0,1.394927172E1
6.956003333E0,4.293521576E0,1.279703842E1,-2.709365845E0,1.376732302E1
6.966082333E0,4.656666412E0,1.236324051E1,-2.824626160E0,1.350972875E1
6.976161333E0,4.987179108E0,1.205458237E1,-2.997666321E0,1.338547402E1
6.986240333E0,4.840184784E0,1.195294373E1,-3.180136871E0,1.328207525E1
6.996318333E0,4.065395966E0,1.184501816E1,-3.226390686E0,1.293218838E1
7.006397333E0,3.026556244E0,1.168125870E1,-2.809357910E0,1.238968681E1
7.016476333E0,2.503244476E0,1.103175934E1,-1.909579010E0,1.147224647E1
7.026554333E0,2.396217041E0,1.003243744E1,-1.406924286E0,1.041014376E1
7.036633333E0,2.136656799E0,9.154662781E0,-1.299298096E0,9.490064723E0
7.046712333E0,1.808090057E0,8.524772644E0,-1.062640228E0,8.778960220E0
7.056791333E0,1.450783081E0,7.951165466E0,-9.246272278E-1,8.135154536E0
7.066869333E0,1.095272369E0,7.534432068E0,-9.160949707E-1,7.668540809E0
7.076948333E0,1.389560394E0,7.323071594E0,-8.506809998E-1,7.502127287E0
7.087027333E0,2.109563141E0,6.923552399E0,-5.414241028E-1,7.258028281E0
7.097106333E0,1.924996948E0,6.678511963E0,-5.815406799E-1,6.974691739E0
7.107184333E0,2.375260620E0,6.659651184E0,-9.496252441E-1,7.134045487E0
7.117263333E0,2.377206573E0,6.500981140E0,-1.202150116E0,7.025598322E0
7.127342333E0,2.492317200E0,6.314468994E0,-1.460961914E0,6.943959491E0
7.137421333E0,2.562970276E0,6.192322998E0,-1.555565186E0,6.879931961E0
7.147499333E0,2.766097870E0,6.309529266E0,-1.548679504E0,7.061151832E0
7.157578333E0,3.034639435E0,6.523135071E0,-1.410067749E0,7.331344945E0
7.167657333E0,3.034789124E0,6.971452789E0,-1.087039490E0,7.680674051E0
7.177735333E0,2.736459503E0,7.438032532E0,-6.304888916E-1,7.950475130E0
7.187814333E0,2.906505890E0,7.598798218E0,-1.067280579E-1,8.136393656E0
7.197893333E0,3.091221771E0,7.753127289E0,1.884580994E-1,8.348781423E0
7.207972333E0,2.869083710E0,8.288114777E0,2.242337036E-1,8.773526579E0
7.218050333E0,2.808609467E0,8.492439880E0,1.088237000E-1,8.945482930E0
7.228129333E0,2.840792542E0,8.539292450E0,4.520599365E-2,8.999536732E0
7.238207708E0,2.616259460E0,8.809480591E0,-6.436614990E-2,9.189989382E0
7.248286708E0,2.308798828E0,9.112151184E0,-1.413061523E-1,9.401160495E0
7.258364708E0,2.068847809E0,9.333241425E0,1.571731567E-2,9.559799882E0
7.268443708E0,1.963766327E0,9.355395355E0,3.014730835E-1,9.564030869E0
7.278522708E0,1.790277100E0,9.191336517E0,6.390211487E-1,9.385846104E0
7.288601708E0,1.484463043E0,8.928632812E0,9.017248535E-1,9.096000337E0
7.298679708E0,1.164428558E0,8.624465332E0,1.030157776E0,8.763476546E0
7.308758708E0,8.187973022E-1,8.345445557E0,1.064735870E0,8.452842897E0
7.318837708E0,5.545967102E-1,8.250692596E0,1.074315948E0,8.338804506E0
7.328916708E0,3.986210632E-1,8.405021667E0,1.114881592E0,8.488006182E0
7.338994708E0,4.171824646E-1,8.754544830E0,1.184935913E0,8.844216727E0
7.349073708E0,1.252894592E0,9.061107330E0,1.364861755E0,9.248581433E0
7.359152708E0,1.724863129E0,9.484576721E0,1.459764404E0,9.750039000E0
7.369230708E0,1.924248505E0,9.889185333E0,1.379980316E0,1.016872974E1
7.379309708E0,2.254461823E0,1.004276596E1,1.100361786E0,1.035135461E1
7.389388708E0,2.424508209E0,9.939331055E0,6.273454285E-1,1.024998069E1
7.399467708E0,2.440524902E0,9.714049530E0,1.320254517E-1,1.001680342E1
7.409545708E0,2.520608368E0,9.593400421E0,-2.266287231E-1,9.921600615E0
7.419624708E0,2.691552887E0,9.743987274E0,-3.963757324E-1,1.011666243E1
7.429703708E0,3.010539551E0,1.020921982E1,-4.337979126E-1,1.065268503E1
7.439782708E0,3.474275208E0,1.089090225E1,-4.173321533E-1,1.143925287E1
7.449860708E0,3.896247711E0,1.166628983E1,-5.165757751E-1,1.231056112E1
7.459939708E0,4.478237457E0,1.222462875E1,-8.509803772E-1,1.304685121E1
7.470018708E0,5.124743042E0,1.294313461E1,-1.337618408E0,1.398488283E1
7.480097708E0,5.740263062E0,1.362466736E1,-1.873653717E0,1.490277689E1
7.490175708E0,6.449787598E0,1.396101791E1,-2.439028015E0,1.557108342E1
7.500254708E0,7.453899536E0,1.414513504E1,-3.193159790E0,1.630465372E1
7.510333708E0,8.536148987E0,1.457863358E1,-4.182003479E0,1.740377975E1
7.520411708E0,8.890013123E0,1.449989731E1,-4.645290070E0,1.763116772E1
7.530490708E0,7.435637512E0,1.230845444E1,-4.026776276E0,1.493324087E1
7.540569708E0,5.073699188E0,1.101933517E1,-4.114793243E0,1.281014030E1
7.550648708E0,4.793182526E0,1.022329056E1,-4.606520691E0,1.219468333E1
7.560726708E0,3.493435364E0,9.215137024E0,-4.382586365E0,1.078563416E1
7.570805708E0,2.120340729E0,8.178692322E0,-3.815116425E0,9.270488996E0
7.580884708E0,1.869163055E0,7.511529694E0,-3.258274384E0,8.398404659E0
7.590963708E0,1.945055237E0,7.332651672E0,-2.722239075E0,8.059876302E0
7.601041708E0,1.901645508E0,7.263345795E0,-1.891915741E0,7.742854315E0
7.611120708E0,1.775457916E0,7.128326569E0,-1.176852722E0,7.439776395E0
7.621199708E0,1.804048462E0,7.629783783E0,-5.559439087E-1,7.859851465E0
7.631278708E0,1.586101685E0,7.726632385E0,1.703457642E-1,7.889587077E0
7.641356708E0,1.169218597E0,7.071295166E0,7.297325134E-1,7.204359583E0
7.651435708E0,9.624984741E-1,6.703659668E0,1.176403656E0,6.873818576E0
7.661514708E0,1.126856689E0,6.689289551E0,1.733395386E0,7.001504142E0
7.671592708E0,1.699266357E0,6.783294067E0,2.226619720E0,7.338829603E0
7.681671708E0,1.974394226E0,6.974895630E0,2.374961243E0,7.628095602E0
7.691750708E0,2.396666107E0,7.223977661E0,2.160157928E0,7.911772491E0
7.701829708E0,2.840493164E0,7.613168335E0,1.909279633E0,8.347100229E0
7.711907708E0,3.146007843E0,7.735913086E0,1.928140411E0,8.570848387E0
7.721986708E0,3.441792755E0,7.692802734E0,1.997895355E0,8.661220303E0
7.732065708E0,3.826043701E0,7.783364410E0,1.875449982E0,8.873369404E0
7.742144708E0,4.128714294E0,7.997718658E0,1.629661102E0,9.146889131E0
7.752222708E0,4.423750763E0,8.187374268E0,1.306782532E0,9.397358607E0
7.762301708E0,4.552033997E0,8.131839752E0,1.014590149E0,9.374285276E0
7.772380708E0,4.497696991E0,8.004304962E0,7.661068726E-1,9.213310800E0
7.782459708E0,4.175566864E0,7.887996826E0,6.613247681E-1,8.949480600E0
7.792537708E0,4.077071686E0,7.692802734E0,5.167254639E-1,8.721739084E0
7.802616708E0,4.059109039E0,7.383845215E0,2.891986084E-1,8.430965080E0
7.812695708E0,4.092190247E0,7.064708862E0,-3.637435913E-2,8.164401718E0
7.822774708E0,4.149820404E0,6.764732666E0,-3.227288818E-1,7.942718134E0
7.832852708E0,4.232598267E0,6.649771729E0,-5.297483826E-1,7.900315530E0
7.842931708E0,4.268373871E0,6.820267181E0,-6.059399414E-1,8.068594868E0
7.853010708E0,4.483177185E0,7.390281830E0,-3.993695068E-1,8.653013302E0
7.863088708E0,4.699477386E0,8.226592712E0,-3.038681030E-2,9.474325238E0
7.873167708E0,4.769980774E0,9.224118347E0,3.137475586E-1,1.038920177E1
7.883246708E0,4.834646301E0,1.018781433E1,5.721102905E-1,1.129126547E1
7.893325708E0,4.771178284E0,1.102008362E1,6.114784241E-1,1.202415448E1
7.903403708E0,4.446353760E0,1.175071426E1,4.662803650E-1,1.257246057E1
7.913482708E0,3.826343079E0,1.205787552E1,2.107617188E-1,1.265218099E1
7.923561708E0,3.136128387E0,1.206640778E1,-9.565109253E-2,1.246766406E1
7.933640708E0,2.433938599E0,1.194411209E1,-6.566844177E-1,1.220725625E1
7.943718708E0,1.891466675E0,1.168530029E1,-1.262474670E0,1.190452567E1
7.953797708E0,1.391656036E0,1.148621429E1,-1.671573944E0,1.169033724E1
7.963876708E0,1.021775208E0,1.175625275E1,-1.785187683E0,1.193483968E1
7.973955708E0,1.012045441E0,1.291678940E1,-1.665736084E0,1.306301501E1
7.984033708E0,1.736987915E0,1.482053055E1,-1.207987976E0,1.497078781E1
7.994112708E0,3.244503021E0,1.687860077E1,-9.346563721E-1,1.721300515E1
8.004191708E0,4.725074158E0,1.790322006E1,-1.284778290E0,1.856077233E1
8.014269708E0,4.655917969E0,1.682591034E1,-2.553988953E0,1.764402705E1
8.024348708E0,3.496129761E0,1.472667572E1,-3.787274323E0,1.560260709E1
8.034427708E0,2.807112579E0,1.241727814E1,-3.912114716E0,1.331815749E1
8.044506708E0,2.750829620E0,1.061337936E1,-3.507955170E0,1.151158697E1
8.054584708E0,2.979853363E0,8.968150635E0,-3.103047180E0,9.946665455E0
8.064663708E0,3.370840302E0,7.203919373E0,-2.904709625E0,8.467370115E0
8.074742708E0,3.871848450E0,6.037245483E0,-2.892734528E0,7.733528075E0
8.084821708E0,4.289629669E0,5.242847443E0,-2.709665222E0,7.295934321E0
8.094899708E0,4.511318665E0,4.685855713E0,-2.356998596E0,6.918430620E0
8.104978708E0,4.445305939E0,4.559817810E0,-1.968556366E0,6.665425531E0
8.115057708E0,4.221221924E0,4.691992950E0,-1.501826935E0,6.487603295E0
8.125136708E0,4.154610443E0,5.222190399E0,-1.170116730E0,6.775044919E0
8.135214708E0,3.924538879E0,6.254443817E0,-9.692344666E-1,7.447112751E0
8.145293708E0,3.590134277E0,7.497608643E0,-8.198451233E-1,8.353163803E0
8.155372708E0,3.454216919E0,8.764274597E0,-8.458909607E-1,9.458311438E0
8.165450708E0,3.408711548E0,9.525591431E0,-9.125024414E-1,1.015819212E1
8.175529708E0,3.449576569E0,9.568851471E0,-1.067579956E0,1.022752286E1
8.185608708E0,3.385360107E0,9.326056366E0,-1.237476654E0,9.998366810E0
8.195687708E0,3.219804382E0,9.231752472E0,-1.407373352E0,9.877909380E0
8.205765708E0,3.007845154E0,9.500294037E0,-1.416204987E0,1.006520521E1
8.215844708E0,2.849923553E0,9.841734009E0,-1.231040039E0,1.031975059E1
8.225923708E0,2.800675964E0,9.989177399E0,-1.060394897E0,1.042841734E1
8.236002708E0,2.801574097E0,1.002061203E1,-9.825567627E-1,1.045116743E1
8.246081000E0,2.839445343E0,1.002225861E1,-1.055305481E0,1.047004236E1
8.256160000E0,2.831212463E0,9.990823975E0,-1.174308014E0,1.045042234E1
8.266239000E0,2.793341217E0,9.887389069E0,-1.307381287E0,1.035724208E1
8.276318000E0,2.612666931E0,9.572294312E0,-1.254990234E0,1.000149226E1
8.286396000E0,2.387535095E0,9.069938965E0,-1.191222839E0,9.454265096E0
8.296475000E0,2.153871002E0,8.677604828E0,-1.278790741E0,9.031904096E0
8.306554000E0,1.864073639E0,8.514593811E0,-1.485361176E0,8.841910208E0
8.316632000E0,1.648521881E0,8.230334930E0,-1.547781372E0,8.535318660E0
8.326711000E0,1.466949463E0,7.804919586E0,-1.404978333E0,8.064903880E0
8.336790000E0,1.423988800E0,7.503895569E0,-1.152004395E0,7.724202673E0
8.346869000E0,1.507215729E0,7.411986694E0,-1.008901978E0,7.630670299E0
8.356947000E0,1.634301453E0,7.371720428E0,-8.021818542E-1,7.593200843E0
8.367026000E0,1.849853210E0,7.510930939E0,-4.367916870E-1,7.747698203E0
8.377105000E0,2.095043335E0,8.009993134E0,-1.381626892E-1,8.280596929E0
8.387184000E0,2.377056885E0,8.679850159E0,3.966751099E-2,8.999542862E0
8.397262000E0,2.687660980E0,9.397008820E0,3.026705933E-1,9.778492000E0
8.407341000E0,2.770139465E0,9.911189575E0,4.460723877E-1,1.030069571E1
8.417420000E0,2.681972809E0,1.012913635E1,4.418811035E-1,1.048749924E1
8.427499000E0,2.627037048E0,1.024709106E1,3.842509460E-1,1.058545454E1
8.437577000E0,2.616109772E0,1.046803162E1,3.749702454E-1,1.079649568E1
8.447656000E0,2.685864716E0,1.085856949E1,5.643264771E-1,1.120003862E1
8.457735000E0,2.904709625E0,1.116872452E1,8.366102600E-1,1.157055150E1
8.467814000E0,3.200344849E0,1.111199249E1,8.987310791E-1,1.159854740E1
8.477892000E0,3.439248047E0,1.072250244E1,7.047344971E-1,1.128260327E1
8.487971000E0,3.513942719E0,1.001821701E1,3.245251465E-1,1.062157154E1
8.498050000E0,3.562591553E0,9.220825195E0,-2.903961182E-2,9.885166622E0
8.508128000E0,3.642974396E0,8.697962494E0,-8.562194824E-2,9.430437164E0
8.518207000E0,3.665278015E0,8.356073456E0,2.859054565E-2,9.124639387E0
8.528286000E0,3.620221710E0,8.320597229E0,1.683998108E-1,9.075610281E0
8.538365000E0,3.575614471E0,8.462053070E0,2.374063110E-1,9.189544209E0
8.548443000E0,3.612737274E0,8.688831482E0,1.854643250E-1,9.411804298E0
8.558522000E0,3.765270081E0,8.967851257E0,6.885681152E-3,9.726235776E0
8.568601000E0,3.950884094E0,9.214987335E0,-2.905458069E-1,1.003044832E1
8.578680000E0,3.981121216E0,9.357640686E0,-5.412744141E-1,1.018369988E1
8.588758000E0,3.848347321E0,9.458979950E0,-6.996450806E-1,1.023579904E1
8.598837000E0,3.693868561E0,9.566007385E0,-8.345146179E-1,1.028832236E1
8.608916000E0,3.471730499E0,9.650581512E0,-9.083111572E-1,1.029619664E1
8.618994000E0,3.229534149E0,9.640851746E0,-8.922944641E-1,1.020647356E1
8.629073000E0,3.064876556E0,9.543554077E0,-6.912625122E-1,1.004742438E1
8.639152000E0,3.074905701E0,9.478289795E0,-3.180885315E-1,9.969664128E0
8.649231000E0,3.149899750E0,9.459578705E0,-1.407073975E-2,9.970240503E0
8.659309000E0,3.207230530E0,9.389225006E0,1.841171265E-1,9.923596778E0
8.669388000E0,3.277584229E0,9.298663330E0,3.228785706E-1,9.864681884E0
8.679467000E0,3.283571777E0,9.223669281E0,4.055067444E-1,9.799099670E0
8.689546000E0,3.258873138E0,9.167835388E0,4.822970581E-1,9.741769361E0
8.699624000E0,3.281326447E0,9.146579590E0,4.966671753E-1,9.730041096E0
8.709703000E0,3.242856445E0,9.096882935E0,4.671784973E-1,9.668901323E0
8.719782000E0,3.207230530E0,9.080417175E0,3.790118408E-1,9.637632164E0
8.729861000E0,3.144810333E0,9.152118073E0,2.481838989E-1,9.680531622E0
8.739939000E0,3.057841187E0,9.183552704E0,7.933502197E-2,9.679582999E0
8.750018000E0,2.987786865E0,9.236991577E0,-5.313949585E-2,9.708331863E0
8.760097000E0,2.896476746E0,9.297166443E0,-4.236190796E-2,9.738001640E0
8.770175000E0,2.805316315E0,9.376800842E0,4.565505981E-2,9.787557307E0
8.780254000E0,2.777324524E0,9.446855164E0,1.538800049E-1,9.847856774E0
8.790333000E0,2.757415924E0,9.494605865E0,1.995350647E-1,9.888917906E0
8.800412000E0,2.781366119E0,9.488768005E0,2.146536255E-1,9.890338312E0
8.810490000E0,2.792592773E0,9.467811584E0,2.383044434E-1,9.873946506E0
8.820569000E0,2.794239349E0,9.411678314E0,2.691403198E-1,9.821400040E0
8.830648000E0,2.807861023E0,9.352102203E0,2.998265076E-1,9.769124581E0
8.840727000E0,2.791844330E0,9.316775665E0,3.124003601E-1,9.731099503E0
8.850805000E0,2.815046082E0,9.265881500E0,3.040177917E-1,9.688832295E0
8.860884000E0,2.848875732E0,9.264833679E0,2.975811768E-1,9.697514661E0
8.870963000E0,2.898572388E0,9.257648621E0,3.655398560E-1,9.707697938E0
8.881042000E0,2.862198029E0,9.267528076E0,4.098477173E-1,9.708101223E0
8.891120000E0,2.875220947E0,9.304201813E0,4.935237122E-1,9.750827274E0
8.901199000E0,2.869532776E0,9.331295471E0,5.209167480E-1,9.776433285E0
8.911278000E0,2.953657837E0,9.355994110E0,3.806584167E-1,9.818534577E0
8.921357000E0,2.982248383E0,9.341474304E0,3.830534363E-1,9.813443714E0
8.931435000E0,2.892734528E0,9.363628235E0,4.299060059E-1,9.809702643E0
8.941514000E0,3.007994843E0,9.350455627E0,4.507127380E-1,9.832710480E0
8.951593000E0,3.023712158E0,9.546847229E0,5.038522339E-1,1.002691350E1
8.961671000E0,2.969973907E0,9.571845245E0,4.189787292E-1,1.003077811E1
8.971750000E0,2.880310364E0,9.545949097E0,2.745291138E-1,9.974803165E0
8.981829000E0,2.757864990E0,9.575437775E0,7.948471069E-2,9.964996021E0
8.991908000E0,2.885848846E0,9.528136139E0,-7.664062500E-2,9.955871415E0
9.001986000E0,3.053200836E0,9.861492920E0,-6.511459351E-2,1.032353224E1
9.012065000E0,2.647694092E0,9.940678253E0,2.529739380E-2,1.028727408E1
9.022144000E0,2.926414490E0,9.872270508E0,-2.339634705E-1,1.029953230E1
9.032223000E0,2.598147125E0,9.979896698E0,-1.425036621E-1,1.031353547E1
9.042301000E0,2.342329102E0,1.019739441E1,4.032614136E-1,1.047072004E1
9.052380000E0,2.183808746E0,1.028645920E1,7.696994019E-1,1.054384658E1
9.062459000E0,1.617386627E0,9.820927277E0,5.114863586E-1,9.966351909E0
9.072537000E0,1.780697021E0,9.658215637E0,1.359173584E-1,9.821938948E0
9.082616000E0,2.265688477E0,9.923613739E0,3.367996216E-2,1.017902688E1
9.092695000E0,2.063309326E0,9.995314636E0,1.423539734E-1,1.020704780E1
9.102774000E0,2.357597351E0,9.899813232E0,6.301895142E-2,1.017686291E1
9.112852000E0,2.879112854E0,9.214987335E0,-2.106120300E-1,9.656585310E0
9.122931000E0,3.223396912E0,8.156388702E0,1.253643036E0,8.859378374E0
9.133010000E0,3.962410126E0,9.210646362E0,2.064955902E0,1.023722342E1
9.143089000E0,4.270020447E0,9.005423126E0,7.631130981E-1,9.995652150E0
9.153167000E0,4.962929535E0,8.910969543E0,1.699565735E0,1.034043381E1
9.163246000E0,4.756508789E0,8.616232452E0,3.317850494E0,1.038614315E1
9.173325000E0,4.453239441E0,7.626191254E0,4.587659912E0,9.951721360E0
9.183404000E0,4.173620911E0,7.785909119E0,3.030148773E0,9.339234117E0
9.193482000E0,3.666774902E0,8.169411621E0,5.626799011E-1,8.972242367E0
9.203561000E0,3.210972748E0,8.006250916E0,-1.390009460E0,8.737421016E0
9.213640000E0,3.142415314E0,8.189469910E0,-2.226320343E0,9.049789703E0
9.223718000E0,2.648741913E0,8.280031586E0,-2.205812988E0,8.968855430E0
9.233797000E0,2.539768524E0,8.357570343E0,-1.650767212E0,8.889569089E0
9.243875708E0,3.062032471E0,9.033265228E0,-4.790039062E-1,9.550150170E0
9.253954708E0,3.911216583E0,9.925559692E0,1.291663971E0,1.074628988E1
9.264032708E0,3.604055328E0,9.991422729E0,2.570604401E0,1.092820891E1
9.274111708E0,3.092269592E0,9.766290894E0,3.030597839E0,1.068302824E1
9.284190708E0,2.969075775E0,9.711953888E0,3.056943054E0,1.060577013E1
9.294269708E0,2.664159851E0,9.603130188E0,3.308270416E0,1.050059571E1
9.304347708E0,2.516866150E0,9.686656494E0,3.127596130E0,1.048559902E1
9.314426708E0,2.443967743E0,9.646390228E0,2.597997437E0,1.028471747E1
9.324505708E0,2.727029114E0,9.562564545E0,2.349364471E0,1.021757515E1
9.334584708E0,3.169808350E0,9.635612640E0,2.143093414E0,1.036752455E1
9.344662708E0,3.418591003E0,9.673633575E0,2.086211700E0,1.046987250E1
9.354741708E0,3.781436462E0,9.714797974E0,1.787133636E0,1.057688083E1
9.364820708E0,4.071084137E0,9.828711090E0,1.735191650E0,1.077906201E1
9.374898708E0,3.681444397E0,9.698631592E0,1.963616638E0,1.055804328E1
9.384977708E0,4.292473755E0,1.096829132E1,1.357826385E0,1.185632481E1
9.395056708E0,3.673959961E0,1.160761185E1,2.359243927E0,1.240163967E1
9.405135708E0,2.257305908E0,1.010803024E1,2.539918213E0,1.066390594E1
9.415213708E0,1.698218536E0,8.691675568E0,1.601669312E0,8.999695270E0
9.425292708E0,1.683549042E0,7.769443359E0,1.353784790E0,8.064199945E0
9.435371708E0,1.782792664E0,7.303911438E0,1.353635101E0,7.639227707E0
9.445450708E0,1.379082184E0,7.375462646E0,1.497485962E0,7.651260101E0
9.455528708E0,1.179547119E0,7.608977051E0,1.798360291E0,7.907083084E0
9.465607708E0,1.214274902E0,8.191116486E0,2.207010498E0,8.569699420E0
9.475686708E0,1.076710968E0,8.751700745E0,2.471510468E0,9.157507107E0
9.485765708E0,1.219364319E0,9.029223633E0,2.602937164E0,9.475706340E0
9.495843708E0,1.596729584E0,8.775800629E0,2.478994904E0,9.257949977E0
9.505922708E0,2.222129059E0,8.435109100E0,2.018402710E0,8.953372135E0
9.516001708E0,2.636018372E0,8.660240936E0,2.276316376E0,9.334344228E0
9.526079708E0,2.148781586E0,8.745114441E0,2.566263428E0,9.363759761E0
9.536158708E0,1.912423096E0,8.154592438E0,1.647324371E0,8.536299989E0
9.546237708E0,3.869303741E0,8.559500427E0,1.017883301E0,9.448420261E0
9.556316708E0,3.891457672E0,1.075244019E1,1.927691345E0,1.159631005E1
9.566394708E0,3.711382141E0,1.176418625E1,1.854643250E0,1.247437923E1
9.576473708E0,2.902613983E0,1.117501144E1,2.602039032E0,1.183539842E1
9.586552708E0,1.794318695E0,1.086231171E1,3.133583679E0,1.144677867E1
9.596631708E0,2.207160187E0,1.095616653E1,1.142274628E0,1.123449743E1
9.606709708E0,2.890938263E0,1.152184021E1,9.505233765E-2,1.187936702E1
9.616788708E0,2.722239075E0,1.130359406E1,1.447340240E0,1.171651048E1
9.626867708E0,2.413580933E0,1.077519287E1,1.811383209E0,1.118978389E1
9.636946708E0,2.285597076E0,1.014335678E1,1.316961365E0,1.048074559E1
9.647024708E0,2.384391632E0,9.804012451E0,9.252259827E-1,1.013212844E1
9.657103708E0,2.212848358E0,9.566007385E0,8.336164856E-1,9.853938887E0
9.667182708E0,1.668729858E0,9.310189362E0,9.289682007E-1,9.504065825E0
9.677260708E0,1.098116455E0,9.274713135E0,1.127754822E0,9.407337265E0
9.687339708E0,1.040486298E0,9.254505157E0,1.040037231E0,9.370707278E0
9.697418708E0,1.555565186E0,8.959169312E0,4.372407532E-1,9.103717772E0
9.707497708E0,1.521136780E0,8.437653809E0,4.011657715E-1,8.583052655E0
9.717575708E0,9.286688232E-1,8.090675354E0,4.658312988E-1,8.157110534E0
9.727654708E0,1.170715485E0,8.153843994E0,3.300636292E-1,8.244069907E0
9.737733708E0,1.830243988E0,8.256380768E0,7.469467163E-1,8.489731788E0
9.747812708E0,9.139993286E-1,9.250313873E0,3.457809448E0,9.917668461E0
9.757890708E0,1.009351044E0,9.839189301E0,2.705324249E0,1.025413160E1
9.767969708E0,1.347497864E0,9.604776764E0,6.676116943E-1,9.721789576E0
9.778048708E0,1.804497528E0,9.259295197E0,1.338217163E-1,9.434440477E0
9.788126708E0,1.801803131E0,9.245673523E0,7.665559387E-1,9.450745019E0
9.798205708E0,1.730401611E0,9.579329681E0,1.609453125E0,9.866518446E0
9.808284708E0,1.530267792E0,9.690249023E0,1.523681488E0,9.927953008E0
9.818363708E0,1.165626068E0,9.718091125E0,1.127006378E0,9.852417096E0
9.828441708E0,1.057251434E0,9.854008484E0,9.608518982E-1,9.957032699E0
9.838520708E0,1.223405914E0,9.815837860E0,8.128097534E-1,9.925122398E0
9.848599708E0,1.413809967E0,9.658065948E0,6.352789307E-1,9.781649953E0
9.858678708E0,1.174607391E0,9.376501465E0,7.932005310E-1,9.483018999E0
9.868756708E0,7.707472229E-1,9.005722504E0,7.726931763E-1,9.071611976E0
9.878835708E0,6.201603699E-1,8.906778259E0,6.468049622E-1,8.951740306E0
9.888914708E0,4.959187317E-1,9.169182587E0,9.524693298E-1,9.231849355E0
9.898993708E0,6.794371033E-1,9.291478271E0,6.583309937E-1,9.339518346E0
9.909071708E0,7.710466003E-1,9.551038513E0,3.562591553E-1,9.588731414E0
9.919150708E0,1.511107635E0,9.876910858E0,2.978805542E-2,9.991881790E0
9.929229708E0,2.015109558E0,1.022433838E1,1.091230774E-1,1.042159631E1
9.939308708E0,2.343825989E0,1.061307999E1,2.528242493E-1,1.087174812E1
9.949386708E0,2.521207123E0,1.093550949E1,5.863307190E-1,1.123768824E1
9.959465708E0,2.898273010E0,1.077968353E1,4.697232056E-1,1.117238575E1
9.969544708E0,2.789149933E0,1.041489212E1,3.879931641E-1,1.078887732E1
9.979622708E0,2.046993256E0,9.867031403E0,2.478845215E-1,1.008017544E1
9.989701708E0,9.720785522E-1,1.060843964E1,1.362167358E-1,1.065375442E1