"Time (s)","Linear Acceleration x (m/s^2)","Linear Acceleration y (m/s^2)","Linear Acceleration z (m/s^2)","Absolute acceleration (m/s^2)"
0.000000000E0,1.084219962E-1,-7.871580184E-2,-4.769819391E-1,4.954425062E-1
1.004199998E-2,2.941237181E-1,-3.065674701E-1,-4.734280014E-1,6.361025451E-1
2.008499997E-2,3.551984704E-1,-3.304176781E-1,-2.813428742E-1,5.607990800E-1
3.012699995E-2,-9.932519048E-2,-1.492696307E-1,-8.884493351E-2,2.001008204E-1
4.016999993E-2,6.932166517E-3,1.625496715E-1,-7.857312977E-2,1.806770250E-1
5.021199991E-2,-1.338755107E-1,-1.728086114E-1,-4.539298761E-1,5.038231842E-1
6.025499990E-2,-7.502153099E-2,-3.970990330E-1,-6.478434277E-1,7.635554851E-1
7.029700000E-2,1.083570921E-1,-4.027448121E-1,-2.491516131E-1,4.858200998E-1
8.033999999E-2,-1.557303563E-1,-6.666293621E-1,1.977002084E-2,6.848631279E-1
9.038199997E-2,-1.985220346E-1,-6.988212079E-1,-2.851102352E-2,7.270316068E-1
1.004250000E-1,-1.685059378E-1,-7.052176233E-1,-2.922520244E-1,7.817527697E-1
1.104669999E-1,-1.471574610E-1,-7.378719838E-1,-7.288566005E-1,1.047541086E0
1.205099999E-1,-2.627727020E-1,-9.036579430E-1,-1.233811619E0,1.551753293E0
1.305519999E-1,-5.768529671E-1,-1.101806633E0,-1.504575126E0,1.952045981E0
1.405950000E-1,-8.760473907E-1,-1.355828977E0,-1.484374750E0,2.192965947E0
1.506370000E-1,-9.861545545E-1,-1.739649860E0,-1.406583978E0,2.444864194E0
1.606800000E-1,-9.854224831E-1,-1.950613308E0,-1.403639905E0,2.597336083E0
1.707220000E-1,-8.874716806E-1,-2.229337799E0,-1.563817946E0,2.864101879E0
1.807649999E-1,-4.798985302E-1,-2.622356937E0,-2.058447951E0,3.368125068E0
1.908069999E-1,3.588868940E-1,-2.737923354E0,-2.663821882E0,3.836791773E0
2.008499999E-1,1.078820059E0,-2.870409566E0,-3.180201191E0,4.417780371E0
2.108920000E-1,1.571967795E0,-3.110355323E0,-3.716411916E0,5.094812117E0
2.209350000E-1,1.600103427E0,-3.046575941E0,-3.985442893E0,5.265520961E0
2.309770000E-1,1.187014014E0,-2.460731710E0,-4.190762608E0,5.002668693E0
2.410200000E-1,9.226479453E-1,-2.233240230E0,-4.244186279E0,4.883826197E0
2.510619999E-1,4.472266281E-1,-2.199057992E0,-2.940553642E0,3.699016549E0
2.611049999E-1,7.101104271E-1,-2.259454760E0,-1.367621641E0,2.734918936E0
2.711469999E-1,1.666626030E0,-2.740963321E0,-2.683942151E-1,3.219092684E0
2.811899999E-1,2.718779277E0,-3.120828563E0,7.002192771E-1,4.197813563E0
2.912330000E-1,3.153872348E0,-3.073198314E0,1.739840187E0,4.734818110E0
3.012750000E-1,3.120050883E0,-2.979203737E0,2.607693874E0,5.040876885E0
3.113180000E-1,2.629955978E0,-2.594761295E0,3.322108437E0,4.968486600E0
3.213599999E-1,2.148795619E0,-2.268816152E0,3.477702261E0,4.675389006E0
3.314029999E-1,1.869015706E0,-2.139673378E0,3.098661184E0,4.203941365E0
3.414449999E-1,1.063838323E0,-1.518940273E0,3.535832940E0,3.992623963E0
3.514879999E-1,-2.319678158E-1,-1.080400561E0,4.275953324E0,4.416429697E0
3.615300000E-1,-1.313465315E0,-4.801616549E-1,4.715693762E0,4.918690273E0
3.715730000E-1,-2.355044457E0,-3.717922837E-1,3.651621551E0,4.361055359E0
3.816150000E-1,-2.513244969E0,-2.023148310E-1,2.710407234E0,3.701842641E0
3.916579999E-1,-2.165619228E0,-6.650856972E-2,2.361320858E0,3.204710006E0
4.016999999E-1,-2.192814043E0,1.488572466E-1,2.517268438E0,3.341740908E0
4.117429999E-1,-2.247337575E0,4.035800868E-1,2.958479451E0,3.737111682E0
4.217849999E-1,-2.480033954E0,7.826851907E-1,3.328989148E0,4.224373713E0
4.318280000E-1,-2.550844320E0,8.211443746E-1,2.668597888E0,3.781864555E0
4.418700000E-1,-2.672007984E0,4.849066705E-1,1.420831304E0,3.064885436E0
4.519130000E-1,-2.563280178E0,7.051712841E-1,3.949495965E-1,2.687686179E0
4.619549999E-1,-2.710931144E0,1.285736356E0,-4.124666852E-1,3.028596113E0
4.719979999E-1,-3.884715832E0,2.252715259E0,-1.212741470E0,4.651503522E0
4.820399999E-1,-5.069709048E0,3.048687663E0,-2.475433365E0,6.412816592E0
4.920829999E-1,-4.918770193E0,3.640220942E0,-4.126217533E0,7.380459325E0
5.021250000E-1,-4.502291733E0,4.245400745E0,-5.284036399E0,8.137266065E0
5.121680000E-1,-4.378869874E0,4.868492617E0,-5.672290349E0,8.663232626E0
5.222100000E-1,-3.661291384E0,5.165554853E0,-5.551320813E0,8.420521023E0
5.322530000E-1,-2.433117065E0,4.685941667E0,-4.683232652E0,7.057674973E0
5.422949999E-1,-1.013869772E0,4.176859976E0,-3.122420760E0,5.312589065E0
5.523379999E-1,5.110291064E-2,3.894902559E0,-1.484468744E0,4.168515912E0
5.623799999E-1,2.143858230E-1,3.278853659E0,-2.291808866E-1,3.293837652E0
5.724230000E-1,-3.175669599E-1,3.436962955E0,1.255689561E-1,3.453886317E0
5.824646249E-1,-4.637689859E-1,3.715415550E0,-3.231013495E-1,3.758162964E0
5.925076250E-1,-6.199908006E-1,3.275892629E0,-7.408352065E-1,3.415362047E0
6.025496250E-1,-1.924950171E-1,3.185222487E0,-6.367104021E-1,3.253935580E0
6.125926250E-1,3.852297699E-1,2.959636907E0,-7.352547701E-1,3.073833466E0
6.226346249E-1,6.238575643E-1,2.371851109E0,-1.958841217E0,3.138779198E0
6.326776249E-1,1.554841300E0,-7.474039101E0,-2.027893209E1,2.166826893E1
6.427196249E-1,9.693074983E0,-4.118384603E0,-1.481676728E1,1.817837691E1
6.527626249E-1,3.457258641E0,4.742456176E0,2.769047790E0,6.489310715E0
6.628046250E-1,-7.360901910E-1,-6.626105708E-1,-5.637690620E0,5.724022804E0
6.728476250E-1,-9.626949406E-1,1.177504687E0,-2.138033819E0,2.623830682E0
6.828896250E-1,-1.634123697E0,4.924174190E-1,-1.518092135E0,2.284171382E0
6.929326250E-1,-3.005062464E0,-1.914144516E-1,-3.517603076E-1,3.031629136E0
7.029746249E-1,-5.788266363E0,-5.707426268E-1,-3.392051661E-1,5.826219596E0
7.130176249E-1,-9.151991773E0,2.055462655E0,3.952144754E-1,9.388294553E0
7.230596249E-1,-1.154922623E1,4.504280371E0,5.958113945E-1,1.241080817E1
7.331026250E-1,-1.193368767E1,5.120512581E0,1.374130762E0,1.305836077E1
7.431446250E-1,-8.378770008E0,2.415669850E0,3.794862839E0,9.510006921E0
7.531876250E-1,-2.448615695E0,9.055191118E-1,1.481076336E0,3.001544735E0
7.632296250E-1,9.672265327E-1,1.457214287E0,-2.441825323E0,3.003583119E0
7.732726249E-1,-2.504823225E0,4.753499812E0,-1.724644443E0,5.643075252E0
7.833146249E-1,-2.585921182E0,3.393553811E0,4.119426577E0,5.930672066E0
7.933576249E-1,3.831452960E0,9.660044646E-1,5.164844416E0,6.502985027E0
8.033996250E-1,8.248311026E0,-4.172558472E-2,3.769830909E0,9.069068358E0
8.134426250E-1,7.910607424E0,-1.580919297E0,3.774934359E0,8.906578752E0
8.234846250E-1,6.224159333E0,-2.331158288E0,4.393278583E0,7.967142215E0
8.335276250E-1,7.162609963E0,-2.555490225E0,4.315136393E0,8.743792877E0
8.435696249E-1,9.306981579E0,-4.587584483E0,3.532079612E0,1.096090434E1
8.536126249E-1,9.593709154E0,-5.820847633E0,2.424111768E0,1.148032405E1
8.636546249E-1,7.227044526E0,-5.696501330E0,2.629496387E0,9.570504231E0
8.736976249E-1,5.038338152E0,-5.191181445E0,2.387992347E0,7.618118113E0
8.837396250E-1,5.093062243E0,-3.598350200E0,-1.906613302E-1,6.238890840E0
8.937826250E-1,4.685019561E0,-3.360110368E0,-2.758242720E0,6.391216854E0
9.038246250E-1,4.026085135E0,-4.343080237E0,-4.169388696E0,7.242617590E0
9.138676249E-1,3.547957726E0,-4.511280658E0,-3.871911600E0,6.923247550E0
9.239096249E-1,2.418520660E0,-3.953446929E0,-2.581931627E0,5.305219668E0
9.339526249E-1,1.168439748E0,-2.940292856E0,-1.780914538E0,3.630734102E0
9.439946250E-1,-6.622989142E-1,-3.412027504E0,-1.618578290E0,3.834105791E0
9.540376250E-1,-1.665527923E0,-4.602161592E0,-9.826070487E-1,4.991932611E0
9.640796250E-1,-3.534199812E0,-5.233280228E0,7.388003755E-1,6.357956925E0
9.741226250E-1,-5.189440144E0,-4.795965800E0,1.791478118E0,7.289785375E0
9.841646249E-1,-6.038055907E0,-4.212482091E0,1.788829329E0,7.576479055E0
9.942076249E-1,-7.103080046E0,-3.844137910E0,9.188174343E-1,8.128675654E0
1.004249625E0,-7.684836488E0,-2.078058928E0,-1.651488758E0,8.130341682E0
1.014292625E0,-6.560732667E0,6.486409879E-1,-2.730988848E0,7.135982648E0
1.024334625E0,-5.430934829E0,1.683070740E0,-2.945438991E0,6.403389030E0
1.034377625E0,-4.033098870E0,2.001020107E0,-2.605534497E0,5.201805262E0
1.044419625E0,-2.709734219E0,1.699213148E0,-2.263595320E0,3.918398733E0
1.054462625E0,-1.597548194E0,1.053984010E0,-2.180379793E0,2.901223633E0
1.064504625E0,-5.844274503E-1,5.330029428E-1,-2.014055744E0,2.163808707E0
1.074547625E0,-6.275816560E-3,5.174780005E-1,-2.023242889E0,2.088380869E0
1.084589625E0,6.610107726E-1,9.045204073E-1,-1.895756338E0,2.202040986E0
1.094632625E0,1.709442267E0,1.500062830E0,-1.081508024E0,2.518340915E0
1.104674625E0,2.486007469E0,1.885801308E0,2.609860852E-2,3.120442412E0
1.114717625E0,1.260669050E0,1.169108670E0,8.678039861E-1,1.925924530E0
1.124759625E0,4.147166938E-1,2.469630003E-1,1.321730500E0,1.407107734E0
1.134802625E0,9.221275431E-1,-4.602799523E-1,1.829417046E0,2.099748453E0
1.144845625E0,1.806671230E0,-5.200227088E-1,2.740391171E0,3.323285772E0
1.154887625E0,2.270698079E0,-5.599761486E-1,3.647464180E0,4.332855640E0
1.164929625E0,2.233331447E0,-4.606348783E-1,3.794328403E0,4.426836554E0
1.174972625E0,1.274452399E0,7.790192789E-1,3.072689606E0,3.416507189E0
1.185015625E0,8.731764078E-2,2.657470636E0,2.494480669E0,3.645848099E0
1.195057625E0,-5.116547585E-1,3.891350083E0,2.112736863E0,4.457359433E0
1.205099625E0,-3.195994520E-1,4.482364422E0,1.563449571E0,4.757952205E0
1.215142625E0,5.799291873E-1,4.343073805E0,1.197799788E0,4.542392791E0
1.225185625E0,1.789754943E0,3.676042739E0,1.333307841E0,4.300490992E0
1.235227625E0,2.341529495E0,3.485120038E0,1.646594785E0,4.509999606E0
1.245270625E0,2.184151393E0,4.091474547E0,1.838048851E0,4.988898161E0
1.255312625E0,1.670165057E0,4.541887323E0,2.015074767E0,5.242014698E0
1.265355625E0,7.874044785E-1,4.696380701E0,2.182431289E0,5.238225256E0
1.275397625E0,-4.068410790E-1,4.522140691E0,2.286722081E0,5.083736221E0
1.285440625E0,-1.236585246E0,4.028828648E0,1.981262366E0,4.656823371E0
1.295482625E0,-1.484168636E0,4.050953928E0,1.352472675E0,4.521301428E0
1.305525625E0,-1.526239353E0,4.905315165E0,7.239578032E-1,5.188028366E0
1.315567625E0,-1.526259233E0,5.612469240E0,-3.299408376E-2,5.816387781E0
1.325610625E0,-1.589523768E0,5.917552979E0,-1.139109530E0,6.232302110E0
1.335652625E0,-1.503382587E0,6.212198269E0,-1.217746979E0,6.506494773E0
1.345695625E0,-1.342687067E0,5.500884485E0,-1.247825202E0,5.798241665E0
1.355737625E0,-1.951017643E0,3.021652769E0,-1.170458938E0,3.782436969E0
1.365780625E0,-3.526515694E0,-4.480791521E-1,-1.964364497E0,4.061504123E0
1.375822625E0,-4.084522208E0,-4.777938834E0,-1.788442390E0,6.535330700E0
1.385865625E0,-3.401540815E0,-8.703269427E0,-6.950249031E-1,9.370188805E0
1.395907625E0,-2.953260519E0,-1.144807525E1,4.087332380E-1,1.182992973E1
1.405950625E0,-2.135826202E0,-1.407575783E1,2.194630773E0,1.440503788E1
1.415992625E0,-6.049651740E-1,-1.590106560E1,4.614317953E0,1.656809585E1
1.426035625E0,1.247746411E0,-1.628767180E1,6.904584031E0,1.773466674E1
1.436077625E0,2.753155643E0,-1.517360180E1,7.676828141E0,1.722648391E1
1.446120625E0,3.697449103E0,-1.151254080E1,6.315896299E0,1.364185734E1
1.456162625E0,3.893061856E0,-6.460909002E0,3.918159567E0,8.500073537E0
1.466205625E0,3.525468165E0,-2.119728525E0,1.833354707E0,4.503705617E0
1.476247625E0,3.376835452E0,9.659898466E-1,5.402730784E-1,3.553596636E0
1.486290625E0,3.292170693E0,3.017614682E0,-5.364381820E-1,4.498016470E0
1.496332625E0,3.167933148E0,4.393568020E0,-1.402817055E0,5.595278015E0
1.506375625E0,3.137356887E0,5.008352460E0,-2.193613358E0,6.303851376E0
1.516417625E0,3.030579128E0,4.231083838E0,-2.672946754E0,5.850737103E0
1.526460625E0,2.565952941E0,1.809015672E0,-3.380463649E0,4.613478804E0
1.536502625E0,1.431450724E0,-2.025738627E-1,-3.670874970E0,3.945302319E0
1.546545625E0,2.486966997E-2,-1.398299643E0,-3.400917209E0,3.677240576E0
1.556587625E0,-1.412938732E0,-1.651071852E0,-3.041729769E0,3.738255489E0
1.566630625E0,-2.364164067E0,-1.281578693E0,-2.603282150E0,3.742832301E0
1.576672625E0,-2.403063400E0,-9.688333476E-1,-2.103752470E0,3.337532953E0
1.586715625E0,-2.074959465E0,-7.922673154E-1,-1.618633400E0,2.748293718E0
1.596757625E0,-1.893262062E0,-4.944721305E-1,-1.186595938E0,2.288439172E0
1.606800625E0,-1.469016161E0,-2.493843323E-1,-8.747189033E-1,1.727811965E0
1.616842625E0,-7.765283650E-1,-8.618211150E-2,-6.775180471E-1,1.034144266E0
1.626885625E0,-9.602940738E-2,2.595520556E-2,-4.250048697E-1,4.364910756E-1
1.636927625E0,5.358036129E-1,-2.515706062E-1,-8.754319713E-2,5.983620082E-1
1.646970625E0,9.361753325E-1,-4.824514246E-1,3.223094903E-1,1.101393226E0
1.657012625E0,1.177329124E0,-6.285207188E-1,6.932787783E-1,1.503920751E0
1.667055625E0,1.309974088E0,-7.692479968E-1,8.924569436E-1,1.761889324E0
1.677097625E0,1.301304129E0,-6.625035667E-1,9.791512712E-1,1.758135554E0
1.687140625E0,1.360857436E0,-3.928545392E-1,1.162982103E0,1.832701564E0
1.697182625E0,1.604104384E0,-9.307597876E-2,1.526233213E0,2.216123154E0
1.707225625E0,1.833459518E0,1.670643067E-1,2.165976493E0,2.842699149E0
1.717267625E0,1.857239121E0,4.470313311E-1,2.929238110E0,3.497085940E0
1.727310625E0,1.833975681E0,8.112929857E-1,3.480648673E0,4.017036008E0
1.737352625E0,1.853029272E0,1.162851564E0,3.625417546E0,4.234335087E0
1.747395625E0,1.843969596E0,1.585786520E0,3.486181893E0,4.250694878E0
1.757437625E0,1.706126311E0,2.029208949E0,3.219246558E0,4.170384197E0
1.767480625E0,1.351017595E0,2.372284387E0,2.822745695E0,3.926942197E0
1.777522625E0,8.313897197E-1,2.604971995E0,2.368788922E0,3.617768500E0
1.787565625E0,1.975822408E-1,2.722604526E0,1.791923676E0,3.265364391E0
1.797607625E0,-1.280673837E0,2.563279009E0,-2.006305990E0,3.497969194E0
1.807650625E0,-3.630594086E0,1.541716640E0,-1.092216264E1,1.161256820E1
1.817692625E0,-2.419125262E0,8.088564509E-1,-7.983596463E0,8.381182988E0
1.827735625E0,-3.668145490E-1,6.954555506E-1,-2.986638472E0,3.088400994E0
1.837777625E0,1.003018363E0,7.588481390E-1,5.119167503E-1,1.357923081E0
1.847820625E0,1.529783058E0,1.165989765E0,2.788894994E0,3.387875975E0
1.857862625E0,1.282036823E0,1.596496280E0,3.735853908E0,4.260167040E0
1.867905625E0,-2.711441606E-1,1.758486373E0,2.790119401E0,3.309162999E0
1.877947625E0,-2.574957945E0,1.506035761E0,1.746938268E-1,2.988154960E0
1.887990625E0,-4.667186723E0,1.012963454E0,-2.652135637E0,5.462833541E0
1.898032625E0,-4.923633907E0,3.153216290E-1,-2.497138814E0,5.529674568E0
1.908075625E0,-3.104538805E0,-1.507745486E-1,1.089418137E0,3.293588625E0
1.918117625E0,-1.455291577E0,-2.116814858E-1,2.509015678E0,2.908236974E0
1.928160625E0,-7.857421151E-1,4.882834375E-2,3.666275842E-1,8.684415145E-1
1.938202625E0,-1.184809613E-1,3.502096260E-1,-1.073530083E0,1.135408014E0
1.948245625E0,3.805069739E-1,7.059770304E-1,7.017570949E-1,1.065669810E0
1.958287625E0,3.125170121E-1,8.465610516E-1,1.160879298E0,1.470365003E0
1.968330625E0,-1.934498674E-1,6.206912971E-1,3.628591999E-1,7.445450533E-1
1.978372625E0,-4.601916593E-1,3.142083192E-1,-3.384017587E-2,5.582547704E-1
1.988415625E0,2.228713024E-1,1.462698537E-1,3.219813153E-1,4.180172902E-1
1.998457625E0,1.042700053E0,4.752616882E-3,5.859959659E-1,1.196092497E0
2.008500625E0,1.868453203E0,-2.131649244E-1,-1.302173756E0,2.287403146E0
2.018542625E0,2.028624812E0,-1.969383162E-1,-7.391953549E-1,2.168066674E0
2.028585625E0,1.894905422E0,4.361467391E-1,-6.827825877E-1,2.060845118E0
2.038627625E0,2.277705089E0,1.513379864E0,-2.416048750E0,3.649047910E0
2.048670625E0,2.246750515E0,2.868997171E0,-1.788768518E0,4.059399642E0
2.058712625E0,1.379611357E0,4.109182840E0,-2.252963181E0,4.885136048E0
2.068755625E0,-1.342280978E-1,4.429248315E0,-1.076109874E0,4.560073495E0
2.078797625E0,-9.172416097E-1,4.224382929E0,7.724008155E-1,4.391280715E0
2.088840625E0,-1.092962134E0,3.815808150E0,9.522430426E-1,4.081877617E0
2.098882625E0,-1.807018263E0,3.267842183E0,1.510428189E0,4.028088982E0
2.108925625E0,-2.527986969E0,2.848471690E0,1.014914377E0,3.941390653E0
2.118967625E0,-3.274841884E0,2.591319916E0,-1.943094081E-1,4.180584220E0
2.129010625E0,-4.379658079E0,2.472347789E0,-1.290524933E0,5.192240661E0
2.139052625E0,-5.681970415E0,1.468460968E0,-1.966464232E0,6.189357558E0
2.149095625E0,-5.764297457E0,-5.874639094E-2,-9.746399251E-1,5.846409094E0
2.159137625E0,-4.162905303E0,-9.920795381E-1,-7.480103248E-1,4.344366676E0
2.169180625E0,-2.936380484E0,-1.630848672E0,-1.101135080E0,3.534755466E0
2.179222625E0,-1.992888384E0,-2.283824201E0,-1.433076543E0,3.352784734E0
2.189265625E0,-7.998733735E-1,-2.956075661E0,-2.054820338E0,3.687881146E0
2.199307625E0,3.619964433E-1,-3.683883855E0,-2.878722260E0,4.689251916E0
2.209350625E0,1.018213668E0,-4.408255641E0,-3.324090351E0,5.614183247E0
2.219392625E0,1.758567064E0,-4.788379038E0,-3.327458639E0,6.090411556E0
2.229435625E0,2.015371513E0,-5.075854472E0,-3.585315002E0,6.533031809E0
2.239477625E0,1.590413421E0,-5.640379754E0,-2.857351564E0,6.519797281E0
2.249520625E0,9.395300263E-1,-6.606650852E0,-1.938594064E0,6.949007058E0
2.259562625E0,9.494708776E-2,-7.993175372E0,-2.156221583E0,8.279441949E0
2.269605625E0,-6.663305694E-1,-9.318072578E0,-1.517479054E0,9.464312742E0
2.279647625E0,-1.759782701E0,-1.055673505E1,-1.907602651E0,1.087108265E1
2.289690625E0,-3.492176458E0,-1.184328972E1,-2.043475571E0,1.251537455E1
2.299732625E0,-5.514600883E0,-1.338087940E1,-1.849759655E0,1.459042039E1
2.309775625E0,-7.432991062E0,-1.537112542E1,-6.554104556E-1,1.708655658E1
2.319817625E0,-8.148960984E0,-1.716060029E1,7.749876237E-1,1.901295277E1
2.329860625E0,-7.827673441E0,-1.841200501E1,1.550728515E0,2.006686719E1
2.339902625E0,-6.726765525E0,-1.847124900E1,2.643498130E0,1.983493121E1
2.349945625E0,-5.217904390E0,-1.736982302E1,2.824913843E0,1.835531030E1
2.359987625E0,-3.458049184E0,-1.650446317E1,3.431540247E0,1.720845365E1
2.370030625E0,-2.641024758E0,-1.671750764E1,4.226180363E0,1.744450268E1
2.380072625E0,-3.942638643E0,-1.762734960E1,6.488468099E0,1.919291722E1
2.390115625E0,-4.953779227E0,-1.728002031E1,8.485012747E0,1.987798963E1
2.400157625E0,-5.594387310E0,-1.595331865E1,8.932914144E0,1.912073483E1
2.410200625E0,-5.230864159E0,-1.186873797E1,7.441885847E0,1.495361314E1
2.420242625E0,-4.317372076E0,-6.880324518E0,4.346646454E0,9.212594776E0
2.430285625E0,-2.876122880E0,-4.672451556E-1,-6.190751266E-1,2.978868052E0
2.440327625E0,-1.756495981E0,4.602763855E0,-7.741438705E0,9.176087753E0
2.450370625E0,-9.886234828E0,6.689828664E0,-4.102159048E1,4.272308898E1
2.460412625E0,-1.935236125E1,2.283918926E0,-6.629826174E1,6.910274728E1
2.470455625E0,-6.856739774E0,1.810023147E0,-2.132770974E1,2.247581515E1
2.480497625E0,-3.302975178E0,1.197585779E0,-1.041659717E1,1.099315029E1
2.490540625E0,-3.337557950E0,2.382032865E0,4.493789881E0,6.083380733E0
2.500582625E0,-1.187958777E0,6.218813809E0,1.364088520E1,1.503857175E1
2.510625625E0,1.246062121E0,9.495714498E0,1.342897625E1,1.649420104E1
2.520667625E0,6.958598855E-1,9.776352198E0,8.683165530E0,1.309422189E1
2.530710625E0,4.159666823E-1,9.747479816E0,4.875926474E0,1.090692670E1
2.540752625E0,1.125871434E0,1.011256768E1,3.356193026E0,1.071427288E1
2.550795625E0,1.382742833E0,1.037297928E1,2.890436572E0,1.085657867E1
2.560837625E0,1.421907191E0,1.049643856E1,2.927548850E0,1.098943059E1
2.570880625E0,1.702869558E0,1.039596468E1,3.172132033E0,1.100173932E1
2.580922500E0,1.933731958E0,9.889001731E0,4.024486506E0,1.085026111E1
2.590965500E0,1.489386399E0,8.652432564E0,5.872156366E0,1.056243729E1
2.601007500E0,9.312732462E-1,7.622170123E0,7.431855533E0,1.068631012E1
2.611050500E0,4.981654512E-1,7.656444747E0,7.188715442E0,1.051413072E1
2.621092500E0,9.626583955E-1,7.978393611E0,5.396378953E0,9.679999050E0
2.631135500E0,1.572401951E0,8.085430402E0,3.203476617E0,8.837923688E0
2.641177500E0,1.828654715E0,8.366942260E0,1.968931757E0,8.787854864E0
2.651220500E0,2.082933167E0,8.744680578E0,1.261513388E0,9.077415106E0
2.661262500E0,2.325263710E0,9.001734118E0,7.749583876E-1,9.329449553E0
2.671305500E0,2.466113780E0,9.027756566E0,2.760049327E-1,9.362600308E0
2.681347500E0,2.313862517E0,9.120175903E0,-2.049554336E-1,9.411353515E0
2.691390500E0,1.848664764E0,9.353464020E0,-4.150494003E-1,9.543433166E0
2.701432500E0,1.509818032E0,9.669590226E0,-6.322570896E-1,9.807154259E0
2.711475500E0,1.203909251E0,1.010182284E1,-1.140835628E0,1.023707615E1
2.721517500E0,8.576599440E-1,1.036793196E1,-1.393266944E0,1.049622725E1
2.731560500E0,4.811773163E-1,1.044662847E1,-1.334776077E0,1.054254263E1
2.741602500E0,-8.593857497E-2,1.051295227E1,-1.741424782E0,1.065655249E1
2.751645500E0,-9.238246974E-1,1.058868540E1,-3.048780341E0,1.105752107E1
2.761687500E0,-1.372745849E0,1.040975008E1,-3.634536864E0,1.111112893E1
2.771730500E0,-7.729060149E-1,1.013347148E1,-2.547477493E0,1.047732168E1
2.781772500E0,7.114574064E-2,9.713786990E0,-1.439831246E0,9.820174816E0
2.791815500E0,8.733100167E-1,9.370599870E0,-6.754247439E-1,9.435412598E0
2.801857500E0,1.214093639E0,9.299440425E0,-8.766613483E-2,9.378768626E0
2.811900500E0,1.192875847E0,9.356329740E0,6.146522196E-1,9.452071537E0
2.821942500E0,1.152528890E0,9.358827671E0,1.182837932E0,9.503424845E0
2.831985500E0,1.369405919E0,9.510200390E0,1.505525883E0,9.725522722E0
2.842027500E0,1.379896116E0,9.772326390E0,1.784512768E0,1.002930517E1
2.852070500E0,9.600812352E-1,1.005212852E1,1.910760294E0,1.027706421E1
2.862112500E0,2.838019207E-1,1.027339184E1,1.856144814E0,1.044358162E1
2.872155500E0,-1.554894510E-1,1.040324213E1,1.277759146E0,1.048257088E1
2.882197500E0,-3.892181557E-1,1.062916451E1,-1.110854030E-2,1.063629411E1
2.892240500E0,-7.634732866E-1,1.099594046E1,-1.972595476E0,1.119753237E1
2.902282500E0,-1.218010981E0,1.145549770E1,-4.426615899E0,1.234126844E1
2.912325500E0,-1.533625848E0,1.173363689E1,-5.298259166E0,1.296540755E1
2.922367500E0,-1.534481003E0,1.161134822E1,-3.972068557E0,1.236751260E1
2.932410500E0,-1.536409122E0,1.143635509E1,-3.115788263E0,1.195235990E1
2.942452500E0,-1.647888043E0,1.128013386E1,-2.993584964E0,1.178636949E1
2.952495500E0,-1.963594419E0,1.105846006E1,-3.386299170E0,1.173082538E1
2.962537500E0,-2.355251156E0,1.065729429E1,-3.931990863E0,1.160110692E1
2.972580500E0,-2.797814922E0,1.004009729E1,-5.738308922E0,1.189787843E1
2.982622500E0,-2.935027438E0,8.838278128E0,-1.488235784E1,1.755602806E1
2.992665500E0,-5.685127911E-1,5.816547006E0,-1.658497348E1,1.758456059E1
3.002707500E0,1.497963972E0,-5.471953046E-1,-2.590005228E1,2.594910455E1
3.012750500E0,8.290536693E0,-1.083364164E1,-2.882907463E1,3.189382909E1
3.022792500E0,8.551268132E0,-1.762069664E1,2.717047040E0,1.977360567E1
3.032835500E0,2.067804666E0,-2.672958273E1,1.530409060E1,3.087007610E1
3.042877500E0,7.562642545E-2,-4.745052456E1,4.295521324E0,4.764461674E1
3.052920500E0,-5.999619820E0,-6.034971150E1,-2.794344892E0,6.071154322E1
3.062962500E0,-4.733666641E0,-6.858790977E1,-1.004660056E1,6.948124315E1
3.073005500E0,4.830845026E0,-4.810997355E1,1.027662418E1,4.943192918E1
3.083047500E0,9.683524725E0,-2.044920067E1,2.241860371E1,3.185175429E1
3.093090500E0,7.615690824E0,-8.532608498E0,1.701446901E1,2.050112949E1
3.103132500E0,4.592233019E0,-1.938081263E0,1.160654531E1,1.263157382E1
3.113175500E0,-5.476830794E0,2.621259999E-1,-4.358806323E0,7.004539824E0
3.123217500E0,-1.981117589E1,-3.053732933E0,-2.159051635E1,2.946113323E1
3.133260500E0,-6.230908774E0,-1.136133648E1,4.233759816E0,1.363190790E1
3.143302500E0,5.621882672E0,-1.257142594E1,-1.975002337E-1,1.377262943E1
3.153345500E0,5.908638899E0,-1.146072043E1,-5.903731331E0,1.418147278E1
3.163387500E0,2.055447160E0,-7.317537205E0,-2.674022350E-1,7.605440009E0
3.173430500E0,-1.720998411E0,-2.678398406E0,1.402577466E-1,3.186742190E0
3.183472500E0,-2.181022840E0,-1.417809463E-1,-4.084477477E0,4.632485157E0
3.193515500E0,-6.249430999E-1,9.946072894E-1,-5.377990630E0,5.504777993E0
3.203557500E0,1.339990916E0,1.525790579E0,-4.291865352E0,4.748022825E0
3.213600500E0,2.815163611E0,1.809985140E0,-3.283542249E0,4.688586361E0
3.223642500E0,3.310309633E0,2.163207251E0,-2.776379029E0,4.831759099E0
3.233685500E0,2.340240184E0,2.958942550E0,-2.658482205E0,4.615148185E0
3.243727500E0,8.958279365E-1,3.868308545E0,-2.504409534E0,4.694505917E0
3.253770500E0,2.712669522E-2,4.370054612E0,-2.068790798E0,4.835081027E0
3.263812500E0,-7.099317947E-1,5.013946491E0,-1.785004958E0,5.369348682E0
3.273855500E0,-1.301577633E0,5.482961015E0,-1.567104081E0,5.849169259E0
3.283897500E0,-1.639543774E0,5.602060611E0,-1.182630064E0,5.955652840E0
3.293940500E0,-1.650583317E0,5.396077237E0,-8.143958107E-1,5.701343295E0
3.303982500E0,-1.499583651E0,4.734564773E0,-6.407563099E-1,5.007536657E0
3.314025500E0,-1.018731732E0,3.637022515E0,-6.844122067E-1,3.838511063E0
3.324067500E0,-5.149305148E-1,2.504997472E0,-7.084134190E-1,2.653679585E0
3.334110500E0,-2.029439914E-1,1.651303986E0,-4.082922117E-1,1.713094758E0
3.344152500E0,-5.650003687E-2,1.190295471E0,1.074158366E-1,1.196467185E0
3.354195500E0,2.943315867E-1,1.176635206E0,4.746512389E-1,1.302457404E0
3.364237500E0,8.123403682E-1,1.668013574E0,4.457544453E-1,1.908104605E0
3.374280500E0,1.467334210E0,2.305722023E0,9.973361850E-2,2.734843785E0
3.384322500E0,2.004462655E0,2.661705190E0,-3.384040976E-1,3.349188318E0
3.394365500E0,2.342415348E0,2.739775459E0,-5.842058408E-1,3.651653830E0
3.404407500E0,2.446981983E0,2.695265284E0,-6.637876884E-1,3.700376990E0
3.414450500E0,2.460019227E0,2.671506293E0,-7.135545103E-1,3.701053973E0
3.424492500E0,2.345679118E0,2.588386368E0,-7.201699039E-1,3.566594903E0
3.434535500E0,2.266513519E0,2.392658426E0,-7.391944047E-1,3.377618427E0
3.444577500E0,2.306923772E0,1.749302736E0,-8.240129455E-1,3.010141971E0
3.454620500E0,2.534078014E0,6.432603800E-1,-1.104926049E0,2.838344037E0
3.464662500E0,2.887621722E0,-1.163764899E0,-1.869822621E0,3.631658655E0
3.474705500E0,3.166338027E0,-3.701476373E0,-2.674687178E0,5.557029363E0
3.484747500E0,3.286735706E0,-5.840099006E0,-2.610427448E0,7.191920429E0
3.494790500E0,3.224693824E0,-6.501009207E0,-2.814110527E0,7.783379024E0
3.504832500E0,2.383580185E0,-5.091981093E0,-3.035518856E0,6.389374044E0
3.514875500E0,1.178232957E0,-1.809900355E0,-1.615501485E0,2.697001529E0
3.524917500E0,3.968258218E-1,7.107314014E-1,3.107334651E-2,8.146013815E-1
3.534960500E0,-1.508444229E-1,2.090015899E0,2.113303020E0,2.976066221E0
3.545002500E0,-6.086616741E-1,2.798387949E0,4.333073312E0,5.193935740E0
3.555045500E0,-1.210770374E0,2.971876591E0,5.134155890E0,6.054549700E0
3.565087500E0,-1.729333617E0,2.702443911E0,5.032282190E0,5.968053443E0
3.575130500E0,-2.593879243E0,2.210541047E0,4.774782507E0,5.866280699E0
3.585172750E0,-3.825349052E0,1.544137387E0,4.027089686E0,5.764989764E0
3.595215750E0,-5.026886964E0,7.872585905E-1,2.929973105E0,5.871465834E0
3.605257750E0,-5.654831733E0,1.782465219E-1,1.739427373E0,5.918994960E0
3.615300750E0,-5.846133918E0,-3.864354658E-1,9.232320821E-1,5.931186359E0
3.625342750E0,-5.490392826E0,-8.836978877E-1,3.156595981E-1,5.570006851E0
3.635385750E0,-4.518120438E0,-1.280659511E0,-2.723785079E-1,4.704007986E0
3.645427750E0,-3.316763205E0,-1.429433143E0,-9.202160883E-1,3.727062505E0
3.655470750E0,-2.268876817E0,-1.049027910E0,-1.471589813E0,2.900661674E0
3.665512750E0,-1.474754619E0,-3.883890206E-1,-1.671510794E0,2.262674425E0
3.675555750E0,-7.665823974E-1,4.020884621E-1,-1.736309638E0,1.940127538E0
3.685597750E0,-2.049164034E-1,1.194562769E0,-1.831414601E0,2.196144435E0
3.695640750E0,9.808382660E-2,1.913335261E0,-2.080716487E0,2.828401202E0
3.705682750E0,-1.147833283E-1,2.371188034E0,-3.486830349E0,4.218257198E0
3.715725750E0,-1.406330209E0,2.483089709E0,-6.995470812E0,7.555138056E0
3.725767750E0,-2.393489900E0,2.426851773E0,-6.461802456E0,7.305702869E0
3.735810750E0,-1.903608126E0,2.318142679E0,-1.425754659E0,3.321187397E0
3.745852750E0,-1.342779892E0,2.335424709E0,1.796970992E0,3.238266690E0
3.755895750E0,-1.384668906E0,2.255200326E0,3.006632441E0,4.005380772E0
3.765937750E0,-2.080106330E0,2.007430995E0,2.405942130E0,3.761007721E0
3.775980750E0,-2.349908555E0,1.676412515E0,-8.066456187E-1,2.997183059E0
3.786022750E0,-2.085278192E0,1.536469933E0,-3.310012887E0,4.203012052E0
3.796065750E0,-2.337647528E0,1.606515484E0,-4.092111894E0,4.979042852E0
3.806107750E0,-1.935754656E0,1.213103705E0,-2.523163601E0,3.403692296E0
3.816150750E0,-8.920883498E-1,1.067258944E0,3.462302449E0,3.731273445E0
3.826192750E0,1.308782279E-1,1.201631468E0,5.063016325E0,5.205303219E0
3.836235750E0,5.188684684E-1,1.058274697E0,2.921268940E-3,1.178634106E0
3.846277750E0,6.898694131E-1,5.774920678E-1,-3.359915364E0,3.478282356E0
3.856320750E0,1.164111639E0,-4.134390771E-2,-2.339859091E0,2.613772330E0
3.866362750E0,1.579273306E0,-6.348474061E-1,1.455434103E0,2.239514195E0
3.876405750E0,1.650783292E0,-7.625541043E-1,9.646422096E-1,2.058423871E0
3.886447750E0,2.844512540E0,-1.261653721E-1,-5.089977837E-1,2.892446721E0
3.896490750E0,4.741561552E0,7.088918674E-1,-9.587354985E-1,4.889182691E0
3.906532750E0,5.125476868E0,1.225346605E0,-2.273249219E0,5.739307400E0
3.916575750E0,3.344177583E0,1.519400157E0,-2.351966190E0,4.361633352E0
3.926617750E0,1.314203818E0,2.035314027E0,-4.565915287E-1,2.465382463E0
3.936660750E0,2.586305344E-1,2.591881249E0,5.635312557E-1,2.665015129E0
3.946702750E0,-4.813977563E-1,2.984579083E0,6.275255227E-1,3.087595243E0
3.956745750E0,-1.653672693E0,3.264685271E0,7.471455216E-1,3.735107726E0
3.966787750E0,-2.536269550E0,3.590886814E0,8.206266037E-1,4.472198494E0
3.976830750E0,-3.998241863E0,3.813173395E0,1.962704765E0,5.863312999E0
3.986872750E0,-4.233733211E0,4.084509344E0,2.139374293E0,6.259763242E0
3.996915750E0,-3.377083958E0,4.494591535E0,1.882804610E0,5.928828073E0
4.006957750E0,-3.247932998E0,4.448310238E0,2.255846151E0,5.951921924E0
4.017000750E0,-4.108179458E0,3.191289266E0,2.046566117E0,5.590160866E0
4.027042750E0,-5.000621856E0,9.088309747E-1,1.810084250E0,5.395238427E0
4.037085750E0,-4.211510868E0,-1.065929872E0,7.835599342E-1,4.414407826E0
4.047127750E0,-3.007850416E0,-2.328665913E0,-5.618025264E-1,3.845188050E0
4.057170750E0,-1.884731267E0,-3.282958404E0,-1.891431299E0,4.231730166E0
4.067212750E0,-5.173359132E-1,-3.389401118E0,-2.663560804E0,4.341685450E0
4.077255750E0,-5.452633846E-1,-3.194849635E0,-4.221164329E0,5.321898594E0
4.087297750E0,-6.731887686E-1,-3.337832769E0,-4.391125346E0,5.556643998E0
4.097340750E0,-8.351069409E-1,-3.912360299E0,-4.982297267E0,6.389620706E0
4.107382750E0,-9.615962487E-1,-4.498691602E0,-4.246306771E0,6.260512333E0
4.117425750E0,-5.511614710E-1,-4.769168011E0,-3.046373920E0,5.685871661E0
4.127467750E0,-3.999121284E-1,-4.864574105E0,-2.437666783E0,5.455843682E0
4.137510750E0,-8.155877656E-1,-5.060014365E0,-1.541405860E0,5.352089387E0
4.147552750E0,-1.580685409E0,-5.797891465E0,-2.073233513E0,6.357075507E0
4.157595750E0,-2.578485278E0,-7.249911817E0,-2.093904005E0,7.974599781E0
4.167637750E0,-3.524136754E0,-9.347136748E0,-2.248678926E0,1.023938778E1
4.177680750E0,-4.579626423E0,-1.256262355E1,-2.075600027E0,1.353146718E1
4.187722750E0,-6.273554857E0,-1.676169271E1,-1.671859581E0,1.797517587E1
4.197765750E0,-8.603743969E0,-2.055179124E1,-1.264695443E0,2.231591333E1
4.207807750E0,-1.029682280E1,-2.318005386E1,1.663078232E-1,2.536468244E1
4.217850750E0,-1.029884828E1,-2.412309514E1,1.414011111E0,2.626764973E1
4.227892750E0,-8.781022777E0,-2.347355368E1,1.718969135E0,2.512108553E1
4.237935750E0,-7.063180400E0,-2.190429198E1,2.764807974E0,2.318039446E1
4.247977750E0,-5.720260906E0,-1.959116270E1,3.789332542E0,2.075798839E1
4.258020750E0,-4.723977512E0,-1.693075325E1,4.597248176E0,1.816868350E1
4.268062750E0,-4.435170083E0,-1.429622475E1,5.403066999E0,1.591370192E1
4.278105750E0,-4.510878954E0,-1.116379882E1,6.559448619E0,1.371148421E1
4.288147750E0,-4.703046527E0,-8.688770671E0,6.960062413E0,1.208535689E1
4.298190750E0,-5.513389340E0,-5.879617413E0,6.385329062E0,1.028298547E1
4.308232750E0,-4.257568801E0,-1.292590170E0,4.081749458E0,6.038075859E0
4.318275750E0,-2.848567292E0,2.602310928E0,8.485783410E-1,3.950499080E0
4.328317750E0,-1.791902479E0,5.236637115E0,-1.602690235E0,5.762108881E0
4.338360750E0,-2.325482689E0,5.932214288E0,-2.781315833E0,6.952320034E0
4.348402750E0,-2.387875988E0,6.148036771E0,-4.866546956E0,8.196559470E0
4.358445750E0,-1.170192977E1,1.028449219E1,-5.020899766E1,5.257042312E1
4.368487750E0,-9.415238099E0,1.039199442E1,-3.911269910E1,4.155049323E1
4.378530750E0,-3.547350054E-1,7.119808345E0,-1.166857492E1,1.367381250E1
4.388572750E0,1.031275764E0,7.264861393E0,-3.236706929E0,8.019851152E0
4.398615750E0,1.610200399E0,9.011610065E0,3.319838548E0,9.737719922E0
4.408657750E0,1.845629474E0,1.050214895E1,4.061598784E0,1.141043669E1
4.418700750E0,1.877884178E0,1.060515584E1,3.844782858E0,1.143582680E1
4.428742750E0,2.425346261E0,1.013699735E1,2.634900969E0,1.075098706E1
4.438785750E0,2.719570698E0,9.808441132E0,1.286999062E0,1.025952966E1
4.448827750E0,2.454708786E0,9.321266327E0,9.530458653E-1,9.686067189E0
4.458870750E0,2.042834277E0,8.911967078E0,1.053499934E0,9.203596645E0
4.468912750E0,1.850820778E0,8.514775075E0,1.216400365E0,8.798099907E0
4.478955750E0,1.629097138E0,8.035754796E0,1.669853693E0,8.367539901E0
4.488997750E0,1.543910808E0,7.747690548E0,2.077526831E0,8.168628229E0
4.499040750E0,1.630077278E0,7.790900887E0,2.135497881E0,8.241094573E0
4.509082750E0,1.549034723E0,8.172627590E0,2.041570548E0,8.565007916E0
4.519125750E0,1.413468490E0,8.860598119E0,1.853569701E0,9.162085616E0
4.529167750E0,1.480232875E0,9.409706633E0,1.504625412E0,9.643524559E0
4.539210750E0,1.580335745E0,9.728027884E0,1.127494621E0,9.919840306E0
4.549252750E0,1.596416173E0,9.892484332E0,7.773978460E-1,1.005057900E1
4.559295750E0,1.502900922E0,9.907685924E0,5.192760193E-1,1.003447055E1
4.569337750E0,1.432880076E0,9.773140322E0,4.565564454E-1,9.888167720E0
4.579380625E0,1.510690290E0,9.415060344E0,5.443535578E-1,9.551013937E0
4.589422625E0,1.784394216E0,8.933984769E0,6.414723015E-1,9.132996950E0
4.599465625E0,2.032617145E0,8.439032582E0,7.074821037E-1,8.709152330E0
4.609507625E0,2.192076271E0,8.013345927E0,7.778679621E-1,8.344099106E0
4.619550625E0,2.347418226E0,7.749036577E0,8.488478976E-1,8.141159804E0
4.629592625E0,2.531488282E0,7.722470922E0,8.025607538E-1,8.166339071E0
4.639635625E0,2.621799113E0,8.023580893E0,6.502676833E-1,8.466081089E0
4.649677625E0,2.630272897E0,8.525509393E0,4.837851745E-1,8.935138165E0
4.659720625E0,2.653916114E0,8.953704504E0,3.152222264E-1,9.344060152E0
4.669762625E0,2.694691380E0,9.261289097E0,1.351829481E-1,9.646300420E0
4.679805625E0,2.766584943E0,9.460618924E0,-9.364900589E-2,9.857285266E0
4.689847625E0,2.807458735E0,9.671871225E0,-6.619223535E-1,1.009282214E1
4.699890625E0,2.746565246E0,1.026671432E1,-2.569121547E0,1.093386616E1
4.709932625E0,2.419826344E0,1.078574242E1,-4.450200058E0,1.191604295E1
4.719975625E0,2.104880691E0,1.086239474E1,-4.095530176E0,1.179811466E1
4.730017625E0,2.066572511E0,1.066093126E1,-3.012221210E0,1.126941231E1
4.740060625E0,2.120538949E0,1.047782219E1,-1.935389789E0,1.086403134E1
4.750102625E0,2.098979096E0,1.035377468E1,-1.145176016E0,1.062627835E1
4.760144625E0,1.961771549E0,1.030042469E1,-7.271597385E-1,1.051075914E1
4.770187625E0,1.746396962E0,1.032040813E1,-5.461907530E-1,1.048136683E1
4.780229625E0,1.405079489E0,1.030372018E1,-6.120889465E-1,1.041707976E1
4.790272625E0,8.634197438E-1,1.020076474E1,-9.177403772E-1,1.027829472E1
4.800314625E0,9.924362183E-2,9.943731669E0,-1.693953577E0,1.008747379E1
4.810357625E0,-9.275297856E-1,9.501810805E0,-3.315436764E0,1.010627731E1
4.820399625E0,-1.934966159E0,8.956131098E0,-5.210004802E0,1.054042354E1
4.830442625E0,-2.750541353E0,8.453295695E0,-6.692559314E0,1.112717556E1
4.840484625E0,-4.228060827E0,7.973845646E0,-1.081286999E1,1.408463241E1
4.850527625E0,-6.874667337E0,7.147569755E0,-1.894910919E1,2.138732202E1
4.860569625E0,-7.176974233E0,5.604357398E0,-1.366090021E1,1.641761175E1
4.870612625E0,-5.533504347E0,2.627860336E0,-4.572160113E0,7.643949790E0
4.880654625E0,1.880072790E-1,-1.761263216E-1,1.080626498E1,1.080933531E1
4.890697625E0,7.817888126E-1,-2.821445274E0,1.923017315E1,1.945176872E1
4.900739625E0,-2.561370770E0,-1.244529566E1,1.338959759E1,1.845880083E1
4.910782625E0,-2.583298940E1,-4.245184281E1,-1.432819733E1,5.171846419E1
4.920824625E0,-3.908209009E1,-6.809021816E1,-2.139337163E0,7.853829855E1
4.930867625E0,-2.158822892E1,-5.918686871E1,2.106733556E1,6.643018654E1
4.940909625E0,-6.123331701E0,-3.198847260E1,-4.850340228E0,3.292845837E1
4.950952625E0,3.583945000E0,-1.439582389E1,-1.867193012E1,2.384796388E1
4.960994625E0,6.991444420E0,-8.607991971E0,7.391102779E0,1.332689841E1
4.971037625E0,9.082895225E0,-5.980196539E0,1.500215793E1,1.852907118E1
4.981079625E0,6.359740477E0,-5.289318189E0,4.454259195E0,9.394871517E0
4.991122625E0,-6.619674355E0,-7.853429841E0,-1.174681505E-1,1.027181813E1
5.001164625E0,-1.048321567E1,-1.802589231E1,6.415725228E0,2.181724397E1
5.011207625E0,-1.750445282E0,-2.296652056E1,3.798147805E0,2.334418669E1
5.021249625E0,2.840570932E0,-2.009463721E1,-3.226891208E0,2.054935801E1
5.031292625E0,5.233088440E0,-1.567129107E1,-1.290616150E0,1.657227409E1
5.041334625E0,1.733867841E0,-4.165154142E0,-8.755585635E-1,4.595803468E0
5.051377625E0,-1.107143971E0,2.528754709E0,-3.053238258E0,4.116142856E0
5.061419625E0,-1.675850598E0,3.498845792E0,-6.898568416E-1,3.940342570E0
5.071462625E0,-6.371278203E-1,2.996268252E0,3.890608656E-1,3.087867169E0
5.081504625E0,7.328113648E-1,8.630180401E-1,1.273451064E0,1.703963100E0
5.091547625E0,1.636559355E0,-2.074860501E0,1.744940128E0,3.166731544E0
5.101589625E0,2.789079474E0,-4.577881613E0,1.499560554E0,5.566385383E0
5.111632625E0,3.516319319E0,-5.931015024E0,1.329509490E0,7.022039323E0
5.121674625E0,3.597749691E0,-5.859423469E0,1.307042148E0,6.998928876E0
5.131717625E0,3.390074717E0,-4.332607874E0,6.984311986E-1,5.545439903E0
5.141759625E0,2.534948372E0,-1.719488368E0,-2.980863762E-1,3.077573555E0
5.151802625E0,1.104166569E0,8.561048770E-1,-9.550754339E-1,1.692414978E0
5.161844625E0,-4.563450685E-1,3.269610381E0,-1.745409075E0,3.734307928E0
5.171887625E0,-1.892308674E0,5.678563827E0,-3.505284746E0,6.936421297E0
5.181929625E0,-3.119300978E0,7.922367929E0,-6.305911594E0,1.059520992E1
5.191972625E0,-3.638806793E0,9.046406261E0,-6.097775275E0,1.150048888E1
5.202014625E0,-3.666021781E0,8.784670270E0,-3.557006292E0,1.016181289E1
5.212057625E0,-2.346446272E0,8.209082640E0,-2.152626715E0,8.805035473E0
5.222099625E0,-1.983410779E0,8.566625844E0,-2.005121344E0,9.018952726E0
5.232142625E0,-1.785463672E0,8.165112748E0,-2.177724718E0,8.637096252E0
5.242184625E0,-1.894257989E0,7.426656189E0,-1.995245397E0,7.919876241E0
5.252227625E0,-2.251606773E0,6.568536361E0,-1.467727143E0,7.097156188E0
5.262269625E0,-2.688513504E0,5.518931331E0,-9.017225877E-1,6.204821635E0
5.272312625E0,-3.283064239E0,4.296347535E0,-7.203478785E-1,5.454907333E0
5.282354625E0,-3.984152412E0,2.708438476E0,-7.611917031E-1,4.877347869E0
5.292397625E0,-4.531809647E0,1.153412989E0,-7.114880311E-1,4.730103109E0
5.302439625E0,-4.942983513E0,-1.536086941E-1,-7.468999386E-1,5.001453904E0
5.312482625E0,-5.235156600E0,-1.280609225E0,-1.010997181E0,5.483515288E0
5.322524625E0,-5.160602846E0,-2.059571786E0,-1.197074221E0,5.683893416E0
5.332567625E0,-4.275891636E0,-2.207935528E0,-8.039249092E-1,4.878987993E0
5.342609625E0,-2.575362280E0,-1.612052797E0,-1.806059466E-1,3.043653003E0
5.352652625E0,-9.457396232E-1,-8.814040250E-1,-8.217326045E-2,1.295395281E0
5.362694625E0,2.024088250E-1,-5.575021917E-1,-3.790328908E-1,7.038778008E-1
5.372737625E0,1.034413233E0,-5.446704769E-1,-7.315334558E-1,1.379064126E0
5.382779625E0,1.707595278E0,-5.261587769E-1,-8.027776124E-1,1.958871253E0
5.392822625E0,2.197395629E0,-4.660879916E-1,-5.488383722E-1,2.312360077E0
5.402864625E0,2.635066153E0,-3.579127479E-1,-2.040332912E-1,2.667077942E0
5.412907625E0,2.734966124E0,-1.949485087E-1,4.135525131E-1,2.772917291E0
5.422949625E0,2.510713125E0,2.049279517E-1,1.144953822E0,2.767055315E0
5.432992625E0,2.263602629E0,7.075797522E-1,1.629500304E0,2.877470626E0
5.443034625E0,1.930005088E0,1.039826147E0,1.895154514E0,2.897890386E0
5.453077625E0,1.324631011E0,1.144490138E0,1.938007003E0,2.611584985E0
5.463119625E0,5.084262183E-1,1.046553369E0,1.749968734E0,2.101466569E0
5.473162625E0,-4.521238174E-1,8.058679390E-1,1.339949693E0,1.627668351E0
5.483204625E0,-1.543662593E0,5.857851738E-1,7.108267111E-1,1.797585348E0
5.493247625E0,-2.704029091E0,4.523189682E-1,-2.118621647E-1,2.749772964E0
5.503289625E0,-3.729005649E0,5.708467072E-1,-1.044558883E0,3.914390419E0
5.513332625E0,-4.246873074E0,9.610366702E-1,-1.468168607E0,4.595110603E0
5.523374625E0,-3.960758580E0,1.375304883E0,-1.112614042E0,4.337854545E0
5.533417625E0,-2.634224153E0,1.551137089E0,-5.591213222E-1,3.107696866E0
5.543459625E0,-8.651104662E-1,1.483505269E0,-5.740896461E-1,1.810740988E0
5.553502625E0,2.674905279E-1,1.434764634E0,-9.031399528E-1,1.716322380E0
5.563544625E0,4.721059459E-1,1.318431939E0,-1.479511621E0,2.037179776E0
5.573587625E0,-1.536282822E-1,1.203297924E0,-2.633762516E0,2.899695248E0
5.583630042E0,-1.097649263E0,1.097037644E0,-2.825707895E0,3.223809951E0
5.593673042E0,-1.528130634E0,9.900447071E-1,-1.267786866E0,2.218705770E0
5.603715042E0,-1.218858535E0,1.069342307E0,-6.773184378E-2,1.622866815E0
5.613758042E0,-9.340105471E-1,1.333023081E0,-4.696834810E-1,1.694086423E0
5.623800042E0,-1.231396719E0,1.612125303E0,-1.747114123E0,2.677254868E0
5.633843042E0,-1.835731015E0,1.697148496E0,-3.106782382E0,3.987771075E0
5.643885042E0,-2.036069487E0,1.574065776E0,-3.939306023E0,4.705464266E0
5.653928042E0,-1.225221475E0,1.388157647E0,-1.770638641E0,2.561895883E0
5.663970042E0,-1.072361809E-1,1.292459192E0,1.039641960E0,1.662168995E0
5.674013042E0,-5.070471525E-2,1.067177083E0,8.155789948E-1,1.344100811E0
5.684055042E0,-1.030049018E0,1.172713478E0,-3.268184610E-1,1.594700030E0
5.694098042E0,-1.649204251E0,1.440998350E0,-8.784926963E-1,2.359682251E0
5.704140042E0,-5.381110704E-1,1.210587063E0,1.761008277E0,2.203686619E0
5.714183042E0,1.308490503E0,8.031624323E-1,3.829074898E0,4.125412932E0
5.724225042E0,2.551392204E0,5.940870506E-1,1.384599617E0,2.963048717E0
5.734268042E0,3.704423370E0,5.286391658E-1,-5.256892455E-1,3.778698328E0
5.744310042E0,4.304683326E0,4.508752906E-1,1.424409653E0,4.556591920E0
5.754352042E0,2.947619417E0,3.029857582E-1,6.419728231E-1,3.031895398E0
5.764395042E0,4.428505719E-1,-2.215878385E-1,-1.882437404E0,1.946481025E0
5.774438042E0,-1.678472489E-1,-6.860631680E-1,-1.243531884E0,1.430114302E0
5.784480042E0,3.518135172E-1,-6.029736489E-1,3.260771437E-1,7.705039103E-1
5.794522042E0,3.697592068E-1,-2.077340305E-2,4.696460223E-1,5.980976438E-1
5.804565042E0,-2.282285213E-1,7.739251846E-1,4.448924196E-1,9.213998667E-1
5.814607042E0,-1.548520460E0,1.519536397E0,5.257769537E-1,2.232341345E0
5.824650042E0,-1.983061554E0,2.051010293E0,1.151017385E0,3.076364310E0
5.834692042E0,-9.879169053E-1,2.457309920E0,8.000126834E-1,2.766653601E0
5.844735042E0,-9.370741957E-1,2.620563011E0,1.615458215E0,3.217944031E0
5.854777042E0,-1.655260212E0,2.809205298E0,1.987337623E0,3.818511700E0
5.864820042E0,-2.097837719E0,2.999500592E0,1.659793120E0,4.019059604E0
5.874862042E0,-1.547096078E0,2.327769535E0,2.409342871E0,3.690115222E0
5.884905042E0,-1.695373866E0,3.730435878E-1,2.791151142E0,3.286940639E0
5.894947042E0,-2.906819885E0,-1.128211489E0,2.037792369E0,3.724924261E0
5.904990042E0,-3.101641510E0,-1.511663121E0,1.023669998E0,3.599056225E0
5.915032042E0,-2.523247216E0,-2.050461239E0,3.577070720E-1,3.270951262E0
5.925075042E0,-1.489325003E0,-3.328171999E0,-8.264267492E-1,3.738689476E0
5.935117042E0,-1.492729252E0,-4.239949386E0,-1.579309413E0,4.764412832E0
5.945160042E0,-1.581812752E0,-3.781588490E0,-1.322919531E0,4.307279788E0
5.955202042E0,-1.675148347E0,-2.869518158E0,-1.637586565E0,3.704314538E0
5.965245042E0,-1.441980098E0,-2.110040858E0,-2.717713330E0,3.730622571E0
5.975287042E0,-1.245096161E0,-1.997352149E0,-3.559053987E0,4.266912858E0
5.985330042E0,-1.147852871E0,-2.496273426E0,-3.523666638E0,4.468240572E0
5.995372042E0,-1.170512002E0,-3.316707948E0,-2.889552473E0,4.551940625E0
6.005415042E0,-1.518375140E0,-4.256917421E0,-1.917112563E0,4.909391976E0
6.015457042E0,-2.327856658E0,-5.321287841E0,-1.256621608E0,5.942568365E0
6.025500042E0,-2.981644950E0,-6.670284930E0,-2.661534159E-1,7.311206829E0
6.035542042E0,-3.806018157E0,-8.098509454E0,-6.210725355E-1,8.969802711E0
6.045585042E0,-4.042481897E0,-1.009918925E1,1.366622206E-1,1.087906062E1
6.055627042E0,-3.684208376E0,-1.236789021E1,6.385334909E-1,1.292075171E1
6.065670042E0,-3.974676415E0,-1.486720770E1,4.341276956E-1,1.539546636E1
6.075712042E0,-4.497036840E0,-1.715684170E1,1.721806204E0,1.781979725E1
6.085755042E0,-4.604109884E0,-1.875880103E1,1.764293243E0,1.939595768E1
6.095797042E0,-5.000130106E0,-1.983153589E1,1.932275562E0,2.054324234E1
6.105840042E0,-5.027314396E0,-2.032445617E1,3.140456496E0,2.117120392E1
6.115882042E0,-4.668648819E0,-1.989656862E1,3.786607740E0,2.078480510E1
6.125925042E0,-4.439293539E0,-1.862515122E1,4.024626839E0,1.956530619E1
6.135967042E0,-4.806812678E0,-1.715626750E1,4.234332551E0,1.831317926E1
6.146010042E0,-5.282049515E0,-1.554886207E1,4.761827416E0,1.709801623E1
6.156052042E0,-5.350476556E0,-1.214014584E1,5.190732379E0,1.424620803E1
6.166095042E0,-5.152764069E0,-8.559729053E0,5.643085846E0,1.147450900E1
6.176137042E0,-4.912689673E0,-6.085034777E0,5.507742099E0,9.565426864E0
6.186180042E0,-3.704799346E0,-2.610042701E0,2.801377630E0,5.327811720E0
6.196222042E0,-2.814605494E0,8.250479758E-1,-1.485544778E0,3.287788244E0
6.206265042E0,-2.089997188E0,3.589727896E0,-4.195207077E0,5.903727384E0
6.216307042E0,-2.528205070E0,5.892084846E0,-9.201658022E0,1.121512350E1
6.226350042E0,-1.099626674E1,1.108452461E1,-3.799721875E1,4.108008278E1
6.236392042E0,-1.294873040E1,1.160931222E1,-2.719657412E1,3.228156429E1
6.246435042E0,-7.521369388E0,1.127192320E1,-9.194333800E0,1.637568393E1
6.256477042E0,-3.478513269E0,1.209225481E1,-6.177938555E-1,1.259779148E1
6.266520042E0,-1.192050513E0,1.149075875E1,3.831948220E0,1.217137413E1
6.276562042E0,4.490837038E-2,9.543086300E0,2.665188961E0,9.908367428E0
6.286605042E0,6.532612384E-1,8.139266886E0,1.223951313E0,8.256662310E0
6.296647042E0,1.155209253E0,7.690510626E0,5.460714698E-2,7.776981680E0
6.306690042E0,1.690049830E0,7.653820517E0,-1.098698984E0,7.914820048E0
6.316732042E0,1.934162459E0,7.973215317E0,-1.454265683E0,8.332348743E0
6.326775042E0,1.750437096E0,8.456275436E0,-1.074425291E0,8.702126981E0
6.336817042E0,1.462886525E0,8.887435670E0,-5.195122468E-1,9.021997714E0
6.346860042E0,1.162076516E0,9.090219448E0,1.903853416E-1,9.166174666E0
6.356902042E0,7.714054001E-1,9.158233675E0,8.292508813E-1,9.227999099E0
6.366945042E0,5.161299980E-1,9.286661920E0,1.132520814E0,9.369689599E0
6.376987042E0,5.309020382E-1,9.391529979E0,8.667848164E-1,9.446375402E0
6.387030042E0,6.031670456E-1,9.364032277E0,4.807324163E-1,9.395744496E0
6.397072042E0,6.677375557E-1,9.389292249E0,1.296077011E-1,9.413898265E0
6.407114042E0,7.815696882E-1,9.531466713E0,-1.361324628E-1,9.564425802E0
6.417157042E0,8.718278206E-1,9.549632258E0,-3.426352159E-1,9.595465538E0
6.427199042E0,9.754756384E-1,9.456248131E0,-4.969408981E-1,9.519408159E0
6.437242042E0,1.025668576E0,9.297483947E0,-6.661680168E-1,9.377578770E0
6.447284042E0,1.082270793E0,9.047309071E0,-8.162783217E-1,9.148301580E0
6.457327042E0,1.172164717E0,8.797646411E0,-9.141993034E-1,8.922349066E0
6.467369042E0,1.315679070E0,8.601251301E0,-9.243478040E-1,8.750254523E0
6.477412042E0,1.465388402E0,8.516639167E0,-8.342515663E-1,8.681963001E0
6.487454042E0,1.647812760E0,8.586019889E0,-6.541415367E-1,8.767150368E0
6.497497042E0,1.805745762E0,8.813969498E0,-4.328045437E-1,9.007446689E0
6.507539042E0,2.004838339E0,9.169425246E0,-2.266638064E-1,9.388775884E0
6.517582042E0,2.185164131E0,9.529853466E0,-8.563422740E-2,9.777544814E0
6.527624042E0,2.220299757E0,9.789880900E0,-4.851083994E-2,1.003861805E1
6.537667042E0,2.231776234E0,9.936540763E0,-1.391035793E-1,1.018503890E1
6.547709042E0,2.174433759E0,1.004172282E1,-2.499082794E-1,1.027749062E1
6.557752042E0,2.102263331E0,1.011264019E1,-3.471913298E-1,1.033467680E1
6.567794042E0,1.979306180E0,1.016041428E1,-4.625668714E-1,1.036173921E1
6.577837042E0,1.913196975E0,1.026161906E1,-6.025591544E-1,1.045582258E1
6.587878375E0,1.823886603E0,1.032257628E1,-7.168499279E-1,1.050695090E1
6.597921375E0,1.710287189E0,1.039588399E1,-8.602534765E-1,1.057069167E1
6.607963375E0,1.602773558E0,1.048767358E1,-1.055213680E0,1.066178485E1
6.618006375E0,1.450480341E0,1.057941172E1,-1.577329107E0,1.079424905E1
6.628048375E0,1.152620545E0,1.066992194E1,-2.579111515E0,1.103755338E1
6.638091375E0,6.041140021E-1,1.062892828E1,-3.425800620E0,1.118370153E1
6.648133375E0,4.859489366E-2,1.030669056E1,-3.174339942E0,1.078455683E1
6.658176375E0,-2.291130589E-1,9.855844510E0,-2.375055968E0,1.014056481E1
6.668218375E0,-4.974585959E-1,9.498532271E0,-1.938290008E0,9.707036031E0
6.678261375E0,-1.116758402E0,9.137371979E0,-2.496647648E0,9.537922494E0
6.688303375E0,-3.262161028E0,8.487339939E0,-8.366735269E0,1.235633007E1
6.698346375E0,-8.802846340E0,6.224143546E0,-2.166558525E1,2.419974485E1
6.708388375E0,-9.770272263E0,8.869144410E-1,-1.328928861E1,1.651817269E1
6.718431375E0,-3.244511207E0,-7.297238011E0,3.157214617E0,8.587464102E0
6.728473375E0,-2.863796657E-1,-8.336901020E0,9.107869268E0,1.235067668E1
6.738516375E0,-1.691492484E0,-1.612474498E1,6.887763931E0,1.761561352E1
6.748558375E0,-2.720248682E0,-3.906087406E1,5.353387885E0,3.951974692E1
6.758601375E0,-5.758666003E0,-6.752617235E1,5.542703771E0,6.799755695E1
6.768643375E0,-6.603579310E0,-5.881382571E1,2.044032693E1,6.261373906E1
6.778686375E0,-9.193329248E0,-2.739614193E1,1.988835679E1,3.508008881E1
6.788728375E0,-1.355640229E1,-1.322356240E1,-1.348814189E1,2.325013155E1
6.798771375E0,-1.103927886E1,-9.540607665E0,-7.272149363E0,1.630254669E1
6.808813375E0,-1.065829592E0,-1.113802897E1,4.881618154E0,1.220745174E1
6.818856375E0,3.484440592E0,-1.305341076E1,4.487498862E0,1.423623914E1
6.828898375E0,3.651363981E0,-1.188616151E1,7.929458263E0,1.474752870E1
6.838941375E0,2.972897515E0,-9.467343807E0,8.589673229E0,1.312445064E1
6.848983375E0,1.947041244E0,-7.305139938E0,7.149636161E0,1.040544744E1
6.859026375E0,1.249233651E0,-5.917914922E0,4.591699169E0,7.593813468E0
6.869068375E0,1.475938680E0,-5.503923867E0,1.506666675E0,5.894202015E0
6.879110375E0,2.362769213E0,-5.565572231E0,2.045446082E0,6.382955608E0
6.889153375E0,3.571343665E0,-4.522275177E0,8.335520200E-1,5.822394466E0
6.899195375E0,5.326822230E0,-5.181078041E0,-9.417833678E0,1.199642430E1
6.909238375E0,4.931199034E0,-1.377016947E0,-7.034193413E0,8.700159571E0
6.919280375E0,3.211301946E0,9.774270004E-1,-2.260970797E0,4.047198126E0
6.929323375E0,1.949523094E0,1.924092384E0,-1.072566462E0,2.941627205E0
6.939365375E0,7.090272304E-1,3.136005011E0,-1.001059692E0,3.367397742E0
6.949408375E0,-5.528843531E-1,4.473136931E0,-1.106621669E0,4.641039391E0
6.959450375E0,-1.767705093E0,5.760851108E0,-1.730839129E0,6.269608510E0
6.969493375E0,-3.134836153E0,6.724349456E0,-3.122383922E0,8.049431947E0
6.979535375E0,-4.400285594E0,7.214271283E0,-3.630616890E0,9.197260595E0
6.989578375E0,-5.040300477E0,7.299030767E0,-2.687206652E0,9.268309373E0
6.999620375E0,-5.256687802E0,7.038092921E0,-1.574608397E0,8.924511764E0
7.009663375E0,-5.561407260E0,6.564286020E0,-9.909592116E-1,8.660317652E0
7.019705375E0,-6.004270695E0,5.851832614E0,-1.141546065E0,8.461580168E0
7.029748375E0,-6.347682348E0,5.102890828E0,-1.628961629E0,8.305786055E0
7.039790375E0,-5.916171282E0,4.307513963E0,-1.935646628E0,7.569840622E0
7.049833375E0,-4.689935315E0,3.548920178E0,-1.597379794E0,6.094419570E0
7.059875375E0,-3.311608592E0,2.745848377E0,-1.227755073E0,4.473680509E0
7.069918375E0,-2.086287568E0,1.727409591E0,-9.196717125E-1,2.860478242E0
7.079960375E0,-1.200415101E0,5.913347661E-1,-5.565278994E-1,1.449274482E0
7.090003375E0,-5.921907985E-1,-4.352667332E-1,-4.315724623E-1,8.522921219E-1
7.100045375E0,-1.511177802E-1,-1.312993444E0,-6.134127561E-1,1.457073635E0
7.110088375E0,1.817183062E-1,-2.065545886E0,-8.981469423E-1,2.259683447E0
7.120130375E0,4.147381823E-1,-2.335712392E0,-1.186296560E0,2.652330988E0
7.130173375E0,3.780087510E-1,-1.737893649E0,-6.655024575E-1,1.898962472E0
7.140215375E0,3.450583751E-1,-1.063010942E0,1.293298852E-1,1.125070559E0
7.150258375E0,6.119864009E-1,-7.114494395E-1,3.154998960E-1,9.900645657E-1
7.160300375E0,9.686159773E-1,-3.917231029E-1,3.188315664E-1,1.092390712E0
7.170343375E0,1.186509691E0,-2.069411480E-1,5.647755432E-1,1.330263621E0
7.180385375E0,1.462449007E0,-1.478550339E-1,9.081743324E-1,1.727830671E0
7.190428375E0,1.810218444E0,-2.834122038E-1,1.140887083E0,2.158433837E0
7.200470375E0,2.067206934E0,-5.501861554E-1,1.347000850E0,2.527936036E0
7.210513375E0,2.278953616E0,-8.104603422E-1,1.520131643E0,2.856794666E0
7.220555375E0,2.419096173E0,-9.021329892E-1,1.508510887E0,2.990229978E0
7.230598375E0,2.372214367E0,-7.198799551E-1,1.369049531E0,2.831947170E0
7.240640375E0,2.212066878E0,-4.725251913E-1,1.218513037E0,2.569298338E0
7.250683375E0,1.901948686E0,-2.044262606E-1,1.160095260E0,2.237190182E0
7.260725375E0,1.426046435E0,1.299906206E-1,1.145337984E0,1.833658936E0
7.270768375E0,8.490396863E-1,4.811954427E-1,1.003662288E0,1.399912651E0
7.280810375E0,3.939486994E-1,7.900623304E-1,8.046740106E-1,1.194526821E0
7.290853375E0,5.740401641E-2,9.666394722E-1,4.383248270E-1,1.062927911E0
7.300895375E0,-3.297604510E-1,9.369280154E-1,-8.437707603E-2,9.968427920E-1
7.310938375E0,-9.106191994E-1,8.932487297E-1,-6.648266655E-1,1.438441905E0
7.320980375E0,-1.682254907E0,9.705740637E-1,-1.535416850E0,2.475782803E0
7.331023375E0,-2.548463919E0,1.044588704E0,-2.713516783E0,3.866394604E0
7.341065375E0,-2.698543233E0,9.787765378E-1,-2.991076509E0,4.145681823E0
7.351107375E0,-1.669121329E0,7.542434567E-1,-1.403489047E0,2.307516134E0
7.361150375E0,-4.584081124E-1,3.855618918E-1,1.522508975E-1,6.180423171E-1
7.371192375E0,1.046052262E-2,-1.207186908E-1,8.523426323E-1,8.609125319E-1
7.381235375E0,-2.450723031E-1,-5.719915920E-1,1.084444349E0,1.250301708E0
7.391277375E0,-6.844187848E-1,-9.293833530E-1,1.159260204E0,1.635868794E0
7.401320375E0,-1.167062437E0,-1.103053844E0,1.026861116E0,1.906097129E0
7.411362375E0,-1.669409743E0,-1.041773270E0,4.885372066E-1,2.027532747E0
7.421405375E0,-1.829264433E0,-6.137711173E-1,-2.294283700E-1,1.943080217E0
7.431447375E0,-1.254364144E0,1.091622537E-1,-5.616848512E-1,1.378707973E0
7.441490375E0,-2.713261552E-1,8.324552286E-1,-5.806600893E-1,1.050602555E0
7.451532375E0,3.660058790E-1,1.294393451E0,-9.004437286E-1,1.618707391E0
7.461575375E0,4.716529329E-1,1.581146169E0,-1.346193350E0,2.129487317E0
7.471617375E0,-1.780301750E-2,1.733940931E0,-1.607124764E0,2.364258468E0
7.481660375E0,-7.143495123E-1,1.807288404E0,-1.264544000E0,2.318546555E0
7.491702375E0,-8.282086882E-1,1.870566387E0,-2.376133025E-1,2.059467971E0
7.501745375E0,-5.677621548E-1,1.859146190E0,4.599021491E-1,1.997570627E0
7.511787375E0,-7.081479554E-1,1.761445064E0,3.622695082E-1,1.932718665E0
7.521830375E0,-1.334322187E0,1.620506701E0,2.979727940E-1,2.120199390E0
7.531872375E0,-2.109147696E0,1.511313457E0,3.898636153E-1,2.623845653E0
7.541915375E0,-2.596099430E0,1.381591809E0,1.572363067E-1,2.945038444E0
7.551957375E0,-2.742598203E0,1.140587121E0,6.772362113E-2,2.971089088E0
7.562000375E0,-3.072290826E0,8.447928536E-1,-2.880630791E-1,3.199316524E0
7.572042375E0,-3.436551019E0,7.485377437E-1,-6.593764758E-1,3.578403135E0
7.582085250E0,-3.116494899E0,7.735878003E-1,-9.236314470E-1,3.341268261E0
7.592127250E0,-1.717630708E0,7.596392673E-1,-1.926262432E0,2.690314855E0
7.602170250E0,-8.347321343E-1,7.576857126E-1,-3.322707776E0,3.508739424E0
7.612212250E0,-7.227336887E-1,8.182856709E-1,-3.391655220E0,3.563040914E0
7.622255250E0,-1.040031969E0,7.741848010E-1,-3.099340045E0,3.359603744E0
7.632297250E0,-2.158360202E0,7.197501469E-1,-2.499956587E0,3.380287262E0
7.642340250E0,-1.809128231E0,9.887203127E-1,4.598296436E-1,2.112334280E0
7.652382250E0,1.307870114E0,1.576649660E0,1.621539904E0,2.612611729E0
7.662425250E0,2.990712227E0,2.098489684E0,-2.050584908E-1,3.659244125E0
7.672467250E0,2.869681880E0,2.331412935E0,8.107187891E-1,3.785211397E0
7.682510250E0,2.090746216E0,2.041018571E0,1.057287102E0,3.107222645E0
7.692552250E0,2.044917494E-1,1.403684928E0,-1.075877301E0,1.780353960E0
7.702595250E0,-1.461662410E0,5.808331668E-1,-2.231277612E0,2.729912811E0
7.712637250E0,-1.146518537E0,-4.363280028E-1,-3.938597486E-1,1.288414678E0
7.722680250E0,1.432918668E-1,-1.122243821E0,2.497596505E-1,1.158595545E0
7.732722250E0,4.231957412E-1,-1.134330016E0,8.291989142E-1,1.467436561E0
7.742765250E0,-6.690717441E-1,-6.923916095E-1,1.890942764E0,2.121963166E0
7.752807250E0,-1.030572928E0,-1.337223136E-1,3.167534952E0,3.333652635E0
7.762849250E0,-1.715760768E0,3.504470229E-1,1.972693856E0,2.637834183E0
7.772892250E0,-1.944200959E0,5.643311548E-1,1.359914426E0,2.438801810E0
7.782935250E0,-1.508796231E0,4.711201054E-1,1.796894978E0,2.393167730E0
7.792977250E0,-1.195520543E0,6.388773072E-1,2.752575599E0,3.068241518E0
7.803019250E0,-1.352136460E0,1.252961251E0,4.107767229E0,4.502436730E0
7.813062250E0,-2.332215757E0,2.373510548E0,2.461142185E0,4.138840842E0
7.823104250E0,-2.770213140E0,3.153758912E0,1.625982619E0,4.501565905E0
7.833147250E0,-2.323395817E0,2.834281082E0,5.320241189E-1,3.703291379E0
7.843189250E0,-1.479564831E0,1.750365175E0,-1.003506167E0,2.501982206E0
7.853232250E0,-1.990175861E-1,1.083387319E0,-1.314145346E0,1.714734403E0
7.863274250E0,5.019875568E-1,1.041946932E0,-2.282661774E0,2.558943081E0
7.873317250E0,1.236328261E0,8.864723915E-1,-2.795257934E0,3.182421686E0
7.883359250E0,1.646591715E0,4.292142802E-1,-3.037899258E0,3.481999580E0
7.893402250E0,1.024841487E0,-2.663254702E-1,-3.690484777E0,3.839388912E0
7.903444250E0,3.401009595E-1,-1.230735399E0,-2.610007617E0,2.905601151E0
7.913487250E0,1.924938476E-1,-1.866176882E0,-1.787000320E0,2.590953527E0
7.923529250E0,-6.529930705E-1,-1.982018995E0,-2.538002665E0,3.285765782E0
7.933572250E0,-5.857097447E-1,-1.622798225E0,-1.726179922E0,2.440538282E0
7.943614250E0,-7.752870011E-1,-1.092555168E0,-1.454970272E0,1.977798074E0
7.953657250E0,-1.659630421E0,-7.040907186E-1,-5.730189478E-1,1.891683798E0
7.963699250E0,-2.645785561E0,-6.041635573E-1,1.210782945E-1,2.716588815E0
7.973742250E0,-2.817697209E0,-1.009501902E0,1.358560796E0,3.286974154E0
7.983784250E0,-2.545895821E0,-1.899731129E0,1.204368550E0,3.397214668E0
7.993827250E0,-2.253623917E0,-3.235066200E0,1.496986025E0,4.217278890E0
8.003869250E0,-1.813591703E0,-5.276287084E0,2.037106199E0,5.939538865E0
8.013912250E0,-1.938361929E0,-8.414034566E0,2.168878466E0,8.902654573E0
8.023954250E0,-2.331991809E0,-1.319966834E1,2.271102414E0,1.359512178E1
8.033997250E0,-2.548338788E0,-1.912924787E1,2.869127564E0,1.951035744E1
8.044039250E0,-4.405622056E0,-2.490678576E1,3.559339331E0,2.554263845E1
8.054082250E0,-7.123827721E0,-2.941816056E1,4.272609009E0,3.056848507E1
8.064124250E0,-7.526520785E0,-3.018238697E1,4.150628489E0,3.138236312E1
8.074167250E0,-5.375605550E0,-2.705946861E1,4.056849675E0,2.788494227E1
8.084209250E0,-3.031888905E0,-2.347433955E1,4.205974724E0,2.404011628E1
8.094252250E0,-1.926255561E0,-2.045666873E1,4.152158121E0,2.096249444E1
8.104294250E0,-2.075944574E0,-1.779273341E1,4.431436343E0,1.845341530E1
8.114337250E0,-2.714347088E0,-1.492261241E1,4.858871316E0,1.592672822E1
8.124379250E0,-2.688260320E0,-1.236255755E1,5.365438997E0,1.374217990E1
8.134422250E0,-3.125822670E0,-9.372038285E0,5.930025090E0,1.152263280E1
8.144464250E0,-3.521972115E0,-5.018197417E0,6.535078593E0,8.960683295E0
8.154507250E0,-2.175547215E0,-9.294956195E-1,4.695960286E0,5.258232669E0
8.164549250E0,-9.698101249E-1,1.864366000E0,1.747638618E0,2.733245873E0
8.174591250E0,-1.191373113E0,3.927426234E0,-9.150623524E-1,4.204923998E0
8.184634250E0,-3.417176562E0,5.800593463E0,-9.446501992E0,1.160001638E1
8.194676250E0,-1.922713961E1,1.029345247E1,-5.523665822E1,5.938624817E1
8.204719250E0,-1.351345799E1,8.843688557E0,-1.836705395E1,2.445757644E1
8.214761250E0,-1.070313412E1,8.729895893E0,-6.561444858E0,1.529119750E1
8.224804250E0,-9.115822066E0,9.258681824E0,-2.908656496E0,1.331471681E1
8.234846250E0,-4.354460088E0,9.673668659E0,-5.237982559E-1,1.062146659E1
8.244889250E0,-1.601662003E0,1.078326437E1,-3.696988343E-1,1.090783154E1
8.254931250E0,2.989753722E-1,1.098181710E1,1.239957189E0,1.105564050E1
8.264974250E0,1.298587367E0,1.070549991E1,2.586453863E0,1.108980618E1
8.275016250E0,1.338896610E0,1.066540087E1,1.903366928E0,1.091632839E1
8.285059250E0,1.391755731E0,1.035759759E1,1.417476317E0,1.054637620E1
8.295101250E0,1.743377460E0,1.006126655E1,1.311236356E0,1.029503717E1
8.305144250E0,2.143301575E0,9.850971440E0,1.380039373E0,1.017545520E1
8.315186250E0,2.398630041E0,9.466974263E0,1.464549766E0,9.875319427E0
8.325229250E0,2.388844725E0,8.998177841E0,1.855412743E0,9.492962658E0
8.335271250E0,2.332668624E0,8.727407902E0,2.517735046E0,9.378058507E0
8.345314250E0,2.284869683E0,8.517292301E0,3.123667971E0,9.355329989E0
8.355356250E0,2.480411099E0,8.391313455E0,3.766509690E0,9.526446135E0
8.365399250E0,2.893224817E0,8.357586715E0,4.195983002E0,9.789089789E0
8.375441250E0,3.120034219E0,8.414327511E0,4.441079571E0,1.001292708E1
8.385484250E0,3.036968381E0,8.505860410E0,4.263737029E0,9.987606906E0
8.395526250E0,3.061070896E0,8.469875475E0,3.992433239E0,9.851318123E0
8.405569250E0,2.891298159E0,8.256256222E0,3.778005316E0,9.528834977E0
8.415611250E0,2.687708343E0,8.130510095E0,3.536113021E0,9.264613637E0
8.425654250E0,2.668894634E0,8.151485812E0,2.894192823E0,9.052406951E0
8.435696250E0,2.607345380E0,8.386281926E0,2.086991719E0,9.026821639E0
8.445739250E0,2.561169918E0,8.712013353E0,1.217334166E0,9.161914128E0
8.455781250E0,2.335760924E0,8.999989309E0,5.700918317E-1,9.315610090E0
8.465824250E0,2.060927463E0,9.445603859E0,1.863004951E-1,9.669620579E0
8.475866250E0,1.882923308E0,9.890216782E0,9.629194736E-3,1.006786377E1
8.485909250E0,1.683588510E0,1.011626195E1,-9.616679868E-2,1.025585073E1
8.495951250E0,1.536441867E0,1.021389759E1,-1.825056156E-1,1.033042428E1
8.505993250E0,1.380697477E0,1.028479976E1,-1.711900838E-1,1.037847473E1
8.516036250E0,1.193510928E0,1.035702807E1,-1.148579900E-1,1.042620215E1
8.526078250E0,9.305738461E-1,1.038138991E1,-6.406907480E-2,1.042321107E1
8.536121250E0,6.995947945E-1,1.037994097E1,-6.496603768E-2,1.040369300E1
8.546163250E0,5.460767323E-1,1.034463549E1,-4.221338868E-2,1.035912473E1
8.556206250E0,4.379553195E-1,1.030611052E1,1.284169156E-2,1.031541971E1
8.566248250E0,3.724242946E-1,1.024774244E1,7.811755858E-2,1.025480509E1
8.576291250E0,3.426238138E-1,1.017521709E1,1.477767177E-1,1.018205637E1
8.586333500E0,3.473953611E-1,1.013637521E1,2.323636723E-1,1.014498786E1
8.596376500E0,3.196544158E-1,1.006899189E1,3.202824068E-1,1.007915460E1
8.606418500E0,3.167770010E-1,1.001576118E1,3.753304338E-1,1.002779600E1
8.616461500E0,3.302024274E-1,9.984003782E0,4.105656823E-1,9.997896246E0
8.626503500E0,2.949032251E-1,9.962869606E0,3.514445945E-1,9.973427295E0
8.636546500E0,1.366178548E-1,9.958926244E0,3.017514110E-2,9.959908981E0
8.646588500E0,-3.198923975E-1,9.964626110E0,-1.236283822E0,1.004611877E1
8.656631500E0,-1.951852333E0,9.747500866E0,-7.301463794E0,1.233429666E1
8.666673500E0,-7.994353586E0,8.658716567E0,-2.975692718E1,3.200558978E1
8.676716500E0,-6.631145423E0,6.656516492E0,-2.441251360E1,2.615821328E1
8.686758500E0,-4.201311862E0,3.421829191E0,-1.485162019E1,1.580919222E1
8.696801500E0,-1.561035694E0,-2.437673215E0,-4.794036219E0,5.600166642E0
8.706843500E0,-4.900321935E-1,-3.810922801E-1,1.312451875E1,1.313919158E1
8.716886500E0,-1.560367942E0,-2.569796315E0,1.494696723E1,1.524632515E1
8.726928500E0,6.269875789E-1,-1.502275767E1,1.197015442E1,1.921876579E1
8.736971500E0,-9.823272595E-1,-4.095906269E1,1.732909131E1,4.448490968E1
8.747013500E0,-2.427115600E1,-7.061839984E1,2.383355739E1,7.838421951E1
8.757056500E0,-3.494724090E1,-6.659252638E1,1.413065032E1,7.652156228E1
8.767098500E0,-1.040343509E1,-3.254273017E1,4.185697750E0,3.442064517E1
8.777141500E0,-4.210734943E0,-1.581080564E1,-2.293165478E1,2.817042163E1
8.787183500E0,2.229970175E0,-9.011455699E0,-2.989688848E1,3.130500026E1
8.797226500E0,3.413395460E0,-6.411274327E0,-7.940291984E0,1.076122409E1
8.807268500E0,3.264915359E0,-5.670609275E0,9.988079292E0,1.194056991E1
8.817311500E0,3.583270231E0,-4.889026576E0,6.406301855E0,8.819473333E0
8.827353500E0,1.279773073E0,-3.875640954E0,5.937430881E-2,4.081903628E0
8.837396500E0,1.468054879E0,-7.269843805E0,5.464038840E0,9.212032052E0
8.847438500E0,2.641765307E0,-8.487496644E0,8.576042200E0,1.235172146E1
8.857481500E0,3.885292953E0,-7.403542145E0,-5.134863403E0,9.811970230E0
8.867523500E0,3.246418569E0,-7.192803816E0,-6.726222319E0,1.036907551E1
8.877565500E0,9.161607519E-1,-4.662082103E0,1.861670433E0,5.102957659E0
8.887608500E0,5.110258904E-1,-1.832558316E0,2.153868663E0,2.873772375E0
8.897650500E0,1.558566561E-1,4.504998994E-1,3.454662915E-1,5.887176022E-1
8.907693500E0,-6.972915763E-1,1.575599501E0,-1.545949147E0,2.314884035E0
8.917735500E0,-1.265559954E0,2.308019979E0,-2.154054751E0,3.401257134E0
8.927778500E0,-1.120331489E0,2.753383684E0,-1.800923710E0,3.475570538E0
8.937820500E0,-7.390110214E-1,3.005958257E0,-1.228791200E0,3.330442936E0
8.947863500E0,-3.393580708E-1,3.356021118E0,-9.134988800E-1,3.494641877E0
8.957905500E0,5.034218788E-2,3.619445200E0,-9.834576724E-1,3.751014114E0
8.967948500E0,2.092436354E-1,3.709027467E0,-1.243543725E0,3.917533490E0
8.977990500E0,-4.415217921E-2,3.819125276E0,-1.356956320E0,4.053270006E0
8.988033500E0,-6.619993906E-1,3.948324768E0,-1.190235245E0,4.176622033E0
8.998075500E0,-1.399459292E0,3.942223783E0,-8.677508495E-1,4.272306895E0
9.008118500E0,-2.024936389E0,3.840721382E0,-6.748154640E-1,4.393959948E0
9.018160500E0,-2.477731905E0,3.626426775E0,-6.133033401E-1,4.434666564E0
9.028203500E0,-2.846850549E0,3.331265761E0,-7.507445560E-1,4.445841541E0
9.038245500E0,-3.006061753E0,2.993022462E0,-1.054480000E0,4.371100410E0
9.048288500E0,-2.978345951E0,2.565127314E0,-9.002051622E-1,4.032467244E0
9.058330500E0,-2.866982220E0,2.102573379E0,-2.694758038E-1,3.565532089E0
9.068373500E0,-2.632852689E0,1.657092730E0,3.451129004E-2,3.111118871E0
9.078415500E0,-2.215810704E0,1.260331081E0,-3.340170778E-2,2.549385648E0
9.088458500E0,-1.057280817E0,7.854985785E-1,-3.840864931E-1,1.371996055E0
9.098500500E0,3.518281353E-1,3.093791038E-1,-6.083443165E-1,7.678419590E-1
9.108543500E0,7.476195846E-1,-5.141222835E-2,-2.856919601E-1,8.019963570E-1
9.118585500E0,4.928963059E-1,-2.315930092E-1,3.434408891E-1,6.438429425E-1
9.128628500E0,5.019054034E-1,-4.513804901E-1,4.683847779E-1,8.216067679E-1
9.138670500E0,7.674704432E-1,-6.474119031E-1,2.865375406E-1,1.044153636E0
9.148713500E0,8.861367613E-1,-7.695660853E-1,2.427875767E-1,1.198505789E0
9.158755500E0,8.405754031E-1,-9.261732316E-1,3.446261197E-1,1.297355397E0
9.168798500E0,5.985921840E-1,-8.853011942E-1,6.825430711E-1,1.268044105E0
9.178840500E0,7.590577617E-2,-5.423017699E-1,9.286184641E-1,1.078046914E0
9.188882500E0,-3.365195400E-1,-2.224514723E-2,8.890638775E-1,9.508810786E-1
9.198925500E0,-6.231177454E-1,5.805753046E-1,6.702224761E-1,1.083762694E0
9.208967500E0,-9.792817372E-1,1.077017947E0,4.366781779E-1,1.519752680E0
9.219010500E0,-1.489656979E0,1.485160031E0,-3.096334577E-2,2.103743559E0
9.229052500E0,-2.124403959E0,1.725127423E0,-1.027859308E0,2.923294642E0
9.239095500E0,-2.383499493E0,1.847962221E0,-1.008870476E0,3.180228583E0
9.249137500E0,-2.115762505E0,1.954909549E0,-5.236433778E-1,2.927853260E0
9.259180500E0,-2.003150979E0,1.971467695E0,-6.646402124E-1,2.888086794E0
9.269222500E0,-2.272150965E0,1.914440970E0,-1.117451516E0,3.174342787E0
9.279265500E0,-2.645544363E0,1.836057290E0,-1.545199242E0,3.571785554E0
9.289307500E0,-2.585322135E0,1.794505806E0,-9.046420294E-1,3.274525741E0
9.299350500E0,-1.869415947E0,1.723979030E0,4.571668947E-1,2.583761067E0
9.309392500E0,-1.064456958E0,1.602839339E0,3.718794072E-1,1.959708360E0
9.319435500E0,-3.061757067E-1,1.731741208E0,5.003251934E-1,1.828386304E0
9.329477500E0,1.512394023E-1,2.047790816E0,-4.370086187E-1,2.099356357E0
9.339520500E0,1.746914148E-2,2.143754150E0,-2.000914273E0,2.932515124E0
9.349562500E0,-3.183955103E-2,1.984725671E0,-1.940931196E0,2.776213906E0
9.359605500E0,7.498703241E-2,1.790685235E0,-2.150742157E0,2.799619348E0
9.369647500E0,6.169794846E-1,1.600277674E0,-9.234847549E-1,1.947915915E0
9.379690500E0,8.758415687E-1,1.458658696E0,-4.783905333E-1,1.767382569E0
9.389732500E0,-2.540124035E-1,1.111498393E0,-1.000415402E0,1.516832870E0
9.399775500E0,-1.337772190E0,8.271652526E-1,-2.397282404E-1,1.591007988E0
9.409817500E0,-1.038483334E0,9.563027644E-1,-9.359176165E-1,1.693784047E0
9.419860500E0,-5.939230362E-1,9.090771425E-1,-1.476609063E0,1.832904839E0
9.429902500E0,-9.989248735E-1,6.396538174E-1,-1.337183375E0,1.787475115E0
9.439945500E0,-1.896661926E0,3.460972792E-1,-2.807697301E0,3.405917486E0
9.449987500E0,-1.170302964E0,3.232504535E-1,-2.078662360E0,2.407267557E0
9.460030500E0,9.004612702E-1,7.243384570E-1,5.252518737E-1,1.269403888E0
9.470072500E0,1.512126220E0,1.393484461E0,2.285268463E0,3.074211541E0
9.480115500E0,1.419936680E0,2.124129140E0,1.985951833E0,3.236070064E0
9.490157500E0,1.478387786E0,2.545442662E0,1.765928124E0,3.432697326E0
9.500199500E0,1.594077287E0,2.766710658E0,2.425800444E0,4.010022201E0
9.510242500E0,1.749055399E0,2.873928713E0,2.330583215E0,4.092710490E0
9.520284500E0,2.121051165E0,2.908057156E0,1.784591267E0,4.017514214E0
9.530327500E0,1.646977631E0,2.686797346E0,1.201944294E0,3.372845295E0
9.540369500E0,-1.783269212E0,1.507913886E0,9.740642667E-2,2.337379169E0
9.550412500E0,-5.165198758E0,-3.624729913E-1,8.399642229E-1,5.245589078E0
9.560454500E0,-4.291040018E0,-1.013307855E0,2.517559630E0,5.077196444E0
9.570497500E0,-2.706180866E0,-3.086119491E-1,2.037438905E0,3.401442857E0
9.580539500E0,-2.412929553E0,4.313262945E-1,1.529719469E0,2.889344745E0
9.590582750E0,-2.434753116E0,4.298241448E-1,1.621741780E0,2.956825651E0
9.600624750E0,-1.089932107E0,-6.358940578E-1,1.721089336E0,2.134118495E0
9.610667750E0,5.586283654E-1,-2.235702785E0,8.227826913E-1,2.446917234E0
9.620709750E0,3.128044027E-1,-3.205692127E0,2.868573102E-1,3.233665989E0
9.630752750E0,-1.333352864E0,-3.777899482E0,4.671877798E-1,4.033437588E0
9.640794750E0,-3.049094921E0,-4.258824783E0,-3.152070967E-1,5.247277759E0
9.650837750E0,-3.415793695E0,-4.584032300E0,-8.255368761E-1,5.776028898E0
9.660879750E0,-2.930519820E0,-4.839919320E0,-1.655910423E0,5.895320582E0
9.670922750E0,-2.020671430E0,-5.201530432E0,-1.869161886E0,5.884963723E0
9.680964750E0,-1.202043112E0,-5.303819284E0,-2.259923122E0,5.889198516E0
9.691007750E0,-1.160848308E0,-5.197964800E0,-2.324079942E0,5.811002877E0
9.701049750E0,-1.559229051E0,-5.043480778E0,-1.721780477E0,5.552694985E0
9.711092750E0,-2.213798531E0,-4.911743009E0,-1.355607952E0,5.555519439E0
9.721134750E0,-2.650935788E0,-5.038418258E0,-1.405333843E0,5.864135257E0
9.731177750E0,-2.652752518E0,-5.421629570E0,-9.078433800E-1,6.103715484E0
9.741219750E0,-2.723972189E0,-5.892701728E0,-5.303021139E-1,6.513461328E0
9.751262750E0,-3.011562814E0,-6.465949886E0,-2.412829967E-1,7.136962659E0
9.761304750E0,-3.178203782E0,-7.361583695E0,3.994835275E-1,8.028292525E0
9.771347750E0,-3.242710850E0,-8.990977580E0,7.231818777E-1,9.585188758E0
9.781389750E0,-3.508784890E0,-1.131064814E1,9.707436329E-1,1.188211580E1
9.791432750E0,-3.793428517E0,-1.419340965E1,9.615149724E-1,1.472302579E1
9.801474750E0,-3.508806524E0,-1.756786353E1,1.386509317E0,1.796841564E1
9.811516750E0,-2.575012617E0,-2.086549670E1,7.399183631E-1,2.103680398E1
9.821559750E0,-1.236529405E0,-2.308839993E1,2.454345381E-1,2.312279080E1
9.831601750E0,6.669334173E-2,-2.407230856E1,5.619291186E-2,2.407246654E1
9.841644750E0,5.700599644E-1,-2.310141349E1,5.000901353E-1,2.311385653E1
9.851686750E0,2.609412079E-1,-1.933173461E1,9.212779427E-1,1.935543351E1
9.861729750E0,-5.376772070E-1,-1.479395612E1,1.431695430E0,1.487279349E1
9.871771750E0,-1.542882429E0,-1.074235725E1,2.267108181E0,1.108686182E1
9.881814750E0,-1.959758499E0,-7.134011232E0,3.274227927E0,8.090447339E0
9.891856750E0,-1.966809803E0,-3.623575673E0,3.506119144E0,5.412163422E0
9.901899750E0,-1.884927441E0,-2.391710007E-1,2.669472046E0,3.276619483E0
9.911941750E0,-2.269179264E0,1.737162162E0,1.805836540E0,3.380525480E0
9.921984750E0,-3.730504583E0,3.175048624E0,1.364383453E0,5.085188336E0
9.932026750E0,-6.077788907E0,4.165013224E0,2.066277373E0,7.652212448E0
9.942069750E0,-1.169428396E1,4.724408745E0,-2.594773282E0,1.287669071E1
9.952111750E0,-2.259565740E1,6.284852847E0,-2.251860279E1,3.251385213E1
9.962154750E0,-1.973006331E1,6.761186330E0,-9.457304723E0,2.290042907E1
9.972196750E0,-1.625650965E1,7.824650431E0,-2.310831320E0,1.818898573E1
9.982239750E0,-1.399535393E1,9.718000494E0,-1.763778688E0,1.712951782E1
9.992281750E0,-9.833832082E0,1.137790515E1,-7.413526851E-1,1.505691146E1
1.000232475E1,-5.414781895E0,1.163894123E1,-3.726711202E0,1.336686920E1
1.001236675E1,-1.817661218E0,1.186692183E1,-9.687858097E0,1.542667561E1
1.002240975E1,5.377508819E-2,1.224450929E1,-9.687331263E0,1.561330479E1
1.003245175E1,-2.547836512E-2,1.196996614E1,-6.165181392E0,1.346440493E1
1.004249475E1,-8.765478393E-1,1.091406190E1,-2.091477703E0,1.114716836E1
1.005253675E1,-1.507860677E0,1.002065413E1,1.053768833E0,1.018810982E1
1.006257975E1,-1.684074122E0,9.538410866E0,2.171460596E0,9.926360291E0
1.007262175E1,-1.445778157E0,9.065664650E0,2.476665373E0,9.508439483E0
1.008266475E1,-1.130927229E0,8.466957130E0,3.200416185E0,9.122007629E0
1.009270675E1,-7.935314834E-1,7.899098935E0,4.077682135E0,8.924850015E0
1.010274975E1,-6.000084528E-1,7.293743130E0,4.573460534E0,8.629903837E0
1.011279175E1,-4.150851414E-1,6.940097680E0,4.572733140E0,8.321486637E0
1.012283375E1,-1.875208638E-1,6.892121860E0,4.622584162E0,8.300891045E0
1.013287675E1,-3.761572301E-2,7.288185351E0,4.388818327E0,8.507689873E0
1.014291875E1,7.459658459E-3,7.794979320E0,4.068494990E0,8.792861293E0
1.015296175E1,2.436008513E-2,8.208837057E0,3.772952152E0,9.034421243E0
1.016300375E1,-2.953099720E-2,8.585612923E0,3.571038733E0,9.298706306E0
1.017304675E1,-1.585584352E-1,8.807129425E0,3.402691255E0,9.442932662E0
1.018308875E1,-3.600292937E-1,8.953790458E0,2.907612183E0,9.420944393E0
1.019313175E1,-4.106674969E-1,9.219959223E0,1.933304672E0,9.429420068E0
1.020317375E1,-5.470023465E-1,9.479989581E0,1.137277597E0,9.563619312E0
1.021321675E1,-7.272755134E-1,9.685449044E0,5.547440600E-1,9.728545309E0
1.022325875E1,-8.767407974E-1,9.848659451E0,1.312828644E-1,9.888478275E0
1.023330175E1,-1.030526735E0,9.958838536E0,-1.564644742E-1,1.001323781E1
1.024334375E1,-1.236979641E0,9.992713795E0,-3.664660549E-1,1.007565109E1
1.025338675E1,-1.396738875E0,9.999349215E0,-5.213196212E-1,1.010987826E1
1.026342875E1,-1.593909179E0,9.944601735E0,-6.125654215E-1,1.009013808E1
1.027347175E1,-1.678594842E0,9.788788056E0,-6.765637815E-1,9.954686876E0
1.028351375E1,-1.653948536E0,9.572629357E0,-6.831407297E-1,9.738452640E0
1.029355675E1,-1.655325701E0,9.428427663E0,-6.836213708E-1,9.597014617E0
1.030359875E1,-1.695081651E0,9.300741431E0,-6.677976358E-1,9.477502131E0
1.031364175E1,-1.769055946E0,9.161299955E0,-6.587608371E-1,9.353766175E0
1.032368375E1,-1.851107877E0,9.045985261E0,-6.670790861E-1,9.257507452E0
1.033372675E1,-2.016666087E0,8.901955476E0,-7.032066927E-1,9.154575525E0
1.034376875E1,-2.410776900E0,8.704365780E0,-1.061937466E0,9.094258632E0
1.035381175E1,-4.410681944E0,8.164453182E0,-4.372445831E0,1.025820128E1
1.036385375E1,-6.548169925E0,7.665136049E0,-6.456990198E0,1.197186545E1
1.037389675E1,-5.270524068E0,8.009040037E0,-3.607159615E0,1.024376624E1
1.038393875E1,-4.933320404E0,8.189198014E0,-2.806290461E0,9.963728242E0
1.039398075E1,-5.065011980E0,8.177345708E0,-3.027033377E0,1.008396054E1
1.040402375E1,-6.273284715E0,7.714704650E0,-5.037285653E0,1.114652483E1
1.041406575E1,-9.451980248E0,6.364123549E0,-1.067373783E1,1.561315722E1
1.042410875E1,-1.069126428E1,3.391459338E0,-8.525052726E0,1.408835165E1
1.043415075E1,-4.141248971E0,-3.302995058E0,-3.993830139E0,6.634033356E0
1.044419375E1,1.625797555E0,-6.616027447E0,-1.523286567E1,1.668697796E1
1.045423575E1,-1.448879666E0,-9.323021661E0,2.799210652E0,9.841420906E0
1.046427875E1,-1.401536661E0,-2.068139126E1,6.286484220E0,2.166112032E1
1.047432075E1,1.387246943E0,-4.125290633E1,1.117241879E1,4.276154436E1
1.048436375E1,2.968691028E0,-5.749280871E1,2.198998643E1,6.162625807E1
1.049440575E1,-2.440352994E-1,-4.769889090E1,2.683675986E1,5.473075393E1
1.050444875E1,-7.524871286E0,-2.957767260E1,1.944338836E1,3.618712140E1
1.051449075E1,-1.472709555E1,-1.908990312E1,-1.157153102E1,2.674344919E1
1.052453375E1,-1.040464663E1,-1.164127661E1,-1.810979517E1,2.391109938E1
1.053457575E1,1.178063681E0,-7.077828845E0,-6.839847752E0,9.912971929E0
1.054461875E1,6.696959928E0,-3.954566086E0,-2.205172367E1,2.338303621E1
1.055466075E1,6.127960356E0,-4.442276496E0,3.827499658E-1,7.578404590E0
1.056470375E1,6.513974823E0,-4.138693737E0,9.964399238E0,1.260356719E1
1.057474575E1,7.057934278E0,-3.356446795E0,8.595638559E0,1.161745125E1
1.058478804E1,7.041703577E0,-2.996264743E0,7.699074458E0,1.085536453E1
1.059483004E1,6.999079714E0,-3.794402663E0,6.174966708E0,1.007545643E1
1.060487304E1,4.204891528E0,-5.146492930E0,4.899223536E0,8.256506131E0
1.061491504E1,-1.166182431E0,-6.826907864E0,1.004568460E-1,6.926524672E0
1.062495804E1,-9.031007034E0,-6.275573316E0,-2.629877626E0,1.130743847E1
1.063500004E1,-1.282232763E1,-7.779649674E0,6.475880213E0,1.633621925E1
1.064504304E1,-6.054398875E0,-5.810396320E0,-8.076628003E0,1.164681807E1
1.065508504E1,1.610440135E-2,-6.769182397E0,-1.158466971E1,1.341740146E1
1.066512804E1,-4.714367321E-1,-1.009358177E1,-7.282487240E0,1.245541111E1
1.067517004E1,5.241827103E-1,-9.038535324E0,1.605703890E-2,9.053736584E0
1.068521304E1,2.216290322E0,-3.542197049E0,5.409639854E0,6.835444834E0
1.069525504E1,3.436387589E0,1.772273523E-1,5.476491070E0,6.467775788E0
1.070529704E1,4.055329691E0,2.314919693E0,4.850477053E0,6.732880493E0
1.071534004E1,4.155918465E0,3.930553325E0,2.759794571E0,6.351171058E0
1.072538204E1,3.290680530E0,5.582130377E0,5.322497483E-1,6.501695755E0
1.073542504E1,1.988901168E0,7.016760525E0,-1.996950445E0,7.561644477E0
1.074546704E1,1.942785640E-1,7.383227749E0,-2.870138547E0,7.923855844E0
1.075551004E1,-1.531576545E0,6.566316758E0,-2.922186953E0,7.348565783E0
1.076555204E1,-2.497995431E0,5.650635186E0,-2.893682361E0,6.822247195E0
1.077559504E1,-3.046721537E0,4.999274658E0,-2.684478341E0,6.440627546E0
1.078563704E1,-3.192889356E0,4.498150735E0,-1.893475193E0,5.832079456E0
1.079568004E1,-3.255811244E0,3.967401309E0,-1.078574403E0,5.244416340E0
1.080572204E1,-3.381989480E0,3.415729961E0,-4.465478394E-1,4.827470246E0
1.081576504E1,-3.483455336E0,2.861670025E0,-4.445871949E-2,4.508391397E0
1.082580704E1,-3.506780464E0,2.397308716E0,-1.001465050E-1,4.249073737E0
1.083585004E1,-3.438834064E0,1.920395190E0,-3.887596609E-1,3.957856930E0
1.084589204E1,-3.385491670E0,1.470297579E0,-5.809109348E-1,3.736413565E0
1.085593504E1,-3.300317618E0,1.205577169E0,-5.893368457E-1,3.562699905E0
1.086597704E1,-3.044495502E0,1.070212957E0,-2.947984868E-1,3.240557788E0
1.087602004E1,-2.375241032E0,9.774480504E-1,2.937553436E-1,2.585240192E0
1.088606204E1,-1.516990081E0,8.463125449E-1,7.965218226E-1,1.911007808E0
1.089610504E1,-7.514844480E-1,6.252252281E-1,8.120420871E-1,1.270845314E0
1.090614704E1,-2.218503785E-1,3.950834978E-1,4.262954233E-1,6.221224546E-1
1.091619004E1,5.620460629E-2,1.878008723E-1,7.467128277E-2,2.097711274E-1
1.092623204E1,1.901111072E-1,-1.126115263E-2,-1.474134229E-2,1.910140147E-1
1.093627504E1,3.516277219E-1,-1.707018596E-1,5.114559531E-2,3.942043272E-1
1.094631704E1,5.295027995E-1,-3.229329497E-1,1.123624349E-1,6.303048639E-1
1.095636004E1,6.232254803E-1,-3.356389493E-1,1.957823948E-1,7.344346463E-1
1.096640204E1,6.332727510E-1,-2.244073659E-1,3.109339515E-1,7.403195021E-1
1.097644404E1,6.292962789E-1,-5.551580429E-2,3.875013401E-1,7.411161176E-1
1.098648704E1,7.458577455E-1,1.294526768E-1,2.444521328E-1,7.954989738E-1
1.099652904E1,8.960407021E-1,3.236971807E-1,3.310861610E-2,9.532916579E-1
1.100657204E1,9.715855589E-1,4.833173972E-1,-1.090284987E-1,1.090624325E0
1.101661404E1,9.160364985E-1,6.124098855E-1,-1.804690486E-1,1.116574141E0
1.102665704E1,7.561243598E-1,6.762801915E-1,-3.816716661E-1,1.083859864E0
1.103669904E1,5.077363931E-1,7.591106790E-1,-8.289831519E-1,1.233393017E0
1.104674204E1,1.800734845E-1,9.569301707E-1,-1.360631295E0,1.673158490E0
1.105678404E1,-3.075514103E-1,1.281793286E0,-2.109146234E0,2.487183093E0
1.106682704E1,-9.497990526E-1,1.651802754E0,-2.592111045E0,3.217081013E0
1.107686904E1,-1.117514008E0,1.898773355E0,-1.807266769E0,2.849629974E0
1.108691204E1,-4.987715882E-1,1.902249525E0,-2.583644861E-1,1.983451174E0
1.109695404E1,3.263836840E-1,1.690050561E0,7.268703014E-1,1.868458627E0
1.110699704E1,5.681853470E-1,1.375270384E0,8.508499843E-1,1.714102947E0
1.111703904E1,1.166398193E-1,1.135775447E0,8.278931578E-1,1.410318331E0
1.112708204E1,-1.004863744E0,9.857265383E-1,5.655502262E-1,1.516988797E0
1.113712404E1,-2.531135987E0,8.970137519E-1,-3.450306740E-1,2.707458074E0
1.114716704E1,-3.456799634E0,8.445156956E-1,-1.755456930E-1,3.562791990E0
1.115720904E1,-3.182147729E0,8.281961167E-1,1.493643757E0,3.611501716E0
1.116725204E1,-2.918064666E0,8.071268445E-1,1.538171327E0,3.395957327E0
1.117729404E1,-2.799969328E0,9.565302211E-1,-1.358659029E-1,2.961965200E0
1.118733704E1,-2.002891509E0,1.379369867E0,-1.368564212E0,2.790556150E0
1.119737904E1,-1.447639179E0,1.629064686E0,-2.194990377E0,3.093136547E0
1.120742204E1,-1.297000871E0,1.621071543E0,-2.972261338E0,3.625523640E0
1.121746404E1,-1.466048992E0,1.410498104E0,-3.512831163E0,4.059407263E0
1.122750704E1,-1.457801786E0,1.154162602E0,-1.564330308E0,2.429898490E0
1.123754904E1,-8.349800563E-1,1.175511371E0,6.220811802E-1,1.570351449E0
1.124759204E1,-4.592946965E-1,1.335408161E0,1.264066867E0,1.895291961E0
1.125763404E1,-9.541068426E-1,1.639980853E0,-1.776191157E-1,1.905624731E0
1.126767604E1,-1.431356876E0,1.786205683E0,-6.904941881E-1,2.390835727E0
1.127771904E1,-1.838887927E0,1.786162414E0,-6.034425956E-1,2.633633980E0
1.128776104E1,-1.445605079E0,1.839604211E0,1.776416275E0,2.937613399E0
1.129780404E1,-6.375704545E-1,2.116014959E0,2.057525845E0,3.019507906E0
1.130784604E1,-3.992943701E-1,2.084314279E0,-1.219509330E0,2.447652960E0
1.131788904E1,1.673060891E-1,1.749434298E0,-2.004153630E0,2.665547498E0
1.132793104E1,1.619275570E0,1.296828817E0,-2.071662658E0,2.931826141E0
1.133797404E1,3.280143555E0,6.659908462E-1,-1.927486108E0,3.862394108E0
1.134801604E1,3.912426957E0,1.214922774E-1,1.926589730E0,4.362750629E0
1.135805904E1,3.522427028E0,2.357228976E-1,2.769125558E0,4.486770978E0
1.136810104E1,2.302394958E0,5.730715728E-1,8.554809791E-1,2.522158059E0
1.137814404E1,-5.617010772E-2,2.932220775E-1,-3.412856054E-1,4.534425346E-1
1.138818604E1,-2.124246669E0,-1.051115951E0,-1.473824619E0,2.790954614E0
1.139822904E1,-1.181103648E0,-1.944997934E0,-1.002090556E0,2.486404688E0
1.140827104E1,-4.950662076E-2,-1.595847824E0,-1.322779344E0,2.073385245E0
1.141831404E1,5.300243711E-1,-3.905998528E-1,-6.031707001E-1,8.929215937E-1
1.142835604E1,5.468994355E-1,8.822407615E-1,7.676715875E-1,1.291033470E0
1.143839904E1,2.459087473E-1,1.663378487E0,1.171641684E0,2.049400726E0
1.144844104E1,-1.377487063E-2,2.236395096E0,1.145422769E0,2.512696975E0
1.145848404E1,-8.947602350E-1,1.991555219E0,2.193211069E0,3.094682999E0
1.146852604E1,-2.055184035E0,9.395651096E-1,4.012808447E0,4.605344248E0
1.147856904E1,-2.551118554E0,5.985478914E-1,3.131417871E0,4.083165847E0
1.148861104E1,-3.332195469E0,-5.514339513E-1,2.720013624E0,4.336597763E0
1.149865304E1,-3.544723631E0,-2.503568997E0,2.434909236E0,4.976113577E0
1.150869604E1,-3.466579687E0,-3.442119030E0,1.949618404E0,5.259883084E0
1.151873804E1,-3.154828953E0,-3.199232708E0,7.396236634E-1,4.553578681E0
1.152878104E1,-2.351905671E0,-2.752582031E0,-2.283244157E-1,3.627712800E0
1.153882304E1,-1.058299840E0,-2.631207283E0,2.651829471E-2,2.836186442E0
1.154886604E1,-1.150784081E0,-2.855537465E0,-5.566900134E-1,3.128626214E0
1.155890804E1,-8.766876608E-1,-3.465356449E0,-8.731927800E-1,3.679638869E0
1.156895104E1,-4.851037216E-1,-4.180427654E0,-1.592501462E0,4.499706868E0
1.157899304E1,-9.433599526E-1,-4.341328411E0,-1.946013011E0,4.850157421E0
1.158903612E1,-1.310257532E0,-3.944858539E0,-2.132322258E0,4.671775027E0
1.159907812E1,-1.275836728E0,-3.276927586E0,-2.051757567E0,4.071329374E0
1.160912112E1,-8.343228292E-1,-2.555889298E0,-1.448553538E0,3.054009174E0
1.161916312E1,-6.364056891E-1,-1.966687596E0,-1.059913745E0,2.322991487E0
1.162920612E1,-7.063489133E-1,-1.699945219E0,-5.077822206E-1,1.909603445E0
1.163924812E1,-1.136889927E0,-1.958904367E0,-5.279369882E-1,2.325627332E0
1.164929112E1,-1.757958954E0,-2.797704994E0,-3.243919031E-1,3.320060696E0
1.165933312E1,-2.068380616E0,-4.389865564E0,-7.616910553E-1,4.912157500E0
1.166937612E1,-1.962003976E0,-6.524306853E0,-1.676774458E0,7.016239170E0
1.167941812E1,-1.500140598E0,-8.849810591E0,-2.417446527E0,9.295892481E0
1.168946112E1,-8.939948344E-1,-1.115647226E1,-2.556950567E0,1.148059651E1
1.169950312E1,-2.626961035E-1,-1.332382577E1,-1.297392488E0,1.338942007E1
1.170954612E1,-2.852417976E-1,-1.573113381E1,-5.928280719E-1,1.574488422E1
1.171958812E1,-1.049269985E0,-1.808908668E1,1.323318458E-1,1.811997616E1
1.172963112E1,-1.960569362E0,-1.976525887E1,1.570199597E0,1.992422689E1
1.173967312E1,-2.793179249E0,-2.102556305E1,2.365835493E0,2.134182114E1
1.174971612E1,-3.174324447E0,-2.158772606E1,3.207102476E0,2.205429116E1
1.175975812E1,-2.693234546E0,-2.130891912E1,3.554762131E0,2.177061966E1
1.176980112E1,-1.464987722E0,-2.055674032E1,3.545461550E0,2.091162498E1
1.177984312E1,-1.396810942E0,-1.959619599E1,3.559183795E0,1.996571479E1
1.178988513E1,-2.969762823E0,-1.777641500E1,4.033698210E0,1.846865298E1
1.179992812E1,-4.526976631E0,-1.498662071E1,4.393636433E0,1.626026933E1
1.180997012E1,-5.235484629E0,-1.052478001E1,5.123151430E0,1.282294717E1
1.182001312E1,-4.318745880E0,-5.910979539E0,3.662183669E0,8.185525903E0
1.183005512E1,-3.746135067E0,-2.649398555E0,1.863204158E0,4.952208637E0
1.184009812E1,-4.998030370E0,4.044823122E-1,1.444766881E0,5.218358445E0
1.185014012E1,-6.234134098E0,3.399244906E0,1.880628276E0,7.345478650E0
1.186018312E1,-8.488207666E0,5.062170233E0,1.864977618E0,1.005750358E1
1.187022512E1,-1.164185080E1,6.423185690E0,-1.319458857E0,1.336154842E1
1.188026812E1,-1.747850989E1,9.837633941E0,-2.117031439E1,2.916263981E1
1.189031012E1,-1.732090170E1,1.165088124E1,-1.598499185E1,2.629214016E1
1.190035312E1,-1.521042757E1,1.080885880E1,-3.057345343E0,1.890861962E1
1.191039512E1,-1.458238164E1,1.035108847E1,2.274305518E0,1.802673993E1
1.192043812E1,-1.098878698E1,1.054832090E1,1.379731225E0,1.529457981E1
1.193048012E1,-6.754987696E0,1.162046169E1,-3.413914985E0,1.386794160E1
1.194052312E1,-3.985701925E0,1.217003681E1,-5.754492261E0,1.403957966E1
1.195056512E1,-2.440192196E0,1.174678493E1,-5.391840929E0,1.315345745E1
1.196060812E1,-1.713107448E0,1.101187296E1,-3.172437842E0,1.158708095E1
1.197065012E1,-1.348669061E0,1.047183698E1,-1.316506451E0,1.064008775E1
1.198069312E1,-1.029552735E0,1.023725371E1,-5.492266639E-1,1.030354270E1
1.199073512E1,-7.827651514E-1,1.012203199E1,-3.066472846E-1,1.015688364E1
1.200077812E1,-4.975470351E-1,1.002562660E1,-9.255009480E-3,1.003796929E1
1.201082012E1,-1.688615946E-1,9.763149185E0,3.518983018E-1,9.770948196E0
1.202086312E1,3.506209776E-3,9.504958946E0,7.222439843E-1,9.532360317E0
1.203090512E1,7.923795819E-2,9.197702381E0,1.217441754E0,9.278263424E0
1.204094812E1,1.720323935E-2,8.821617072E0,1.565098486E0,8.959394900E0
1.205099012E1,3.753853977E-2,8.642679409E0,1.783070991E0,8.824775276E0
1.206103212E1,1.183691333E-1,8.627153297E0,1.765987766E0,8.806843819E0
1.207107512E1,8.405913368E-2,8.640129438E0,1.687836220E0,8.803845396E0
1.208111712E1,1.202294981E-1,8.624667061E0,1.643142443E0,8.780618095E0
1.209116012E1,1.970570147E-1,8.543696573E0,1.489637829E0,8.674825846E0
1.210120212E1,2.786370020E-1,8.408124200E0,1.283408872E0,8.510072237E0
1.211124512E1,3.148360178E-1,8.340913965E0,1.130221177E0,8.423026023E0
1.212128712E1,3.834030267E-1,8.460019993E0,9.476559019E-1,8.521560178E0
1.213133012E1,4.273238023E-1,8.669014099E0,8.110321999E-1,8.717349615E0
1.214137212E1,5.174563658E-1,8.861362351E0,7.269737971E-1,8.906177334E0
1.215141513E1,6.029695559E-1,9.100274320E0,5.858383834E-1,9.139024652E0
1.216145712E1,5.791329427E-1,9.393699880E0,4.331313300E-1,9.421496439E0
1.217150012E1,4.296113062E-1,9.704670596E0,2.015552777E-1,9.716265835E0
1.218154212E1,1.739746924E-1,9.936674080E0,-1.604300559E-1,9.939491776E0
1.219158512E1,-1.488459177E-1,1.007301595E1,-5.283211138E-1,1.008795958E1
1.220162712E1,-4.687793919E-1,1.005156719E1,-8.027262300E-1,1.009446019E1
1.221167012E1,-7.348016109E-1,9.958226917E0,-9.957106590E-1,1.003482219E1
1.222171212E1,-1.013082810E0,9.843792229E0,-1.064016736E0,9.952824415E0
1.223175512E1,-1.234643093E0,9.678136516E0,-1.087156507E0,9.816953665E0
1.224179712E1,-1.340484713E0,9.501944121E0,-1.080094752E0,9.656627052E0
1.225184012E1,-1.343250739E0,9.345228801E0,-9.906897280E-1,9.493107501E0
1.226188212E1,-1.432758162E0,9.100848516E0,-8.223536519E-1,9.249567838E0
1.227192512E1,-1.712403297E0,8.798662657E0,-1.013461709E0,9.020858842E0
1.228196712E1,-2.569791930E0,8.406868218E0,-2.495896280E0,9.138312866E0
1.229200912E1,-3.648580706E0,8.054662938E0,-3.849605641E0,9.644127737E0
1.230205212E1,-3.161897944E0,7.924739560E0,-2.401743245E0,8.863829100E0
1.231209412E1,-2.261909713E0,8.067858934E0,-9.980916452E-1,8.438173396E0
1.232213712E1,-1.897429373E0,8.278319521E0,-1.030811860E-1,8.493611602E0
1.233217912E1,-1.929330174E0,8.474538630E0,2.386564457E-1,8.694657946E0
1.234222212E1,-3.009751054E0,8.681587366E0,-1.463356349E0,9.304298599E0
1.235226412E1,-7.356900660E0,7.783750327E0,-1.239251869E1,1.637941623E1
1.236230713E1,-8.636255073E0,4.267439486E0,-7.480204405E0,1.219628630E1
1.237234912E1,-2.641706251E0,7.417836249E-1,6.259370096E0,6.834366749E0
1.238239212E1,-1.403726736E0,-5.215932709E-1,2.333606956E0,2.772765716E0
1.239243412E1,-3.929541757E0,-7.101849207E0,2.279208993E0,8.430442112E0
1.240247712E1,-5.308949046E0,-2.146295817E1,3.605955089E0,2.240192906E1
1.241251912E1,-7.870643460E0,-4.954840263E1,8.508090538E0,5.088593947E1
1.242256212E1,-1.884485099E1,-7.931592731E1,1.779776670E1,8.344402455E1
1.243260413E1,-1.299450123E1,-6.104720949E1,1.597394529E1,6.442659215E1
1.244264712E1,-1.832330275E-1,-2.694452872E1,6.347975294E0,2.768281042E1
1.245268912E1,5.937770312E0,-1.227561414E1,-5.265053998E0,1.461740785E1
1.246273212E1,6.982916840E0,-5.399337645E0,-1.246254845E1,1.527183972E1
1.247277412E1,5.063183556E0,-1.280006377E0,-1.154819595E1,1.267418927E1
1.248281712E1,3.702527410E0,1.210373640E-3,-9.146205953E0,9.867208015E0
1.249285912E1,3.985113402E0,-2.957291881E0,6.270589149E-1,5.001990302E0
1.250290212E1,5.892890593E0,-5.538677378E0,4.258648197E0,9.139977632E0
1.251294412E1,5.545526222E0,-6.191909015E0,7.245218841E0,1.102659487E1
1.252298712E1,3.429511263E0,-6.894310473E0,8.867073911E0,1.174385219E1
1.253302912E1,3.978299350E-2,-6.934950376E0,7.145853598E0,9.957828229E0
1.254307212E1,-3.136406130E0,-6.091289544E0,8.023362207E-1,6.898158822E0
1.255311412E1,-6.140800842E0,-3.561200500E0,4.344198225E0,8.322478128E0
1.256315612E1,-1.355058021E0,-3.361645555E0,2.130331866E0,4.204183266E0
1.257319913E1,4.110484138E0,5.112530547E-1,-1.507798813E1,1.563659764E1
1.258324112E1,9.822565082E-1,-7.290053537E0,-1.019960700E1,1.257544000E1
1.259328492E1,-6.325853523E0,-1.306911638E1,1.018623558E0,1.455526777E1
1.260332692E1,-4.308595990E0,-9.002832810E0,5.796462405E0,1.154183583E1
1.261336992E1,-1.976817897E-1,-4.146038425E0,3.364625296E0,5.343165363E0
1.262341192E1,1.873968590E0,-1.259425347E0,1.676211517E0,2.812044724E0
1.263345492E1,2.692722330E0,9.332647347E-1,2.815935735E-1,2.863744324E0
1.264349692E1,2.474767367E0,3.054008337E0,-8.481697668E-1,4.021297352E0
1.265353992E1,1.687215100E0,4.639289072E0,-1.255907370E0,5.093819904E0
1.266358192E1,6.767310119E-1,5.644197986E0,-1.053728048E0,5.781459899E0
1.267362492E1,-5.423289594E-1,6.345631145E0,-7.272961248E-1,6.410157173E0
1.268366692E1,-1.830136253E0,6.746670032E0,-5.532805020E-1,7.012351570E0
1.269370992E1,-2.969154713E0,6.877389216E0,-4.689069343E-1,7.505613622E0
1.270375192E1,-3.851450438E0,6.822130104E0,-4.976215871E-1,7.850016362E0
1.271379492E1,-4.377694876E0,6.461030039E0,-7.412633689E-1,7.839553111E0
1.272383692E1,-4.455062603E0,5.654691984E0,-8.630922997E-1,7.250382924E0
1.273387992E1,-4.105309644E0,4.527785593E0,-8.106090076E-1,6.165346431E0
1.274392192E1,-3.742549555E0,3.508420608E0,-6.685573353E-1,5.173264080E0
1.275396492E1,-3.378274744E0,2.734588979E0,-2.550467759E-1,4.353821998E0
1.276400692E1,-3.041405248E0,2.079463429E0,-3.333716914E-2,3.684484415E0
1.277404992E1,-2.760525473E0,1.355191630E0,-9.054647326E-2,3.076563652E0
1.278409192E1,-2.463902655E0,7.233812678E-1,-2.890572520E-1,2.584115100E0
1.279413492E1,-2.164981297E0,3.691961199E-1,-4.062850088E-1,2.233498891E0
1.280417692E1,-1.848653069E0,2.569173002E-1,-5.169184220E-1,1.936679975E0
1.281421892E1,-1.494014178E0,2.851307005E-1,-5.200993073E-1,1.607445541E0
1.282426192E1,-1.121640827E0,3.006170511E-1,-2.826663183E-1,1.195135559E0
1.283430392E1,-7.432618010E-1,2.247470891E-1,-3.594517350E-2,7.773296691E-1
1.284434692E1,-4.426728896E-1,1.238820344E-1,-5.263897419E-2,4.626844575E-1
1.285438892E1,-2.007607142E-1,-8.322342038E-3,5.658409059E-2,2.087483774E-1
1.286443192E1,4.970440283E-2,-1.636758453E-1,1.097411281E-1,2.032324413E-1
1.287447392E1,3.582356603E-1,-2.117843968E-1,-9.799202532E-3,4.162708775E-1
1.288451692E1,6.343135554E-1,-3.359587920E-1,2.031818269E-1,7.459925276E-1
1.289455892E1,8.540922654E-1,-5.651760775E-1,4.344539702E-1,1.112496224E0
1.290460192E1,1.148508344E0,-7.341839987E-1,4.648692857E-1,1.440208670E0
1.291464392E1,1.376332969E0,-8.924751431E-1,4.124304324E-1,1.691420464E0
1.292468692E1,1.534005332E0,-9.059822112E-1,3.834311664E-1,1.822359894E0
1.293472892E1,1.644562439E0,-5.156314498E-1,4.122754812E-1,1.772126542E0
1.294477192E1,1.538289295E0,2.111026114E-1,4.175900155E-1,1.607880495E0
1.295481392E1,1.160570858E0,1.078567459E0,3.053596547E-1,1.613529361E0
1.296485692E1,6.063011532E-1,1.824254100E0,-4.932711124E-3,1.922375729E0
1.297489892E1,-1.629063517E-2,2.378545586E0,-2.840385137E-1,2.395500442E0
1.298494192E1,-3.819347177E-1,2.661195897E0,-1.504593837E-1,2.692670748E0
1.299498392E1,-5.407623442E-1,2.590053409E0,1.628964114E-1,2.650912261E0
1.300502692E1,-6.456647551E-1,2.122487242E0,3.394875866E-1,2.244345537E0
1.301506892E1,-6.978874075E-1,1.503885155E0,2.711003065E-1,1.679944275E0
1.302511192E1,-9.325975674E-1,9.208581126E-1,8.303572476E-2,1.313245148E0
1.303515392E1,-1.282374353E0,5.741726035E-1,-1.024397830E-1,1.408776799E0
1.304519592E1,-1.850131099E0,5.491377497E-1,-2.654127929E-1,1.948071175E0
1.305523892E1,-2.373899973E0,7.427419835E-1,-4.761376011E-1,2.532542942E0
1.306528092E1,-2.707112328E0,1.016374719E0,-6.100371585E-1,2.955269879E0
1.307532392E1,-2.749638543E0,1.316926281E0,-7.262633604E-1,3.134049364E0
1.308536592E1,-2.473968637E0,1.561587818E0,-4.040110266E-1,2.953354405E0
1.309540892E1,-1.797362025E0,1.687537428E0,4.386891085E-1,2.504144754E0
1.310545092E1,-1.146364463E0,1.746130621E0,4.720838727E-1,2.141491726E0
1.311549392E1,-8.051422995E-1,1.761922197E0,-3.476633097E-1,1.968119338E0
1.312553592E1,-8.392879924E-1,1.710701172E0,-1.028853116E0,2.165511849E0
1.313557892E1,-9.392497985E-1,1.410844844E0,-2.612486837E0,3.114122803E0
1.314562092E1,-9.702059814E-1,1.061318173E0,-3.742281752E0,4.009035872E0
1.315566392E1,-1.264605396E0,8.090154952E-1,-3.586896089E0,3.888387382E0
1.316570592E1,-1.905768964E0,5.976830882E-1,-2.734761764E0,3.386458670E0
1.317574892E1,-2.080139367E0,6.006452876E-1,-1.096176934E0,2.426800037E0
1.318579092E1,-2.077288849E0,8.543396026E-1,-1.008420752E0,2.462100228E0
1.319583392E1,-2.073589024E0,1.077085775E0,-2.299027108E0,3.278019348E0
1.320587592E1,-1.778144419E0,1.164537317E0,-3.065789891E0,3.730551219E0
1.321591892E1,-7.687267175E-1,1.296399631E0,-1.178768270E0,1.913396823E0
1.322596092E1,1.130854431E-1,1.720167230E0,1.861553197E-1,1.733902367E0
1.323600392E1,4.776455981E-1,2.180130848E0,-1.004852342E0,2.447620081E0
1.324604592E1,1.221639178E0,2.357510228E0,1.202691422E0,2.914913963E0
1.325608892E1,9.561226702E-1,2.332815097E0,2.349368564E0,3.446118032E0
1.326613092E1,5.070117769E-1,2.052874970E0,2.103014552E0,2.982285497E0
1.327617392E1,1.069756874E0,2.203443112E0,5.102713072E-1,2.501982839E0
1.328621592E1,2.847646648E-1,1.878004045E0,-1.414124401E0,2.368066285E0
1.329625792E1,-1.070550342E0,4.889763325E-1,-2.059129152E0,2.371748037E0
1.330630092E1,-1.656313296E0,-1.376007718E-1,-3.085950653E-1,1.690425574E0
1.331634292E1,-1.917616008E0,2.659945178E-1,-4.201926843E-1,1.981051774E0
1.332638592E1,-1.539699351E0,1.061966629E0,-1.855584651E-1,1.879595477E0
1.333642792E1,-2.232145339E-1,1.774696024E0,2.720755051E0,3.256052634E0
1.334647092E1,2.212270653E-1,2.383436782E0,2.514992702E0,3.472016791E0
1.335651292E1,2.043689579E-1,3.284746483E0,1.768586268E0,3.736204427E0
1.336655592E1,5.597551239E-1,2.941015572E0,1.883368281E0,3.536944228E0
1.337659792E1,8.158239931E-1,1.590012887E0,4.062644851E0,4.438332226E0
1.338664092E1,-6.421178341E-1,3.039873862E-1,4.063959889E0,4.125590094E0
1.339668292E1,-2.752445791E0,-1.168033952E0,3.703251003E0,4.759656409E0
1.340672592E1,-2.965532362E0,-2.293994263E0,3.246275312E0,4.959344238E0
1.341676792E1,-2.329336588E0,-3.254215246E0,2.298736355E0,4.615183056E0
1.342681092E1,-1.716191123E0,-4.043660696E0,1.270937346E0,4.572940578E0
1.343685292E1,-1.367380151E0,-4.669578819E0,8.443156477E-1,4.938376629E0
1.344689592E1,-1.098084880E0,-5.065199091E0,7.765797474E-1,5.240716395E0
1.345693792E1,-1.123358300E0,-5.190236535E0,8.120379210E-2,5.311034101E0
1.346698092E1,-7.450259060E-1,-5.124594523E0,-8.737522124E-1,5.251664075E0
1.347702292E1,-2.406743199E-1,-5.157435994E0,-2.039670787E0,5.551335613E0
1.348706592E1,-9.276607633E-2,-5.165844290E0,-2.510443568E0,5.744291052E0
1.349710792E1,-3.866570753E-1,-5.071339837E0,-2.569822628E0,5.698419059E0
1.350715092E1,-6.672386420E-1,-4.951713991E0,-2.802438315E0,5.728729297E0
1.351719292E1,-1.658047580E0,-4.761870686E0,-2.372040120E0,5.572352155E0
1.352723592E1,-2.531789998E0,-4.673480666E0,-1.590245606E0,5.547996325E0
1.353727792E1,-2.956890762E0,-4.826614566E0,-1.226492659E0,5.791691928E0
1.354731992E1,-3.188544583E0,-5.325565664E0,-6.329214795E-1,6.239315330E0
1.355736292E1,-3.706309682E0,-6.029349988E0,-9.290578093E-1,7.138132889E0
1.356740492E1,-4.163864831E0,-6.948016564E0,-1.010908888E0,8.163004428E0
1.357744792E1,-4.069199579E0,-8.209852134E0,-1.340892264E0,9.260564202E0
1.358749012E1,-3.404455944E0,-9.577005998E0,-1.450063874E0,1.026703703E1
1.359753312E1,-2.240958847E0,-1.108670796E1,-5.679214914E-1,1.132517218E1
1.360757512E1,-1.233611060E0,-1.366528913E1,-9.974490362E-1,1.375706466E1
1.361761812E1,-8.857102069E-1,-1.713459187E1,-3.646511523E-1,1.716134294E1
1.362766012E1,-1.065586933E0,-2.080823608E1,3.841128787E-1,2.083904285E1
1.363770312E1,-1.150016049E0,-2.357296570E1,8.735862245E-1,2.361716329E1
1.364774512E1,-1.439220797E0,-2.436762804E1,1.605099288E0,2.446280843E1
1.365778812E1,-1.187385312E0,-2.269949927E1,2.650469180E0,2.288453928E1
1.366783012E1,-1.183071382E0,-1.967163325E1,4.216854054E0,2.015327941E1
1.367787312E1,-2.035625245E0,-1.697977982E1,5.200413029E0,1.787459058E1
1.368791512E1,-2.656087770E0,-1.446780779E1,5.610194088E0,1.574314270E1
1.369795812E1,-3.177446860E0,-1.143638432E1,5.896023531E0,1.325330707E1
1.370800012E1,-3.482537031E0,-7.954358631E0,6.018812721E0,1.056532025E1
1.371804313E1,-3.607692589E0,-3.455073536E0,5.984015940E0,7.794961561E0
1.372808512E1,-3.095049066E0,9.343932474E-1,5.046398538E0,5.993209296E0
1.373812812E1,-2.992888561E0,4.034349005E0,3.396819481E0,6.063970351E0
1.374817012E1,-4.146207410E0,5.842141439E0,2.099802384E0,7.465307932E0
1.375821312E1,-5.522130343E0,6.888015946E0,1.912658154E0,9.033102922E0
1.376825512E1,-7.372637272E0,7.719760737E0,9.671728845E-1,1.071848448E1
1.377829812E1,-1.394215129E1,8.551178085E0,-1.023836351E1,1.929586268E1
1.378834013E1,-1.953565508E1,7.587487364E0,-1.621343321E1,2.649692813E1
1.379838212E1,-1.721237036E1,7.014601148E0,-5.402281133E0,1.935600590E1
1.380842512E1,-1.609356412E1,8.115205008E0,-3.892727687E0,1.843943294E1
1.381846712E1,-1.387994510E1,1.036102874E1,-5.088425986E0,1.805258628E1
1.382851012E1,-9.984713634E0,1.287167462E1,-6.196792025E0,1.742913496E1
1.383855212E1,-7.065339777E0,1.370834335E1,-5.145872540E0,1.625785065E1
1.384859512E1,-4.737836291E0,1.314812396E1,-3.952807243E0,1.452394373E1
1.385863712E1,-2.851942012E0,1.242194889E1,-3.593732654E0,1.324210338E1
1.386868012E1,-1.540902708E0,1.130409224E1,-2.973143683E0,1.178967624E1
1.387872212E1,-9.773126873E-1,1.040994655E1,-2.223262249E0,1.068948185E1
1.388876512E1,-7.106853546E-1,1.005214022E1,-1.850243804E0,1.024568196E1
1.389880712E1,-3.236346155E-1,9.886596186E0,-1.743562670E0,1.004437824E1
1.390885012E1,4.890859678E-2,9.791838548E0,-1.416842772E0,9.893934386E0
1.391889212E1,5.926235656E-1,9.730272630E0,-9.804717187E-1,9.797486052E0
1.392893513E1,1.334631066E0,9.583211063E0,-5.796959565E-1,9.693050179E0
1.393897712E1,1.991677134E0,9.350097193E0,-2.807231424E-1,9.563989796E0
1.394902012E1,2.055979841E0,8.992718296E0,-3.397110964E-1,9.231004230E0
1.395906212E1,1.667799566E0,8.580824053E0,-6.167952973E-1,8.763134899E0
1.396910512E1,1.340669193E0,8.270586578E0,-8.175787425E-1,8.418338983E0
1.397914712E1,1.289059036E0,8.004548206E0,-8.308718757E-1,8.150141917E0
1.398919012E1,1.305715123E0,7.749527743E0,-7.011473034E-1,7.889973369E0
1.399923213E1,1.266188237E0,7.512737144E0,-5.681749682E-1,7.639847828E0
1.400927412E1,1.210471581E0,7.289474078E0,-4.844693718E-1,7.405159306E0
1.401931712E1,1.100572870E0,7.132540072E0,-4.629211396E-1,7.231782941E0
1.402935912E1,7.896620885E-1,7.182142587E0,-4.016008043E-1,7.236575265E0
1.403940212E1,3.576475766E-1,7.700518135E0,-2.864551679E-1,7.714139479E0
1.404944412E1,1.923178464E-1,8.309620836E0,-2.918082207E-1,8.316966792E0
1.405948712E1,-2.608883271E-2,8.735903322E0,-3.660340188E-1,8.743607287E0
1.406952913E1,-2.650198052E-1,9.039456260E0,-5.034494338E-1,9.057343226E0
1.407957212E1,-4.867540982E-1,9.288144774E0,-6.430544849E-1,9.323094012E0
1.408961412E1,-6.557702056E-1,9.464847631E0,-8.366253897E-1,9.524353904E0
1.409965712E1,-8.273693204E-1,9.553181518E0,-1.009922390E0,9.641979067E0
1.410969912E1,-1.051772301E0,9.517450352E0,-1.108952588E0,9.639391165E0
1.411974212E1,-1.270367242E0,9.472129753E0,-1.160235520E0,9.627108676E0
1.412978412E1,-1.543961678E0,9.463325601E0,-1.332540686E0,9.680599866E0
1.413982713E1,-2.039099222E0,9.455503780E0,-1.998419850E0,9.877153399E0
1.414986912E1,-2.846075208E0,9.439126314E0,-3.115302359E0,1.033935967E1
1.415991212E1,-3.113224844E0,9.422082850E0,-2.688125834E0,1.028075069E1
1.416995412E1,-2.910236706E0,9.495345538E0,-1.413099530E0,1.003134661E1
1.417999712E1,-2.954871134E0,9.637389609E0,-3.422679742E-1,1.008601454E1
1.419003912E1,-3.011050013E0,9.752413697E0,2.456163865E-1,1.020961912E1
1.420008212E1,-3.141741130E0,9.757541705E0,3.808841193E-1,1.025793499E1
1.421012413E1,-3.399344601E0,9.567849843E0,6.869835198E-2,1.015401466E1
1.422016712E1,-4.002613242E0,9.400099658E0,-1.041970321E0,1.026978522E1
1.423020912E1,-5.677584418E0,9.026227520E0,-4.333500159E0,1.151029851E1
1.424025112E1,-9.102071169E0,7.620867949E0,-9.828630399E0,1.541192082E1
1.425029412E1,-1.090346324E1,3.049440492E0,-4.516383523E0,1.218943469E1
1.426033612E1,-8.522300441E0,-6.435063724E0,7.569974368E0,1.308984957E1
1.427037912E1,-8.681378036E0,-1.048143577E1,4.509477376E0,1.433744073E1
1.428042113E1,-1.143741343E1,-2.176935227E1,1.343327447E-1,2.459140439E1
1.429046412E1,-1.018845051E1,-4.069002060E1,-4.831394080E0,4.222350849E1
1.430050612E1,-4.327211478E-1,-5.042477396E1,-1.701411116E0,5.045532554E1
1.431054912E1,7.538537983E0,-3.852364825E1,1.280801715E1,4.129099579E1
1.432059112E1,9.109488362E0,-2.278964697E1,1.590786708E1,2.924741052E1
1.433063412E1,1.186720366E1,-1.371770942E1,9.602658902E0,2.052357504E1
1.434067612E1,8.908500849E0,-9.952998337E0,6.888814675E0,1.502928245E1
1.435071912E1,-7.540160000E0,-1.191244357E1,-8.610622634E0,1.651978047E1
1.436076112E1,-1.750753664E1,-1.332616232E1,-5.269147049E0,2.262441937E1
1.437080412E1,-5.592322658E0,-1.149520731E1,2.860358495E-1,1.278654294E1
1.438084612E1,1.876065109E0,-8.077507424E0,-7.537203648E0,1.120603343E1
1.439088912E1,1.155026236E0,-3.623886745E0,-1.510459033E0,4.092447585E0
1.440093112E1,-7.579505914E-1,-6.634835601E-3,1.135768869E0,1.365468434E0
1.441097412E1,-3.420748626E0,2.196179700E0,6.295876895E-1,4.113527330E0
1.442101612E1,-3.420318271E0,1.638058873E0,1.266028023E0,3.998079652E0
1.443105912E1,-2.967643207E-1,-3.844856533E0,1.046416105E0,3.995744922E0
1.444110112E1,4.349012822E-1,-9.138613928E0,1.503069176E-1,9.150191026E0
1.445114412E1,4.497035086E-2,-1.115337909E1,-8.928989200E-1,1.118915349E1
1.446118612E1,3.019548941E-1,-1.170995215E1,-1.340611013E0,1.179030933E1
1.447122912E1,4.738972405E-1,-1.098493717E1,-9.058904099E-1,1.103240956E1
1.448127112E1,3.212828654E-1,-9.202674268E0,-2.460929346E-1,9.211568710E0
1.449131313E1,2.547412589E-1,-7.456844194E0,3.390946537E-1,7.468895743E0
1.450135612E1,3.868710834E-1,-6.025560992E0,7.280846950E-1,6.081707148E0
1.451139812E1,5.957865438E-1,-4.853911123E0,9.094255634E-1,4.974180299E0
1.452144112E1,8.900646284E-1,-4.017588546E0,9.216153270E-1,4.216942918E0
1.453148312E1,1.130472900E0,-3.139026268E0,9.915608170E-1,3.480610254E0
1.454152612E1,1.199292582E0,-2.358608919E0,1.057146769E0,2.849368004E0
1.455156812E1,1.042766127E0,-1.559035508E0,9.080005239E-1,2.083846890E0
1.456161112E1,8.314404443E-1,-9.096659571E-1,7.058845713E-1,1.420231810E0
1.457165312E1,5.218414852E-1,-8.075823426E-2,6.424820425E-1,8.316391063E-1
1.458169612E1,1.180409583E-1,8.478252196E-1,6.322418138E-1,1.064176199E0
1.459173762E1,-3.398632702E-1,1.659991779E0,6.106205644E-1,1.801093341E0
1.460178062E1,-8.878586201E-1,2.591173151E0,6.168952847E-1,2.807673596E0
1.461182262E1,-1.515274361E0,3.459081802E0,4.366303039E-1,3.801571955E0
1.462186562E1,-2.218144766E0,4.433507427E0,1.290989202E-1,4.959114925E0
1.463190763E1,-2.909782085E0,5.576148675E0,-2.320238759E-1,6.293973380E0
1.464195062E1,-3.324365754E0,6.483658179E0,-8.118923253E-1,7.331330043E0
1.465199262E1,-3.379171122E0,6.269842460E0,-1.169002250E0,7.217775849E0
1.466203562E1,-2.832833604E0,5.864391848E0,-1.721989222E0,6.736563283E0
1.467207762E1,-1.831113761E0,5.926512668E0,-2.084967998E0,6.543975975E0
1.468212062E1,-1.166687192E0,6.348316771E0,-2.230650791E0,6.829208430E0
1.469216262E1,-5.314619822E-1,6.729323682E0,-2.468285143E0,7.187397346E0
1.470220562E1,-2.812832326E-1,6.102889835E0,-2.374329743E0,6.554527162E0
1.471224762E1,-4.842553637E-1,4.817682944E0,-2.214401379E0,5.324297669E0
1.472228962E1,-7.942064714E-1,3.345934086E0,-2.210677287E0,4.088169871E0
1.473233262E1,-1.222173029E0,1.971841332E0,-2.228513780E0,3.216852315E0
1.474237462E1,-1.852230835E0,9.952721179E-1,-2.221959490E0,3.059155051E0
1.475241762E1,-2.435196627E0,4.097366202E-1,-2.068541415E0,3.221324308E0
1.476245962E1,-2.946231581E0,1.315377939E-1,-1.598574965E0,3.354552822E0
1.477250262E1,-3.252018448E0,2.637386620E-2,-9.533732363E-1,3.388988063E0
1.478254462E1,-3.225710947E0,-3.878458142E-3,-4.105089643E-1,3.251729350E0
1.479258762E1,-2.873100455E0,-9.482078791E-2,-7.536059640E-2,2.875652347E0
1.480262962E1,-2.402050223E0,-1.792557514E-1,2.102037847E-1,2.417884102E0
1.481267262E1,-2.007516510E0,-1.255759728E-1,3.715753520E-1,2.045473076E0
1.482271462E1,-1.650021692E0,-9.326308966E-3,6.627959275E-1,1.778189249E0
1.483275762E1,-1.281739053E0,8.087283969E-3,9.446211970E-1,1.592240437E0
1.484279962E1,-8.677219789E-1,2.876362324E-2,1.007826675E0,1.330219299E0
1.485284262E1,-3.997103995E-1,8.529333472E-3,1.007636055E0,1.084053307E0
1.486288462E1,1.931605764E-1,-4.205902219E-2,9.079807895E-1,9.292518947E-1
1.487292762E1,6.587186641E-1,-1.316383660E-1,7.814400262E-1,1.030479234E0
1.488296962E1,1.014063607E0,-1.992637539E-1,6.342697012E-1,1.212571275E0
1.489301262E1,1.242000352E0,-2.960901368E-1,5.407036527E-1,1.386576606E0
1.490305462E1,1.297694058E0,-4.360876822E-1,6.280658054E-1,1.506203503E0
1.491309762E1,1.169069347E0,-5.081534457E-1,8.364939004E-1,1.524685249E0
1.492313962E1,9.953343907E-1,-3.940386003E-1,9.674042881E-1,1.442854124E0
1.493318262E1,7.475464945E-1,-1.800439560E-1,9.378682476E-1,1.212781282E0
1.494322462E1,4.345440173E-1,-8.853386164E-2,7.676458597E-1,8.865364705E-1
1.495326662E1,2.005242674E-1,-1.123355377E-1,4.917421386E-1,5.428071350E-1
1.496330962E1,5.800891086E-2,-1.836943728E-1,2.587761301E-1,3.226046215E-1
1.497335162E1,4.005496211E-2,-2.279244661E-1,7.080386125E-2,2.420065062E-1
1.498339462E1,5.919151023E-2,-2.005349386E-1,-1.199047583E-1,2.410291425E-1
1.499343662E1,3.867626175E-2,-1.364342523E-1,-3.601095468E-1,3.870258959E-1
1.500347962E1,-4.489733376E-2,-1.302467287E-2,-6.580087390E-1,6.596672747E-1
1.501352162E1,-1.103840294E-1,7.632253647E-2,-8.334141719E-1,8.441498359E-1
1.502356462E1,-5.363943279E-2,1.878125668E-1,-9.439148533E-1,9.639118213E-1
1.503360662E1,8.473543726E-2,3.599984497E-1,-1.106577303E0,1.166744319E0
1.504364962E1,1.057405362E-1,6.131729472E-1,-1.227810622E0,1.376474136E0
1.505369162E1,-1.670681074E-2,8.283668554E-1,-1.151229054E0,1.418379039E0
1.506373463E1,-2.904165834E-1,8.803053331E-1,-8.297719413E-1,1.244106405E0
1.507377662E1,-5.190469547E-1,8.928318232E-1,-5.584471017E-1,1.174061996E0
1.508381962E1,-6.717972775E-1,9.330448794E-1,-3.077681959E-1,1.190212414E0
1.509386162E1,-7.518578658E-1,9.092648381E-1,3.455631360E-3,1.179857931E0
1.510390462E1,-8.292174791E-1,9.100699997E-1,3.500248539E-1,1.279979074E0
1.511394662E1,-8.795729694E-1,9.066499633E-1,6.946346015E-1,1.441589399E0
1.512398962E1,-9.718576006E-1,9.193004143E-1,9.151758615E-1,1.620853881E0
1.513403162E1,-1.128600548E0,9.932945895E-1,9.768756811E-1,1.792947137E0
1.514407462E1,-1.231140757E0,1.223335748E0,8.989550275E-1,1.954578742E0
1.515411662E1,-1.155736526E0,1.514472123E0,8.600956017E-1,2.090243329E0
1.516415962E1,-1.048432225E0,1.789856685E0,8.188896883E-1,2.230107039E0
1.517420162E1,-1.032342734E0,2.009258834E0,6.624567890E-1,2.354081898E0
1.518424462E1,-1.055101998E0,2.142719777E0,2.965321132E-1,2.406744599E0
1.519428662E1,-1.140900386E0,2.326535772E0,-2.821409460E-1,2.606535229E0
1.520432862E1,-1.167246624E0,2.483712437E0,-1.148784918E-1,2.746723361E0
1.521437162E1,-7.960893479E-1,2.608828819E0,1.017634209E0,2.911241220E0
1.522441362E1,-3.726907083E-1,2.615427402E0,2.004834831E0,3.316432052E0
1.523445662E1,-2.394195074E-1,2.674586021E0,2.372746317E0,3.583386272E0
1.524449862E1,-6.461787254E-1,2.828761311E0,1.196142687E0,3.138502003E0
1.525454162E1,-1.330929632E0,2.795585963E0,-1.613698204E0,3.491517787E0
1.526458362E1,-1.337136598E0,2.692433478E0,-3.356868380E0,4.506184376E0
1.527462663E1,-2.025100403E0,2.375336049E0,-2.452375600E0,3.969559053E0
1.528466862E1,-3.102352531E0,1.673818105E0,-2.793183342E0,4.497569506E0
1.529471162E1,-3.708455317E0,4.361467391E-1,-4.878312138E0,6.143353656E0
1.530475362E1,-4.538190129E0,-8.982732421E-1,-6.129864795E0,7.679668408E0
1.531479662E1,-5.467465893E0,-1.743314018E0,-4.307083608E0,7.175186148E0
1.532483862E1,-4.490451998E0,-1.948795116E0,-1.080903568E0,5.013014470E0
1.533488162E1,-1.427745636E0,-1.601379874E0,2.462736136E0,3.266181927E0
1.534492363E1,6.877541828E-1,-9.883466756E-1,2.791861287E0,3.040448061E0
1.535496662E1,2.275301884E0,3.030921775E-1,9.443329293E-1,2.482061283E0
1.536500862E1,3.666111243E0,1.763955858E0,-9.126685023E-2,4.069427669E0
1.537505162E1,3.781477685E0,2.749593519E0,-2.126490830E0,5.136321763E0
1.538509362E1,2.413332134E0,3.383591909E0,-3.112711458E0,5.192479063E0
1.539513662E1,1.387496327E0,3.573734007E0,-2.115908539E0,4.378788617E0
1.540517862E1,1.415623773E0,3.636721968E0,1.414645388E-1,3.905092772E0
1.541522162E1,3.670987236E-1,3.868578687E0,4.484358323E-1,3.911746058E0
1.542526362E1,-1.568245457E0,3.852380145E0,-8.464663998E-1,4.244612110E0
1.543530562E1,-2.948922177E0,3.264926176E0,4.327224635E-2,4.399745155E0
1.544534862E1,-3.783204076E0,2.082709218E0,2.718676366E0,5.103088472E0
1.545539062E1,-2.679716368E0,1.078113130E0,3.456906638E0,4.504820889E0
1.546543362E1,-4.674369442E-1,6.960209763E-1,1.823148392E0,2.006691943E0
1.547547562E1,8.852286887E-1,1.086775196E-1,3.471708865E0,3.584439018E0
1.548551863E1,4.512343097E-1,-3.002866834E-1,4.516924975E0,4.549329151E0
1.549556062E1,-1.021050153E0,-1.877657890E-1,3.342656722E0,3.500164763E0
1.550560362E1,-2.607549448E0,-6.241809154E-1,3.373458100E0,4.309191977E0
1.551564562E1,-2.588346607E0,-1.746049930E0,2.339539395E0,3.901496264E0
1.552568862E1,-1.819427224E0,-2.730927452E0,1.623329152E0,3.661076032E0
1.553573062E1,-1.219808123E0,-2.957010630E0,3.888953894E-1,3.222279216E0
1.554577362E1,-1.232380806E0,-2.806141357E0,4.508483204E-1,3.097814709E0
1.555581563E1,-1.681890187E0,-3.168403264E0,-2.042702130E-1,3.592945889E0
1.556585862E1,-2.094099010E0,-4.637681673E0,-1.102626413E0,5.206642581E0
1.557590062E1,-2.489421659E0,-6.462173170E0,-2.135565709E0,7.246898866E0
1.558594362E1,-2.503053857E0,-7.998850095E0,-2.950314399E0,8.885450833E0
1.559598554E1,-1.800248941E0,-8.896433950E0,-3.215609005E0,9.629515800E0
1.560602854E1,-7.622173047E-1,-8.921055406E0,-2.870481194E0,9.402439421E0
1.561607054E1,1.505845141E-1,-8.210628644E0,-1.728419990E0,8.391932679E0
1.562611354E1,8.515475571E-1,-7.007390946E0,-1.167343980E-1,7.059907084E0
1.563615554E1,6.522943282E-1,-5.722270010E0,6.568129834E-1,5.796659835E0
1.564619854E1,-2.808049303E-1,-4.667843950E0,5.440406587E-1,4.707823147E0
1.565624054E1,-1.661217940E0,-4.218322874E0,4.329037271E-2,4.533846819E0
1.566628354E1,-2.785599504E0,-4.709343978E0,2.357696754E-1,5.476593160E0
1.567632554E1,-3.920984942E0,-6.533497506E0,-3.842804014E-1,7.629441920E0
1.568636754E1,-5.231124360E0,-9.136052263E0,-1.370028209E0,1.061645375E1
1.569641054E1,-5.795435050E0,-1.186832048E1,-1.034916240E0,1.324821309E1
1.570645254E1,-6.086048099E0,-1.449245965E1,-9.185379374E-1,1.574531931E1
1.571649554E1,-6.335148257E0,-1.630317160E1,-5.266715777E-1,1.749871111E1
1.572653754E1,-6.106394656E0,-1.719118356E1,4.647073909E-1,1.824940550E1
1.573658054E1,-5.360589316E0,-1.776349734E1,1.737523520E0,1.863589932E1
1.574662254E1,-4.302360812E0,-1.780557390E1,3.290406003E0,1.861116713E1
1.575666554E1,-3.205134888E0,-1.717859217E1,4.245192584E0,1.798328609E1
1.576670754E1,-2.782156371E0,-1.693729629E1,5.031244894E0,1.788647044E1
1.577675054E1,-3.206555469E0,-1.737546792E1,5.096686932E0,1.838926592E1
1.578679254E1,-4.211900877E0,-1.820840730E1,4.402924150E0,1.920083192E1
1.579683554E1,-5.546947095E0,-1.837305553E1,5.725172567E0,2.002786540E1
1.580687754E1,-6.445764129E0,-1.705729753E1,6.765099871E0,1.944905783E1
1.581692054E1,-6.744589008E0,-1.445883816E1,6.755284735E0,1.732574251E1
1.582696254E1,-6.582967290E0,-1.013089286E1,6.153110400E0,1.355843708E1
1.583700554E1,-5.580156941E0,-3.919282817E0,5.052091388E0,8.486610435E0
1.584704754E1,-3.269088517E0,3.387468029E0,4.676323582E0,6.635501610E0
1.585709054E1,-2.424772942E0,6.356983514E0,2.687743426E0,7.315376132E0
1.586713254E1,-3.178737340E0,6.143364261E0,-2.710396416E-1,6.922337612E0
1.587717554E1,-1.137298179E1,5.036882780E0,-2.465068239E1,2.761106744E1
1.588721754E1,-1.804673295E1,4.152374468E0,-2.586749966E1,3.181280124E1
1.589726054E1,-9.750709233E0,6.236658341E0,-1.991541771E0,1.174472122E1
1.590730254E1,-5.522774706E0,8.735923787E0,-1.328040084E-1,1.033610380E1
1.591734454E1,-3.697833558E0,1.111548913E1,4.538407061E-1,1.172322664E1
1.592738754E1,-3.781390854E0,1.149000095E1,1.217097938E-2,1.209624681E1
1.593742954E1,-3.906546704E0,1.124046635E1,-1.037388150E0,1.194509795E1
1.594747254E1,-5.638757152E0,1.236814048E1,-9.940196443E0,1.683965517E1
1.595751454E1,-8.473657454E0,1.665153701E1,-2.487579786E1,3.111079997E1
1.596755754E1,-2.366988710E0,1.560825925E1,-6.491665356E0,1.706933249E1
1.597759954E1,-9.631741199E-1,1.228639874E1,-1.666429564E0,1.243624887E1
1.598764254E1,-1.004415117E0,1.071704348E1,-1.049734839E0,1.081507346E1
1.599768454E1,-8.159679808E-1,9.977484137E0,-1.580356210E0,1.013476784E1
1.600772754E1,-5.593043035E-1,9.459241320E0,-1.489926682E0,9.592181669E0
1.601776954E1,-8.681777693E-2,9.115909774E0,-9.905053215E-1,9.169975416E0
1.602781254E1,4.943385217E-1,8.957043264E0,-1.924429768E-1,8.972738094E0
1.603785454E1,7.196294750E-1,8.812903551E0,1.957019225E-2,8.842257549E0
1.604789754E1,8.172110257E-1,8.688610457E0,7.612855509E-2,8.727289447E0
1.605793954E1,8.823881114E-1,8.477096786E0,2.726620978E-1,8.527257667E0
1.606798254E1,8.925634360E-1,8.247731566E0,4.725954310E-1,8.309337634E0
1.607802454E1,1.062093806E0,8.046229498E0,8.661480546E-1,8.162111543E0
1.608806754E1,1.115644946E0,7.744423124E0,1.094034002E0,7.900485021E0
1.609810954E1,1.078295563E0,7.543024551E0,1.314575701E0,7.732273274E0
1.610815254E1,9.099574408E-1,7.773817077E0,1.689367021E0,8.007135282E0
1.611819454E1,5.391369644E-1,8.503081228E0,2.094698349E0,8.773871450E0
1.612823654E1,4.225408530E-1,9.225823980E0,2.192069693E0,9.492077666E0
1.613827954E1,4.963218972E-1,9.717102946E0,2.044241556E0,9.942200392E0
1.614832154E1,5.230059582E-1,1.001191839E1,1.822436786E0,1.018986364E1
1.615836454E1,4.779952615E-1,1.014408885E1,1.625412515E0,1.028459936E1
1.616840654E1,4.447436079E-1,1.019794405E1,1.577468855E0,1.032880766E1
1.617844954E1,5.269963905E-1,1.018766464E1,1.605186996E0,1.032680306E1
1.618849154E1,6.707098415E-1,1.003478451E1,1.573781601E0,1.017956484E1
1.619853454E1,7.813105103E-1,9.719404410E0,1.480393381E0,9.862496274E0
1.620857654E1,9.317856815E-1,9.522202969E0,1.428090037E0,9.673676400E0
1.621861954E1,1.088001357E0,9.431759992E0,1.315496053E0,9.585007739E0
1.622866154E1,1.117290352E0,9.421499298E0,1.196570703E0,9.562675786E0
1.623870454E1,1.117370167E0,9.552131358E0,1.069175076E0,9.676510988E0
1.624874654E1,1.048195851E0,9.742036058E0,9.620353746E-1,9.845379280E0
1.625878954E1,9.121907848E-1,9.872429552E0,7.436243284E-1,9.942330433E0
1.626883154E1,7.057758862E-1,9.917602801E0,4.593736339E-1,9.953290364E0
1.627887454E1,4.745024273E-1,9.934077916E0,2.713166535E-1,9.949103946E0
1.628891654E1,2.829415029E-1,9.937230735E0,1.564942950E-1,9.942489680E0
1.629895954E1,1.278575472E-1,9.989716512E0,3.746661673E-2,9.990604951E0
1.630900154E1,-1.054078479E-2,1.003978622E1,-5.261675477E-2,1.003992963E1
1.631904454E1,-1.365795556E-1,1.009776019E1,-1.014603013E-1,1.009919349E1
1.632908654E1,-2.636690801E-1,1.005747054E1,-1.373475873E-1,1.006186361E1
1.633912854E1,-4.362826869E-1,9.881468178E0,-2.257229894E-1,9.893670037E0
1.634917154E1,-6.577641061E-1,9.617358218E0,-3.410774446E-1,9.645857480E0
1.635921354E1,-7.778989524E-1,9.438484290E0,-4.560407209E-1,9.481460099E0
1.636925654E1,-9.495799282E-1,9.359538108E0,-1.353391857E0,9.504437129E0
1.637929854E1,-3.229440886E0,9.079475774E0,-8.396511630E0,1.278153263E1
1.638934154E1,-4.250307144E0,8.908904307E0,-7.375256824E0,1.232185457E1
1.639938354E1,-3.534248344E0,8.685945296E0,-3.024678118E0,9.853183991E0
1.640942654E1,-7.301508232E0,7.054652236E0,-9.572815298E0,1.395417262E1
1.641946854E1,-1.169893015E1,3.371200490E0,-7.165007322E0,1.412682871E1
1.642951154E1,-4.701747568E0,-1.192924379E0,1.997762039E0,5.246003425E0
1.643955354E1,-4.498162137E0,-5.193650724E0,-1.200901502E1,1.383560306E1
1.644959654E1,-3.669759614E0,-9.391709488E0,8.231727737E-1,1.011676609E1
1.645963854E1,-2.187375256E0,-3.024791788E1,5.274067481E0,3.078208788E1
1.646968154E1,-3.508665606E0,-6.605008252E1,1.313700840E1,6.743519204E1
1.647972354E1,-9.475010676E0,-7.372610609E1,1.324958835E1,7.550408027E1
1.648976654E1,-2.118001375E1,-5.315611598E1,1.397786959E1,5.890285635E1
1.649980854E1,-1.746712653E1,-2.524490919E1,5.893534371E0,3.125923378E1
1.650985154E1,-2.502881949E0,-1.227495223E1,5.119956511E-1,1.253798269E1
1.651989354E1,3.381472001E0,-7.025420251E0,-3.296535639E0,8.465106604E0
1.652993654E1,6.633197211E0,-3.244525241E0,-4.356151688E0,8.573348634E0
1.653997854E1,7.962646474E0,-8.393865180E-1,-2.203661213E0,8.304482605E0
1.655002154E1,7.040496127E0,8.617544568E-1,7.650548123E-1,7.134179373E0
1.656006354E1,6.257850405E0,1.954514278E0,3.291444468E0,7.335831544E0
1.657010554E1,6.106356064E0,2.041829579E0,5.129266448E0,8.232012312E0
1.658014854E1,3.982109103E0,-7.487184227E-2,7.049073992E0,8.096433959E0
1.659019075E1,-2.622315422E0,-4.420112625E0,6.036728005E0,7.928178782E0
