"Time (s)","Acceleration x (m/s^2)","Acceleration y (m/s^2)","Acceleration z (m/s^2)","Absolute acceleration (m/s^2)"
7.998750007E-4,1.247371078E1,6.272406464E0,2.301314392E0,1.415035659E1
1.080787500E-2,1.144939087E1,4.785398712E0,2.386337585E0,1.263658178E1
2.081487500E-2,1.022778122E1,3.505560150E0,2.455793152E0,1.108726209E1
3.082287500E-2,8.974138184E0,2.518961792E0,2.580034790E0,9.671447884E0
4.083087500E-2,7.894283752E0,1.737287292E0,2.675536194E0,8.514480432E0
5.083887499E-2,7.013814697E0,1.117725677E0,2.791844330E0,7.631336846E0
6.084587500E-2,6.214776306E0,5.581892395E-1,2.766397247E0,6.825538330E0
7.085387500E-2,5.430706787E0,2.242337036E-1,2.679278412E0,6.059817635E0
8.086187499E-2,4.812342682E0,1.125659180E-1,2.709964600E0,5.524058409E0
9.086887500E-2,4.339925079E0,-1.646575928E-3,2.767594757E0,5.147284055E0
1.008768750E-1,3.945944366E0,-1.116677856E-1,2.782264252E0,4.829486619E0
1.108848750E-1,3.505111084E0,-3.257226562E-1,2.719844055E0,4.448533539E0
1.208928750E-1,3.058889008E0,-5.757028198E-1,2.609373779E0,4.061658186E0
1.308998750E-1,2.566413116E0,-7.867639160E-1,2.453398132E0,3.636569282E0
1.409078750E-1,1.985022125E0,-8.681945801E-1,2.244432678E0,3.119543671E0
1.509158750E-1,1.398990784E0,-8.839118958E-1,2.014361115E0,2.606938080E0
1.609238750E-1,9.009764099E-1,-8.909472656E-1,1.778002625E0,2.183309152E0
1.709308750E-1,3.423381042E-1,-7.701484680E-1,1.488804016E0,1.710807248E0
1.809388750E-1,-1.740879822E-1,-6.948550415E-1,1.238075409E0,1.430370886E0
1.909468750E-1,-6.315367126E-1,-7.900570679E-1,1.028810577E0,1.442733515E0
2.009540000E-1,-9.915380859E-1,-8.985813904E-1,8.704399109E-1,1.596327639E0
2.109620000E-1,-1.272952881E0,-8.726852417E-1,7.750881958E-1,1.727064063E0
2.209700000E-1,-1.447789307E0,-8.403524780E-1,7.370672607E-1,1.829085649E0
2.309780000E-1,-1.576970673E0,-8.969348145E-1,6.340814209E-1,1.921818881E0
2.409850000E-1,-1.664388885E0,-9.422904968E-1,5.227130127E-1,1.982758340E0
2.509930000E-1,-1.754800873E0,-9.246272278E-1,3.363505554E-1,2.011813438E0
2.610010000E-1,-1.698368225E0,-9.286688232E-1,2.433938599E-1,1.950928236E0
2.710080000E-1,-1.577120361E0,-9.557624817E-1,2.011816406E-1,1.855064583E0
2.810160000E-1,-1.468146973E0,-9.804611206E-1,2.294728088E-1,1.780285739E0
2.910240000E-1,-1.338815918E0,-1.145268402E0,1.630110168E-1,1.769361570E0
3.010320000E-1,-1.184935913E0,-1.352886658E0,1.960922241E-1,1.809095793E0
3.110390000E-1,-9.529183960E-1,-1.509011993E0,2.567161560E-1,1.803073446E0
3.210470000E-1,-6.261479187E-1,-1.525028687E0,2.992277527E-1,1.675503196E0
3.310550000E-1,-2.022294617E-1,-1.448388062E0,2.775228882E-1,1.488537432E0
3.410630000E-1,4.614903259E-1,-1.359772339E0,2.972817993E-1,1.466400560E0
3.510700000E-1,1.375789032E0,-1.224304047E0,3.709286499E-1,1.878644171E0
3.610780000E-1,2.380050659E0,-9.437873840E-1,3.875440979E-1,2.589510802E0
3.710860000E-1,3.541784821E0,-6.071374512E-1,4.501139832E-1,3.621527053E0
3.810930000E-1,4.662504272E0,-3.412902832E-2,7.602690125E-1,4.724205738E0
3.911010000E-1,6.082002411E0,8.490344238E-1,1.193767548E0,6.255932683E0
4.011090000E-1,7.797734528E0,1.655108185E0,1.341210938E0,8.083495138E0
4.111170000E-1,9.803413696E0,2.570155334E0,1.473386078E0,1.024126384E1
4.211240000E-1,1.232327362E1,3.993844757E0,1.702409821E0,1.306568283E1
4.311320000E-1,1.496273483E1,5.776188354E0,2.087558899E0,1.617422912E1
4.411400000E-1,1.753827896E1,7.306905212E0,2.284698944E0,1.913640358E1
4.511480000E-1,1.959874420E1,8.435258789E0,2.311044159E0,2.146171685E1
4.611550000E-1,2.104458755E1,1.000190094E1,2.640509033E0,2.344962635E1
4.711630000E-1,2.235975266E1,1.251068390E1,3.514691162E0,2.586172470E1
4.811710000E-1,2.387280624E1,1.506706787E1,4.280648346E0,2.855260693E1
4.911780000E-1,2.529948944E1,1.678190186E1,4.167783051E0,3.064419703E1
5.011860000E-1,2.630524796E1,1.812745377E1,4.015549622E0,3.219775285E1
5.111940000E-1,2.643742310E1,1.926718369E1,4.129013672E0,3.297287462E1
5.212020000E-1,2.537328598E1,1.992282028E1,4.313280487E0,3.254730093E1
5.312090000E-1,2.357357849E1,2.009885422E1,4.149670715E0,3.125535651E1
5.412170000E-1,2.147599045E1,1.979962646E1,3.785777435E0,2.945463435E1
5.512250000E-1,1.917422699E1,1.911839310E1,3.423979797E0,2.729262855E1
5.612330000E-1,1.703023544E1,1.830618210E1,3.135080566E0,2.519868950E1
5.712400000E-1,1.552541473E1,1.753079453E1,3.056194611E0,2.361583335E1
5.812480000E-1,1.485510864E1,1.673579773E1,3.016227722E0,2.258005332E1
5.912560000E-1,1.485480927E1,1.589334961E1,2.824177094E0,2.193718068E1
6.012630000E-1,1.492800705E1,1.503548355E1,2.518961792E0,2.133673660E1
6.112710000E-1,1.493294678E1,1.430290695E1,2.341580658E0,2.080983053E1
6.212790000E-1,1.490360779E1,1.347183517E1,2.183958435E0,2.020835329E1
6.312870000E-1,1.489881775E1,1.245604752E1,2.033221893E0,1.952592844E1
6.412940000E-1,1.481529144E1,1.132724487E1,1.927242279E0,1.874869595E1
6.513020000E-1,1.441038345E1,1.020143600E1,2.021695862E0,1.777120429E1
6.613100000E-1,1.375130402E1,9.104067993E0,2.318528595E0,1.665406830E1
6.713180000E-1,1.321032898E1,7.960446167E0,2.545007629E0,1.563197232E1
6.813250000E-1,1.262369888E1,6.843319244E0,2.765050049E0,1.462307401E1
6.913330000E-1,1.186507645E1,5.884712677E0,3.113525391E0,1.360529025E1
7.013410000E-1,1.106154739E1,5.019661560E0,3.466491394E0,1.263215720E1
7.113480000E-1,1.033570679E1,4.116439819E0,3.695515137E0,1.172300063E1
7.213560000E-1,9.488468628E0,3.080444183E0,3.773502960E0,1.066580976E1
7.313640000E-1,8.500523071E0,2.225122833E0,3.852239227E0,9.594259282E0
7.413720000E-1,7.540718994E0,1.571581879E0,3.721710663E0,8.554732188E0
7.513790000E-1,6.640790405E0,9.927355957E-1,3.450474701E0,7.549264655E0
7.613870000E-1,5.792055359E0,4.520599365E-1,3.115471344E0,6.592300445E0
7.713950000E-1,4.886288910E0,8.143066406E-2,2.711311798E0,5.588708431E0
7.814030000E-1,4.008065186E0,-2.960842896E-1,2.330503693E0,4.645804548E0
7.914100000E-1,3.101400604E0,-7.176077271E-1,1.974244537E0,3.745836095E0
8.014180000E-1,2.192790070E0,-9.488768005E-1,1.607058105E0,2.879467177E0
8.114260000E-1,1.512305145E0,-1.076860657E0,1.309476929E0,2.271877099E0
8.214330000E-1,1.003962250E0,-1.234482880E0,9.779164124E-1,1.867674674E0
8.314410000E-1,4.144880676E-1,-1.317260742E0,6.969506836E-1,1.546840805E0
8.414490000E-1,-1.660047913E-1,-1.306782532E0,5.246589661E-1,1.417922849E0
8.514570000E-1,-6.388714600E-1,-1.225800934E0,3.600013733E-1,1.428406686E0
8.614640000E-1,-1.009650421E0,-1.191222839E0,2.794688416E-1,1.586350737E0
8.714720000E-1,-1.339714050E0,-1.173858948E0,2.642005920E-1,1.800716668E0
8.814800000E-1,-1.564396820E0,-1.076860657E0,2.594105530E-1,1.916835966E0
8.914880000E-1,-1.711840210E0,-9.925859070E-1,1.989363098E-1,1.988768298E0
9.014950000E-1,-1.910926208E0,-8.885522461E-1,1.454974365E-1,2.112423625E0
9.115030000E-1,-2.131118317E0,-7.146139526E-1,1.514849854E-1,2.252839560E0
9.215110000E-1,-2.232607269E0,-4.813989258E-1,1.725910950E-1,2.290429617E0
9.315180000E-1,-2.150577850E0,-2.056723022E-1,1.501377869E-1,2.165600965E0
9.415260000E-1,-1.890418854E0,2.829116821E-2,1.651066589E-1,1.897826136E0
9.515340000E-1,-1.584006042E0,2.821632385E-1,1.853146362E-1,1.619577954E0
9.615420000E-1,-1.267115021E0,7.050338745E-1,3.110531616E-1,1.483039888E0
9.715490000E-1,-7.854167175E-1,1.050665131E0,5.098397827E-1,1.407378144E0
9.815570000E-1,-1.472937012E-1,1.225501556E0,5.077441406E-1,1.334673597E0
9.915650000E-1,4.899311829E-1,1.333127747E0,4.192781067E-1,1.480897121E0
1.001573000E0,9.828561401E-1,1.380728760E0,5.227130127E-1,1.773597190E0
1.011580000E0,1.440155182E0,1.266815643E0,6.719526672E-1,2.032335900E0
1.021588000E0,1.720971222E0,1.122366028E0,7.933502197E-1,2.202464987E0
1.031596000E0,1.994003448E0,9.563612366E-1,1.038091278E0,2.443012499E0
1.041604000E0,2.411934357E0,8.250842285E-1,1.357077942E0,2.887880168E0
1.051611000E0,3.006797333E0,7.894583130E-1,1.653461609E0,3.521080789E0
1.061619000E0,3.771107941E0,6.807843018E-1,1.944456482E0,4.297165738E0
1.071627000E0,4.820425873E0,8.753796387E-1,2.312241669E0,5.417495421E0
1.081634000E0,6.376589813E0,1.378034363E0,2.576741638E0,7.014233659E0
1.091642000E0,8.153544617E0,1.753603363E0,2.547702026E0,8.720447247E0
1.101650000E0,9.877060547E0,1.993255005E0,2.306403809E0,1.033677363E1
1.111658000E0,1.156450150E1,2.116299133E0,2.180814972E0,1.195710545E1
1.121665000E0,1.297651520E1,2.249372406E0,2.589016113E0,1.342209474E1
1.131673000E0,1.401445679E1,2.442021790E0,3.274740143E0,1.459768449E1
1.141681000E0,1.456037155E1,2.840942230E0,3.892804871E0,1.533718691E1
1.151689000E0,1.541284882E1,3.697461090E0,4.372108154E0,1.644209405E1
1.161696000E0,1.702619385E1,5.117258606E0,4.237537994E0,1.827660638E1
1.171704000E0,1.908336594E1,6.369105377E0,3.766317902E0,2.046766986E1
1.181712000E0,2.116014725E1,7.599546661E0,3.364104309E0,2.273372250E1
1.191720000E0,2.264461029E1,9.272018738E0,3.099155273E0,2.466482252E1
1.201727250E0,2.368868912E1,1.143756546E1,3.021616516E0,2.647833194E1
1.211735250E0,2.487093063E1,1.373947861E1,2.966531067E0,2.856810756E1
1.221743250E0,2.588462265E1,1.538964706E1,2.454296265E0,3.021387921E1
1.231750250E0,2.584675140E1,1.634511017E1,1.775757294E0,3.063283367E1
1.241758250E0,2.486584122E1,1.714295105E1,1.487307129E0,3.023909576E1
1.251766250E0,2.347882553E1,1.765533554E1,1.489253082E0,2.941401020E1
1.261774250E0,2.182835770E1,1.771101974E1,1.526675262E0,2.815116618E1
1.271781250E0,2.019001465E1,1.730910553E1,1.644330597E0,2.664480529E1
1.281789250E0,1.904594376E1,1.678938629E1,2.028731232E0,2.547051660E1
1.291797250E0,1.844868576E1,1.636052811E1,2.736908569E0,2.480950533E1
1.301805250E0,1.812026871E1,1.594678848E1,3.170556793E0,2.434536160E1
1.311812250E0,1.780906586E1,1.542527298E1,3.206033020E0,2.377773162E1
1.321820250E0,1.742631180E1,1.490091339E1,2.944227448E0,2.311670474E1
1.331828250E0,1.725357101E1,1.435649551E1,2.564766541E0,2.259142987E1
1.341836250E0,1.699161575E1,1.366238892E1,2.183509369E0,2.191217903E1
1.351843250E0,1.657398422E1,1.267159927E1,1.838177490E0,2.094386014E1
1.361851250E0,1.593960342E1,1.148741180E1,1.793270874E0,1.972935396E1
1.371859250E0,1.513966690E1,1.016057098E1,1.995500336E0,1.834199384E1
1.381867250E0,1.425874878E1,8.677754517E0,2.204316101E0,1.683669652E1
1.391874250E0,1.300106415E1,7.265890503E0,2.480192413E0,1.509874790E1
1.401882250E0,1.163979492E1,6.054908752E0,2.796933746E0,1.341527429E1
1.411890250E0,1.044976959E1,4.919519806E0,3.134930878E0,1.196775465E1
1.421897250E0,9.506580963E0,3.887865143E0,3.425177307E0,1.082693015E1
1.431905250E0,8.853040009E0,3.015628967E0,3.664828949E0,1.004496425E1
1.441913250E0,8.283324738E0,2.146685944E0,3.760180664E0,9.346693954E0
1.451921250E0,7.651937714E0,1.420995026E0,3.877536621E0,8.695209479E0
1.461928250E0,7.159312134E0,9.177415466E-1,4.095333710E0,8.298780511E0
1.471936250E0,6.728058929E0,3.125500488E-1,4.062701569E0,7.865749076E0
1.481944250E0,6.219117279E0,-3.432362366E-1,3.871998138E0,7.334003029E0
1.491952250E0,5.610932007E0,-7.421566772E-1,3.817960510E0,6.827164637E0
1.501959250E0,5.004692688E0,-9.032217407E-1,3.769311676E0,6.330123927E0
1.511967250E0,4.498146057E0,-1.135239258E0,3.610941010E0,5.878858826E0
1.521975250E0,4.002077637E0,-1.542392578E0,3.352278900E0,5.443654480E0
1.531983250E0,3.342549133E0,-1.840273132E0,3.056194611E0,4.888718176E0
1.541990250E0,2.571951599E0,-2.033072205E0,2.815195770E0,4.321301290E0
1.551998250E0,1.826501770E0,-2.261646881E0,2.652633820E0,3.935431553E0
1.562006250E0,1.177900543E0,-2.453697510E0,2.492766266E0,3.690794605E0
1.572013250E0,6.409671021E-1,-2.587519226E0,2.279459839E0,3.507425228E0
1.582021250E0,2.228865051E-1,-2.739602966E0,2.096839600E0,3.457143201E0
1.592029250E0,-1.800755310E-1,-2.869682465E0,1.988914032E0,3.496181298E0
1.602037250E0,-5.785469055E-1,-2.926564178E0,1.890119476E0,3.531578407E0
1.612044250E0,-9.595046997E-1,-2.893033905E0,1.713337097E0,3.496543787E0
1.622052250E0,-1.203497314E0,-2.870430908E0,1.451830902E0,3.434471190E0
1.632060250E0,-1.403331757E0,-2.910397797E0,1.093625793E0,3.411124848E0
1.642068250E0,-1.672172699E0,-2.899021454E0,7.824229431E-1,3.436956879E0
1.652075250E0,-1.989812164E0,-2.701132965E0,5.240602112E-1,3.395601692E0
1.662083250E0,-2.105521545E0,-2.534679108E0,2.793191528E-1,3.306937911E0
1.672091250E0,-2.047741699E0,-2.467319183E0,9.729766846E-2,3.207861726E0
1.682099250E0,-1.920655975E0,-2.407294006E0,-2.963836670E-2,3.079750354E0
1.692106250E0,-1.555415497E0,-2.294129333E0,-2.092648315E-1,2.779593232E0
1.702114250E0,-1.047671356E0,-2.220183105E0,-3.562591553E-1,2.480675085E0
1.712122250E0,-4.816983032E-1,-2.138602753E0,-4.086502075E-1,2.229943941E0
1.722129250E0,1.933978271E-1,-1.941911774E0,-5.075944519E-1,2.016451384E0
1.732137250E0,1.228944397E0,-1.674268341E0,-5.529501343E-1,2.149240019E0
1.742145250E0,2.482138367E0,-1.186582489E0,-6.508465576E-1,2.827116927E0
1.752153250E0,4.054019623E0,-4.123924255E-1,-5.827381897E-1,4.116397261E0
1.762160250E0,5.833668823E0,5.077441406E-1,-3.267704773E-1,5.864833757E0
1.772168250E0,7.883955231E0,1.739382935E0,3.025209045E-1,8.079215430E0
1.782176250E0,1.051084259E1,2.692451019E0,8.190966797E-1,1.088108560E1
1.792184250E0,1.333397186E1,3.292253723E0,1.021326141E0,1.377232178E1
1.802191250E0,1.617296814E1,4.078867950E0,1.314566345E0,1.673111314E1
1.812199250E0,1.859687759E1,5.263654175E0,1.491498413E0,1.938490338E1
1.822207250E0,1.965218307E1,7.020700378E0,1.456171875E0,2.091934440E1
1.832215250E0,2.015633469E1,9.713600464E0,1.615440674E0,2.243304506E1
1.842222250E0,2.141147461E1,1.298205368E1,2.236349487E0,2.513933614E1
1.852230250E0,2.302182587E1,1.623583740E1,3.172353058E0,2.834908652E1
1.862238250E0,2.448293747E1,1.858969254E1,4.869823151E0,3.112404333E1
1.872246250E0,2.557102478E1,1.998658768E1,6.478976898E0,3.309559090E1
1.882253250E0,2.631767212E1,2.096180969E1,7.192393341E0,3.440563694E1
1.892261250E0,2.563374435E1,2.157927567E1,6.686894531E0,3.416823885E1
1.902269250E0,2.353301285E1,2.182177139E1,5.723647614E0,3.259988562E1
1.912277250E0,2.115056717E1,2.166070633E1,5.020260315E0,3.068771259E1
1.922284250E0,1.870899445E1,2.138468033E1,4.429738312E0,2.875680106E1
1.932292250E0,1.660392197E1,2.106255020E1,3.914659424E0,2.710435028E1
1.942300250E0,1.557151886E1,2.044523392E1,3.953877869E0,2.600217183E1
1.952308250E0,1.558558960E1,1.959754669E1,4.017196198E0,2.535965900E1
1.962315250E0,1.600546646E1,1.885119873E1,4.049528961E0,2.505875765E1
1.972323250E0,1.638747208E1,1.784633835E1,4.048630829E0,2.456486200E1
1.982331250E0,1.644076126E1,1.647818344E1,3.923191681E0,2.360552040E1
1.992339250E0,1.631816620E1,1.499027756E1,3.592229919E0,2.244760756E1
2.002346250E0,1.604977432E1,1.338022568E1,3.160827026E0,2.113330363E1
2.012354250E0,1.557975174E1,1.186971680E1,3.060236206E0,1.982382119E1
2.022362250E0,1.494192810E1,1.031280441E1,2.918331299E0,1.838836066E1
2.032370250E0,1.427611267E1,8.675359497E0,2.746189270E0,1.692958390E1
2.042377250E0,1.359996872E1,7.363936615E0,2.861449585E0,1.572814691E1
2.052385250E0,1.293385391E1,6.331683197E0,3.022514648E0,1.471429183E1
2.062393250E0,1.218795502E1,5.367538147E0,3.068020020E0,1.366636236E1
2.072400250E0,1.150477570E1,4.424948273E0,3.200943604E0,1.273522952E1
2.082408250E0,1.086500610E1,3.355721741E0,3.289559326E0,1.183766981E1
2.092416250E0,1.005174728E1,2.348765717E0,3.304827576E0,1.083864425E1
2.102424250E0,9.175619202E0,1.567839661E0,3.285218353E0,9.871310377E0
2.112431250E0,8.309370575E0,1.117725677E0,3.272045746E0,9.000068522E0
2.122439250E0,7.535180511E0,6.735992432E-1,3.229983215E0,8.225902555E0
2.132447250E0,6.790628815E0,9.116043091E-2,3.123853912E0,7.475253386E0
2.142455250E0,5.964347076E0,-3.484753418E-1,3.100801849E0,6.731258665E0
2.152462250E0,4.990921326E0,-5.755531311E-1,3.094365234E0,5.900479073E0
2.162470250E0,4.020788727E0,-7.961943054E-1,2.930156708E0,5.038500341E0
2.172478250E0,3.179837494E0,-1.138831787E0,2.652334442E0,4.294552633E0
2.182486250E0,2.420017548E0,-1.446591797E0,2.333347778E0,3.659730128E0
2.192493250E0,1.694027252E0,-1.653910675E0,1.982926483E0,3.088227046E0
2.202501750E0,9.363029480E-1,-1.796713715E0,1.604064331E0,2.584156683E0
2.212509750E0,1.935475159E-1,-1.938768311E0,1.225351868E0,2.301688598E0
2.222517750E0,-5.533992004E-1,-2.048789520E0,8.910969543E-1,2.301704359E0
2.232524750E0,-1.250050507E0,-2.100881195E0,5.560935974E-1,2.507103539E0
2.242532750E0,-1.893712006E0,-2.130070496E0,3.188369751E-1,2.867926515E0
2.252540750E0,-2.456990662E0,-2.107766876E0,1.604663086E-1,3.241177834E0
2.262548750E0,-2.909649353E0,-2.061513062E0,5.194198608E-2,3.566313703E0
2.272555750E0,-3.231031036E0,-2.020648041E0,-4.849914551E-2,3.811158909E0
2.282563750E0,-3.401825867E0,-2.011067963E0,-2.038760376E-1,3.957066971E0
2.292571750E0,-3.462749176E0,-2.074835358E0,-3.743714905E-1,4.054100101E0
2.302579750E0,-3.450474701E0,-2.109712830E0,-5.095404053E-1,4.076309030E0
2.312586750E0,-3.400628357E0,-2.100282440E0,-6.221063232E-1,4.045055726E0
2.322594750E0,-3.332819366E0,-2.064656525E0,-7.080276489E-1,3.983942099E0
2.332602750E0,-3.184477844E0,-2.012115784E0,-7.577243042E-1,3.842350217E0
2.342610750E0,-3.005749512E0,-1.964065704E0,-7.927514648E-1,3.677028570E0
2.352617750E0,-2.703527985E0,-1.959125977E0,-7.794291687E-1,3.428519795E0
2.362625750E0,-2.319426727E0,-1.958676910E0,-7.461982727E-1,3.126174570E0
2.372633750E0,-1.914518738E0,-1.883982239E0,-7.014413452E-1,2.776110775E0
2.382641750E0,-1.319057007E0,-1.876048737E0,-6.036946106E-1,2.371480009E0
2.392648750E0,-6.077362061E-1,-1.954485626E0,-5.134323120E-1,2.110206174E0
2.402656750E0,1.618135071E-1,-2.038011932E0,-4.456233215E-1,2.092428348E0
2.412664750E0,8.824150085E-1,-2.054328003E0,-3.676354980E-1,2.265849874E0
2.422672750E0,1.739233246E0,-2.014361115E0,-2.570155334E-1,2.673694068E0
2.432679750E0,2.809357910E0,-1.995500336E0,-6.421646118E-2,3.446539890E0
2.442687750E0,4.347559204E0,-1.797911224E0,1.522334290E-1,4.707114915E0
2.452695750E0,6.710245972E0,-1.249002686E0,2.905458069E-1,6.831678094E0
2.462702750E0,9.458231506E0,-5.038522339E-1,5.137316895E-1,9.485564324E0
2.472710750E0,1.249706223E1,3.860472107E-1,8.720864868E-1,1.253340064E1
2.482718750E0,1.530222885E1,1.506018219E0,1.765129395E0,1.547714381E1
2.492726750E0,1.738604553E1,2.750380554E0,3.430416412E0,1.793340261E1
2.502734750E0,1.904744064E1,4.345613251E0,5.205724640E0,2.021852909E1
2.512741750E0,2.114757339E1,6.238427124E0,6.482419739E0,2.298172315E1
2.522749750E0,2.346939514E1,7.579488373E0,6.862778778E0,2.559997822E1
2.532757750E0,2.501792496E1,8.276588745E0,6.432723083E0,2.712523579E1
2.542764750E0,2.548240906E1,9.965376892E0,5.941145325E0,2.799926991E1
2.552772750E0,2.550635925E1,1.280287628E1,5.741310883E0,2.911100572E1
2.562780750E0,2.552566910E1,1.537048691E1,5.338947601E0,3.027071212E1
2.572788750E0,2.530817139E1,1.697065933E1,4.952301636E0,3.087121813E1
2.582796750E0,2.524305679E1,1.819705902E1,4.857848053E0,3.149513551E1
2.592803750E0,2.479578690E1,1.936942108E1,4.391417999E0,3.176932597E1
2.602811750E0,2.342942825E1,2.026500870E1,3.649111633E0,3.119174092E1
2.612819750E0,2.153661438E1,2.081870728E1,3.130739594E0,3.011720209E1
2.622827750E0,1.971954300E1,2.098620895E1,2.756368103E0,2.892885942E1
2.632834750E0,1.840812012E1,2.061063995E1,2.458936615E0,2.774353501E1
2.642842750E0,1.771775574E1,2.010514114E1,2.275567932E0,2.689449345E1
2.652850750E0,1.752465729E1,1.966041595E1,2.064357147E0,2.641793215E1
2.662857750E0,1.767180130E1,1.917273010E1,1.754800873E0,2.613360800E1
2.672865750E0,1.791459641E1,1.864582581E1,1.686243439E0,2.591221722E1
2.682873750E0,1.822639801E1,1.782283722E1,1.509011993E0,2.553687977E1
2.692881750E0,1.840542572E1,1.671633820E1,1.355880432E0,2.490048334E1
2.702889750E0,1.850916000E1,1.552870789E1,1.463506622E0,2.420478515E1
2.712896750E0,1.841590393E1,1.422072784E1,1.750759277E0,2.333323330E1
2.722904750E0,1.814930832E1,1.276350815E1,2.211201782E0,2.229784622E1
2.732912750E0,1.764650391E1,1.117276611E1,2.770289154E0,2.106903664E1
2.742920750E0,1.696152832E1,9.627679138E0,3.281775513E0,1.977765656E1
2.752927750E0,1.626158386E1,8.181686096E0,3.907773743E0,1.861853358E1
2.762935750E0,1.549517761E1,7.022496643E0,4.508324890E0,1.759945970E1
2.772943750E0,1.470841370E1,6.091732178E0,4.814138947E0,1.663197427E1
2.782951750E0,1.383857254E1,5.140011292E0,4.882696381E0,1.554884336E1
2.792958750E0,1.289313858E1,4.193080444E0,4.902006226E0,1.441681695E1
2.802966750E0,1.205323517E1,3.414399719E0,5.056185608E0,1.350938993E1
2.812974750E0,1.138472534E1,2.471660156E0,4.991969147E0,1.267441640E1
2.822982750E0,1.027867538E1,1.464554443E0,4.522245941E0,1.132461018E1
2.832989750E0,8.940158844E0,7.144642639E-1,4.230053558E0,9.916161175E0
2.842997750E0,7.648644562E0,2.469863892E-2,3.935017090E0,8.601554113E0
2.853005750E0,6.340963898E0,-7.499404907E-1,3.336711273E0,7.204434469E0
2.863013750E0,5.015619965E0,-1.526076508E0,2.765199738E0,5.927198556E0
2.873020750E0,3.717220001E0,-2.113754425E0,2.373614044E0,4.890779686E0
2.883028750E0,2.579885101E0,-2.504741364E0,2.064207458E0,4.146141443E0
2.893036750E0,1.603016510E0,-2.726280670E0,1.702858887E0,3.591934940E0
2.903044750E0,7.656578064E-1,-2.931204529E0,1.367556152E0,3.323913611E0
2.913051750E0,5.643264771E-2,-3.148103485E0,1.088386688E0,3.331414982E0
2.923059750E0,-5.498066711E-1,-3.314108276E0,8.963360596E-1,3.476926714E0
2.933067750E0,-1.063238983E0,-3.421734467E0,6.944059753E-1,3.649786782E0
2.943075750E0,-1.396595764E0,-3.496728516E0,5.017565918E-1,3.798598389E0
2.953082750E0,-1.529818726E0,-3.640878754E0,3.363505554E-1,3.963518024E0
2.963090750E0,-1.674118652E0,-3.780837708E0,1.974394226E-1,4.139612223E0
2.973098750E0,-1.888173523E0,-3.755690002E0,9.550140381E-2,4.204702982E0
2.983106750E0,-2.041604462E0,-3.683240662E0,-5.014572144E-2,4.211522901E0
2.993113750E0,-2.253114624E0,-3.608246613E0,-1.170565796E-1,4.255545954E0
3.003121750E0,-2.512076111E0,-3.485651550E0,-2.053729248E-1,4.301449890E0
3.013129750E0,-2.780617676E0,-3.350632324E0,-2.897973633E-1,4.363777508E0
3.023137750E0,-3.022514648E0,-3.224444733E0,-2.383044434E-1,4.425994537E0
3.033144750E0,-3.142115936E0,-3.065625000E0,-1.582209778E-1,4.392719326E0
3.043152750E0,-2.895279236E0,-2.840193787E0,-1.444496155E-1,4.058350440E0
3.053160750E0,-2.321672058E0,-2.731519775E0,-7.933502197E-2,3.585757308E0
3.063168750E0,-1.566642151E0,-2.754571838E0,-4.834945679E-2,3.169285615E0
3.073175750E0,-8.927435303E-1,-2.652184753E0,-2.754272461E-2,2.798541331E0
3.083183750E0,-2.459385681E-1,-2.437830505E0,-2.844085693E-3,2.450206408E0
3.093191750E0,3.068618774E-1,-2.260449371E0,6.271957397E-2,2.282044986E0
3.103199750E0,7.997868347E-1,-2.078577576E0,1.715432739E-1,2.233734723E0
3.113206750E0,1.423539734E0,-1.848955078E0,3.103047180E-1,2.354015563E0
3.123214750E0,2.189347229E0,-1.466051331E0,2.679428101E-1,2.648460146E0
3.133222750E0,3.075953522E0,-8.164022827E-1,6.915618896E-2,3.183203627E0
3.143230750E0,3.949836273E0,-2.844085693E-3,2.230361938E-2,3.949900268E0
3.153237750E0,5.014871521E0,1.045875092E0,1.342707825E-1,5.124531171E0
3.163245750E0,6.548731842E0,2.412533112E0,4.704716492E-1,6.994822966E0
3.173253750E0,8.657696228E0,3.597768402E0,1.129102020E0,9.443225764E0
3.183261750E0,1.129715744E1,4.627776489E0,1.850302277E0,1.234770019E1
3.193268750E0,1.437954758E1,6.301745453E0,2.411485291E0,1.588391153E1
3.203280042E0,1.723785370E1,8.291108551E0,2.585273895E0,1.930206523E1
3.213288042E0,1.922841431E1,9.650431824E0,2.251318359E0,2.163171712E1
3.223296042E0,1.969813751E1,1.125614273E1,2.694097595E0,2.284678385E1
3.233303042E0,1.962808319E1,1.359413086E1,3.492686920E0,2.413008300E1
3.243311042E0,2.019944504E1,1.626173355E1,3.916306000E0,2.622592249E1
3.253319042E0,2.109233826E1,1.870495285E1,3.774850159E0,2.844312725E1
3.263327042E0,2.163585800E1,2.084999222E1,3.411555634E0,3.024022551E1
3.273334042E0,2.183778809E1,2.283007462E1,3.187621307E0,3.175314512E1
3.283342042E0,2.125025986E1,2.429672470E1,2.962190094E0,3.241417815E1
3.293350042E0,2.001577698E1,2.508902710E1,2.491269379E0,3.219156771E1
3.303358042E0,1.824346252E1,2.544393906E1,2.143542480E0,3.138172611E1
3.313365042E0,1.612252304E1,2.549483322E1,2.313738556E0,3.025352304E1
3.323373042E0,1.407478134E1,2.509067368E1,2.221230927E0,2.885437995E1
3.333381042E0,1.240245895E1,2.460777786E1,2.061363373E0,2.763354734E1
3.343389042E0,1.140059235E1,2.428010925E1,2.039359131E0,2.690085866E1
3.353396042E0,1.116453323E1,2.409329773E1,1.579066315E0,2.660126403E1
3.363404042E0,1.175565399E1,2.363854340E1,6.876699829E-1,2.640926021E1
3.373412042E0,1.264330811E1,2.301059921E1,-1.275347900E-1,2.625561237E1
3.383420042E0,1.353051315E1,2.220542358E1,-7.229965210E-1,2.601304186E1
3.393427042E0,1.431263672E1,2.110955246E1,-9.442364502E-1,2.552168406E1
3.403435042E0,1.455303680E1,1.980007553E1,-9.839039612E-1,2.459272125E1
3.413443042E0,1.432042053E1,1.831276840E1,-6.979985046E-1,2.325766826E1
3.423451042E0,1.394230682E1,1.661889084E1,-1.197509766E-2,2.169275445E1
3.433459042E0,1.346884140E1,1.484912109E1,7.881111145E-1,2.006308065E1
3.443466042E0,1.298100586E1,1.318682785E1,1.488953705E0,1.856383379E1
3.453474042E0,1.241308685E1,1.162422729E1,2.044298859E0,1.712853010E1
3.463482042E0,1.198108521E1,1.005713608E1,2.460134125E0,1.583491865E1
3.473490042E0,1.155971146E1,8.819509735E0,2.836152191E0,1.481399474E1
3.483497042E0,1.093955109E1,7.674391022E0,2.997666321E0,1.369511077E1
3.493505042E0,1.020038818E1,6.479425964E0,3.024909668E0,1.245716494E1
3.503513042E0,9.496252441E0,5.338648224E0,2.955005035E0,1.128769374E1
3.513521042E0,8.679251404E0,4.229005737E0,2.803520050E0,1.005353764E1
3.523528042E0,7.762857056E0,3.240162048E0,2.667303314E0,8.824687345E0
3.533536042E0,6.870562592E0,2.507884827E0,2.636317749E0,7.774592459E0
3.543544042E0,6.099216614E0,1.847757568E0,2.489024048E0,6.841775504E0
3.553552042E0,5.281018066E0,1.106798401E0,2.315385132E0,5.871555401E0
3.563559042E0,4.422403564E0,4.571493530E-1,2.284848633E0,4.998717045E0
3.573567042E0,3.744912415E0,-1.808239746E-1,2.194736023E0,4.344413944E0
3.583575042E0,3.189716949E0,-8.440946960E-1,2.099983063E0,3.911102011E0
3.593583042E0,2.723436584E0,-1.473086700E0,2.014660492E0,3.694042251E0
3.603590042E0,2.316882019E0,-1.976040802E0,1.857637024E0,3.567000821E0
3.613598042E0,1.927691345E0,-2.337389374E0,1.711091766E0,3.479542792E0
3.623606042E0,1.463955688E0,-2.665806427E0,1.544787598E0,3.411166792E0
3.633614042E0,9.336085510E-1,-2.943928070E0,1.354533234E0,3.372402362E0
3.643621042E0,3.921844482E-1,-3.171305237E0,1.231938171E0,3.424712719E0
3.653629042E0,-1.218466187E-1,-3.282973022E0,1.157093811E0,3.483048170E0
3.663637042E0,-5.334906006E-1,-3.355122986E0,1.017883301E0,3.546484017E0
3.673645042E0,-9.291178894E-1,-3.384461975E0,8.767268372E-1,3.617525793E0
3.683652042E0,-1.298549652E0,-3.332370300E0,7.301815796E-1,3.650217549E0
3.693660042E0,-1.491348724E0,-3.240611115E0,5.327421570E-1,3.606867841E0
3.703668042E0,-1.474433899E0,-3.158132629E0,2.950364685E-1,3.497828404E0
3.713676042E0,-1.405277710E0,-3.035687256E0,1.582209778E-1,3.348915710E0
3.723684042E0,-1.399290161E0,-2.891986084E0,7.349716187E-2,3.213564734E0
3.733691042E0,-1.385818176E0,-2.756817169E0,1.706451416E-2,3.085583271E0
3.743699042E0,-1.334175568E0,-2.674188995E0,4.939727783E-2,2.988938159E0
3.753707042E0,-1.256038055E0,-2.533481598E0,1.779798889E-1,2.833343863E0
3.763715042E0,-9.160949707E-1,-2.392325134E0,2.612068176E-1,2.575010397E0
3.773722042E0,-4.460723877E-1,-2.303410034E0,2.224374390E-1,2.356725859E0
3.783730042E0,-4.370910645E-2,-2.122586060E0,1.722917175E-1,2.130015611E0
3.793738042E0,4.504133606E-1,-1.976489868E0,2.680924988E-1,2.044812457E0
3.803746042E0,1.023272095E0,-1.750908966E0,3.408412170E-1,2.056438845E0
3.813753042E0,1.581161957E0,-1.232836304E0,2.424957275E-1,2.019594678E0
3.823761042E0,2.252665558E0,-5.650749207E-1,3.153941345E-1,2.343775851E0
3.833769042E0,3.143762512E0,8.741821289E-2,3.192860413E-1,3.161143504E0
3.843777042E0,4.039050751E0,7.976911926E-1,4.137396240E-1,4.137804089E0
3.853784042E0,5.126539307E0,1.608554993E0,8.893006897E-1,5.446072910E0
3.863792042E0,6.695277100E0,2.760409698E0,1.566941528E0,7.409581830E0
3.873800042E0,8.569080505E0,4.261338501E0,2.342329102E0,9.852646961E0
3.883808042E0,1.060784088E1,6.238726501E0,2.829565887E0,1.262752706E1
3.893815042E0,1.273910889E1,8.183332672E0,2.901117096E0,1.541649471E1
3.903823042E0,1.496213608E1,9.111851807E0,2.726879425E0,1.772927609E1
3.913831042E0,1.652683228E1,9.808353424E0,2.705324249E0,1.940769850E1
3.923839042E0,1.741912674E1,1.072250244E1,3.024610291E0,2.067719281E1
3.933846042E0,1.820589066E1,1.211056595E1,4.121978302E0,2.225108913E1
3.943854042E0,1.937331299E1,1.442625046E1,5.977220306E0,2.488310915E1
3.953862042E0,2.139590698E1,1.705643097E1,8.326734467E0,2.860141919E1
3.963870042E0,2.374976212E1,1.914054703E1,8.945397949E0,3.178729126E1
3.973878042E0,2.522838730E1,2.126403122E1,6.430777130E0,3.361525612E1
3.983885042E0,2.556249252E1,2.335667953E1,6.389313354E0,3.521077716E1
3.993893042E0,2.467663467E1,2.510384628E1,5.386249237E0,3.561110891E1
4.003901042E0,2.328842148E1,2.674802719E1,2.149530029E0,3.553066300E1
4.013909042E0,2.213686615E1,2.694546661E1,7.565267944E-1,3.488081631E1
4.023916042E0,2.118514526E1,2.578612747E1,-5.613327026E-2,3.337271192E1
4.033924042E0,1.982073257E1,2.449161942E1,-3.650907898E-1,3.150927090E1
4.043932042E0,1.807880493E1,2.330443817E1,3.879931641E-1,2.949729759E1
4.053940042E0,1.664209259E1,2.188868225E1,1.645228729E0,2.754596947E1
4.063947042E0,1.565085388E1,2.038790314E1,2.603086853E0,2.583392891E1
4.073955042E0,1.511362106E1,1.879656235E1,3.297492828E0,2.434349516E1
4.083963042E0,1.517379593E1,1.724623627E1,3.633544006E0,2.325681385E1
4.093971042E0,1.545086975E1,1.579545319E1,3.702550507E0,2.240389693E1
4.103979042E0,1.601774094E1,1.439227112E1,3.504662018E0,2.181715262E1
4.113986042E0,1.636711441E1,1.288954605E1,2.977907410E0,2.104497004E1
4.123994042E0,1.614123413E1,1.151600235E1,2.793790283E0,2.002406087E1
4.134002042E0,1.569276672E1,1.027628036E1,2.803969116E0,1.896647327E1
4.144010042E0,1.510344223E1,8.788524170E0,2.835104370E0,1.770282297E1
4.154017042E0,1.425141403E1,7.222331085E0,2.969973907E0,1.625071116E1
4.164025042E0,1.330268692E1,5.783972168E0,3.253933411E0,1.486619978E1
4.174033042E0,1.231519043E1,4.549489288E0,3.571722565E0,1.360584324E1
4.184041042E0,1.134326157E1,3.406017151E0,3.699257355E0,1.240786205E1
4.194048042E0,1.034618500E1,2.176473999E0,3.627706146E0,1.117769363E1
4.204051625E0,9.298064575E0,1.119372253E0,3.528312836E0,1.000779649E1
4.214059625E0,8.304580536E0,2.929408264E-1,3.370391235E0,8.967240896E0
4.224067625E0,7.279362488E0,-4.201762390E-1,3.114273834E0,7.928705305E0
4.234074625E0,6.268364868E0,-1.120719452E0,2.817141724E0,6.963095411E0
4.244082625E0,5.312452698E0,-1.747316437E0,2.478096771E0,6.116880905E0
4.254090625E0,4.337380371E0,-2.072140961E0,2.077080688E0,5.236497000E0
4.264098625E0,3.431314545E0,-2.315385132E0,1.763033752E0,4.499246140E0
4.274106625E0,2.596350861E0,-2.423610077E0,1.461560669E0,3.840713890E0
4.284113625E0,1.817370758E0,-2.303260345E0,1.139131165E0,3.147294791E0
4.294121625E0,1.108444977E0,-2.103575592E0,9.080117798E-1,2.545224141E0
4.304129625E0,5.043013000E-1,-1.927541656E0,7.646099854E-1,2.134095843E0
4.314137625E0,2.694396973E-3,-1.910776520E0,6.289920044E-1,2.011642391E0
4.324144625E0,-4.683760071E-1,-1.907633057E0,6.426136780E-1,2.066734696E0
4.334152625E0,-8.110134888E-1,-1.829944611E0,7.774832153E-1,2.147305359E0
4.344160625E0,-9.717791748E-1,-1.833686829E0,8.562194824E-1,2.244966359E0
4.354168625E0,-1.093625793E0,-1.859133911E0,8.530760193E-1,2.319511796E0
4.364175625E0,-1.254391479E0,-1.844165039E0,8.036787415E-1,2.370726090E0
4.374183625E0,-1.443747711E0,-1.796564026E0,6.417155457E-1,2.392456602E0
4.384191625E0,-1.634301453E0,-1.746118927E0,4.302053833E-1,2.430010127E0
4.394199625E0,-1.825453949E0,-1.732946320E0,1.935475159E-1,2.524449585E0
4.404206625E0,-1.985171814E0,-1.721569977E0,-3.338058472E-2,2.627893563E0
4.414214625E0,-2.048639832E0,-1.696272583E0,-1.586700439E-1,2.664477813E0
4.424222625E0,-1.951940918E0,-1.670675812E0,-2.197430420E-1,2.578665938E0
4.434230625E0,-1.900298309E0,-1.592687988E0,-2.112107849E-1,2.488453071E0
4.444238625E0,-1.822759552E0,-1.527573395E0,-1.442999268E-1,2.382594244E0
4.454245625E0,-1.564097443E0,-1.459614716E0,-8.547225952E-2,2.141070161E0
4.464253625E0,-1.210682373E0,-1.399140472E0,-1.568737793E-1,1.856867053E0
4.474261625E0,-9.611512756E-1,-1.238524475E0,-8.113128662E-2,1.569820670E0
4.484269625E0,-7.920030212E-1,-9.764195251E-1,1.930984497E-2,1.257392836E0
4.494276625E0,-4.276606750E-1,-7.291337585E-1,3.457809448E-2,8.460055174E-1
4.504284625E0,2.025288391E-1,-4.984634399E-1,3.876937866E-2,5.394319200E-1
4.514292625E0,1.009949799E0,-2.567161560E-1,1.061293030E-1,1.047456543E0
4.524300625E0,1.973795471E0,1.233435059E-1,2.900967407E-1,1.998809221E0
4.534307625E0,3.339255981E0,7.289840698E-1,5.842350769E-1,3.467474428E0
4.544315625E0,4.855153656E0,1.660946045E0,1.026714935E0,5.233106376E0
4.554323625E0,6.694678345E0,2.889291687E0,1.647174683E0,7.475286552E0
4.564331625E0,8.822054443E0,4.266727295E0,2.263742523E0,1.005774013E1
4.574338625E0,1.091694809E1,5.801186371E0,2.738854523E0,1.266233955E1
4.584346625E0,1.303983353E1,7.143445129E0,3.157234497E0,1.519980909E1
4.594354625E0,1.487352036E1,8.133037262E0,3.340902557E0,1.727800720E1
4.604362625E0,1.625948822E1,9.262438660E0,3.559298401E0,1.904815824E1
4.614370625E0,1.748543884E1,1.080393311E1,4.160597992E0,2.097083970E1
4.624377625E0,1.908516220E1,1.262639328E1,4.892126770E0,2.340090015E1
4.634385625E0,2.114607651E1,1.433628754E1,5.728886719E0,2.618216635E1
4.644393625E0,2.227398102E1,1.595277603E1,6.868466949E0,2.824530283E1
4.654401625E0,2.206262054E1,1.800201462E1,7.624844055E0,2.947829714E1
4.664408625E0,2.169079376E1,2.022010208E1,7.226672058E0,3.052159647E1
4.674416625E0,2.127346161E1,2.162672699E1,6.241420898E0,3.097145176E1
4.684424625E0,2.036051010E1,2.187012085E1,5.037624207E0,3.030231369E1
4.694432625E0,1.902947800E1,2.161205750E1,3.876189423E0,2.905558305E1
4.704440625E0,1.763437912E1,2.155412796E1,3.014880524E0,2.801144880E1
4.714447625E0,1.634885239E1,2.149829407E1,2.398911438E0,2.711487411E1
4.724455625E0,1.547975967E1,2.115760254E1,1.931882629E0,2.628686507E1
4.734463625E0,1.499880981E1,2.092947693E1,2.008523254E0,2.582714591E1
4.744471625E0,1.475826004E1,2.092723160E1,2.179018707E0,2.570026039E1
4.754478625E0,1.480541199E1,2.062680634E1,2.033970337E0,2.547159985E1
4.764486625E0,1.517065247E1,2.005379791E1,1.783840485E0,2.520883960E1
4.774494625E0,1.568168976E1,1.941537552E1,1.472487946E0,2.500080841E1
4.784502625E0,1.603285950E1,1.864193390E1,1.094823303E0,2.461245460E1
4.794509625E0,1.629481476E1,1.775682449E1,8.385562134E-1,2.411491200E1
4.804517625E0,1.654988434E1,1.670750656E1,7.653584290E-1,2.352924182E1
4.814525625E0,1.658251648E1,1.544413376E1,8.755293274E-1,2.267747058E1
4.824533625E0,1.624392059E1,1.405008270E1,1.166374512E0,2.150884027E1
4.834541625E0,1.566357742E1,1.251667145E1,1.634750519E0,2.011683700E1
4.844548625E0,1.490285934E1,1.096679443E1,2.188449097E0,1.863209881E1
4.854556625E0,1.412567551E1,9.395362244E0,2.927911377E0,1.721569648E1
4.864564625E0,1.329235840E1,7.682174835E0,3.677253113E0,1.578685505E1
4.874572625E0,1.231728607E1,5.993835754E0,4.044589233E0,1.428286754E1
4.884579625E0,1.150327881E1,4.599934387E0,4.314028931E0,1.311852375E1
4.894587625E0,1.075947556E1,3.428171082E0,4.464017029E0,1.214273936E1
4.904595625E0,9.789941711E0,2.295775909E0,4.264481964E0,1.092242428E1
4.914603625E0,8.568631439E0,1.283131714E0,3.969445496E0,9.530182017E0
4.924611625E0,7.270081787E0,4.071533203E-1,3.629352722E0,8.135850552E0
4.934618625E0,5.973627777E0,-3.257226562E-1,3.178041229E0,6.774235759E0
4.944626625E0,4.754562836E0,-9.747729492E-1,2.791544952E0,5.598997525E0
4.954634625E0,3.681145020E0,-1.569635925E0,2.508483582E0,4.723036679E0
4.964642625E0,2.759960632E0,-1.749112701E0,2.247725830E0,3.965986553E0
4.974649625E0,2.055226135E0,-1.686243439E0,2.046244812E0,3.354771115E0
4.984657625E0,1.520238647E0,-1.615141296E0,1.789977722E0,2.850232832E0
4.994665625E0,1.194665680E0,-1.555265808E0,1.566642151E0,2.510068814E0
5.004673625E0,9.629475403E-1,-1.519041138E0,1.345402222E0,2.246076820E0
5.014680625E0,6.990463257E-1,-1.353635101E0,1.204994202E0,1.942422400E0
5.024688625E0,3.847000122E-1,-1.107546844E0,1.066232758E0,1.584773298E0
5.034696625E0,-1.002914429E-2,-7.810757446E-1,8.810678101E-1,1.177480526E0
5.044704625E0,-3.933819580E-1,-4.721182251E-1,7.062313843E-1,9.361665191E-1
5.054712625E0,-7.667056274E-1,-1.802252197E-1,5.566923523E-1,9.644817386E-1
5.064719625E0,-1.066382446E0,7.140151978E-2,4.385879517E-1,1.155261481E0
5.074727625E0,-1.326092377E0,2.174977112E-1,4.099974060E-1,1.404964099E0
5.084735625E0,-1.628762970E0,2.793191528E-1,4.225712585E-1,1.705712306E0
5.094743625E0,-1.924098816E0,2.884501648E-1,3.715274048E-1,1.980755503E0
5.104750625E0,-2.209106140E0,3.062631226E-1,3.056643677E-1,2.251083682E0
5.114758625E0,-2.444117432E0,3.195854187E-1,2.514770508E-1,2.477717814E0
5.124766625E0,-2.580184479E0,2.772235107E-1,1.407073975E-1,2.598846550E0
5.134774625E0,-2.665057983E0,2.074685669E-1,-1.826202393E-2,2.673183638E0
5.144781625E0,-2.681374054E0,1.347198486E-1,-2.209405518E-1,2.693832026E0
5.154789625E0,-2.635569305E0,1.332229614E-1,-3.830534363E-1,2.666590305E0
5.164797625E0,-2.552192688E0,1.468446350E-1,-5.504054260E-1,2.614994646E0
5.174805625E0,-2.377505951E0,1.017883301E-1,-7.152127075E-1,2.484838954E0
5.184813625E0,-2.056423645E0,-2.050735474E-2,-8.300239563E-1,2.217710199E0
5.194820625E0,-1.741628265E0,-1.639091492E-1,-8.065228271E-1,1.926295485E0
5.204828792E0,-1.302591248E0,-3.266207886E-1,-8.186476135E-1,1.572771125E0
5.214836792E0,-7.994874573E-1,-5.348377991E-1,-9.012757874E-1,1.318153902E0
5.224844792E0,-3.845503235E-1,-6.764433289E-1,-8.475375366E-1,1.150553955E0
5.234851792E0,1.960922241E-1,-7.418572998E-1,-8.035290527E-1,1.111064063E0
5.244859792E0,7.203021240E-1,-8.488847351E-1,-9.087602234E-1,1.437110151E0
5.254867792E0,1.228944397E0,-9.255253601E-1,-8.078700256E-1,1.737686825E0
5.264875792E0,1.975891113E0,-1.069376221E0,-5.646258545E-1,2.316573666E0
5.274882792E0,2.814597015E0,-1.401535492E0,-4.260140991E-1,3.172971180E0
5.284890792E0,3.701951752E0,-1.648671570E0,-2.429447937E-1,4.059752072E0
5.294898792E0,5.001399536E0,-1.914967804E0,-2.559677124E-2,5.355534913E0
5.304906792E0,6.346352692E0,-2.276166687E0,-4.266128540E-2,6.742325063E0
5.314914792E0,7.580536194E0,-2.335593109E0,2.134561157E-1,7.935054358E0
5.324921792E0,9.150471497E0,-2.299518127E0,5.836363220E-1,9.453017697E0
5.334929792E0,1.081830322E1,-2.069745941E0,9.337582397E-1,1.105402358E1
5.344937792E0,1.256472153E1,-1.749112701E0,1.229842529E0,1.274535739E1
5.354945792E0,1.468027222E1,-1.983076172E0,1.659748535E0,1.490629896E1
5.364953792E0,1.761327301E1,-2.026036835E0,2.890040131E0,1.796342237E1
5.374960792E0,2.132540359E1,-1.862277374E0,4.083208923E0,2.179251042E1
5.384968792E0,2.559033463E1,-1.294657745E0,4.593048706E0,2.603147059E1
5.394976792E0,2.943059875E1,5.102888489E-1,5.498815155E0,2.994423995E1
5.404984792E0,3.170556793E1,2.998564453E0,6.269861755E0,3.245836707E1
5.414991792E0,3.202724899E1,5.562881927E0,6.170618134E0,3.308726132E1
5.424999792E0,3.115725815E1,8.329428864E0,5.738317108E0,3.275793650E1
5.435007792E0,3.002920395E1,1.066936295E1,5.390590210E0,3.232099717E1
5.445015792E0,2.852543106E1,1.271860153E1,5.258415070E0,3.167197454E1
5.455023792E0,2.668770264E1,1.452459595E1,5.244643707E0,3.083348256E1
5.465030792E0,2.512420395E1,1.594484253E1,5.309608612E0,3.022673603E1
5.475038792E0,2.387310562E1,1.701960754E1,4.892276459E0,2.972417504E1
5.485046792E0,2.270044418E1,1.786325317E1,4.489015045E0,2.923281095E1
5.495054792E0,2.169648193E1,1.849419113E1,4.121379547E0,2.880552383E1
5.505061792E0,2.092588440E1,1.867890701E1,3.323388977E0,2.824604608E1
5.515069792E0,2.040436890E1,1.867755981E1,2.562970276E0,2.778053864E1
5.525077792E0,2.007280838E1,1.850930969E1,2.178270264E0,2.739082041E1
5.535085792E0,1.993030472E1,1.811547867E1,1.848206635E0,2.699636052E1
5.545093792E0,1.995320709E1,1.732123032E1,1.640738068E0,2.647352478E1
5.555100792E0,1.983480331E1,1.615665207E1,1.650168457E0,2.563551998E1
5.565108792E0,1.965921844E1,1.494701752E1,1.838327179E0,2.476444325E1
5.575116792E0,1.980935623E1,1.362691269E1,2.019450531E0,2.412843808E1
5.585124792E0,1.967373825E1,1.210502747E1,2.191143494E0,2.320320617E1
5.595131792E0,1.923095901E1,1.058748322E1,2.585124207E0,2.210446680E1
5.605139792E0,1.887634644E1,9.146729279E0,3.103645935E0,2.120404983E1
5.615147792E0,1.839330093E1,7.508236542E0,3.421435089E0,2.015920021E1
5.625155792E0,1.756986328E1,6.037095795E0,3.687581635E0,1.894056176E1
5.635163792E0,1.660197601E1,4.911436615E0,4.125720520E0,1.779801638E1
5.645170792E0,1.555325684E1,3.826941833E0,4.559967499E0,1.665360578E1
5.655178792E0,1.448492844E1,2.730022888E0,4.728367310E0,1.547978146E1
5.665186792E0,1.346479980E1,1.800755310E0,4.709356842E0,1.437781608E1
5.675194792E0,1.243853394E1,1.018182678E0,4.670437775E0,1.332541975E1
5.685201792E0,1.136601425E1,4.270619202E-1,4.484374695E0,1.222613096E1
5.695209792E0,1.035052597E1,-1.182540894E-2,4.276606750E0,1.119923627E1
5.705217792E0,9.593101044E0,-3.501219177E-1,4.159699860E0,1.046199197E1
5.715225792E0,9.019942932E0,-6.152206421E-1,3.971840515E0,9.874886532E0
5.725233792E0,8.540340271E0,-8.443940735E-1,3.727698212E0,9.356609816E0
5.735240792E0,8.061935120E0,-1.141376495E0,3.532055054E0,8.875412727E0
5.745248792E0,7.562872925E0,-1.350042572E0,3.438499603E0,8.416824897E0
5.755256792E0,6.951993256E0,-1.426832886E0,3.404220886E0,7.871136014E0
5.765264792E0,6.268664246E0,-1.567540283E0,3.294049988E0,7.252868349E0
5.775271792E0,5.549709320E0,-1.716480560E0,3.179687805E0,6.622385793E0
5.785279792E0,4.818629608E0,-1.821262665E0,3.121458893E0,6.023262788E0
5.795287792E0,4.143383789E0,-1.951491852E0,3.037932587E0,5.495906119E0
5.805295792E0,3.602259064E0,-2.089355164E0,2.858605499E0,5.051069269E0
5.815303792E0,3.096610565E0,-2.219584351E0,2.639311523E0,4.634815746E0
5.825310792E0,2.586471405E0,-2.314487000E0,2.461780701E0,4.255237786E0
5.835318792E0,2.105521545E0,-2.348466339E0,2.256707153E0,3.878304049E0
5.845326792E0,1.672921143E0,-2.425406342E0,2.067500610E0,3.599419376E0
5.855334792E0,1.203048248E0,-2.466421051E0,1.897154846E0,3.336128654E0
5.865341792E0,7.152127075E-1,-2.442620544E0,1.713486786E0,3.068217937E0
5.875349792E0,2.999761963E-1,-2.457589417E0,1.474583588E0,2.881688431E0
5.885357792E0,-1.531315613E-1,-2.449206848E0,1.246907043E0,2.752606153E0
5.895365792E0,-5.381309509E-1,-2.388732605E0,1.062490540E0,2.669178624E0
5.905373792E0,-8.493338013E-1,-2.342628479E0,8.577163696E-1,2.635327962E0
5.915380792E0,-9.876461792E-1,-2.320474548E0,7.593708801E-1,2.633759905E0
5.925388792E0,-9.187893677E-1,-2.295775909E0,5.019062805E-1,2.523226277E0
5.935396792E0,-7.527845764E-1,-2.207309875E0,2.338137817E-1,2.343836681E0
5.945404792E0,-5.667214966E-1,-2.053579559E0,4.640350342E-3,2.130348280E0
5.955411792E0,-5.123844910E-1,-1.911225586E0,-4.610412598E-2,1.979254076E0
5.965419792E0,-4.706213379E-1,-1.781445465E0,-1.007405090E-1,1.845313263E0
5.975427792E0,-3.812571716E-1,-1.661993866E0,-1.785786438E-1,1.714488546E0
5.985435792E0,-9.894424438E-2,-1.572779388E0,-1.622625732E-1,1.584220348E0
5.995443792E0,2.884501648E-1,-1.332828369E0,-1.663041687E-1,1.373787478E0
6.005450792E0,9.355545044E-1,-9.372010803E-1,-2.433938599E-1,1.346420687E0
6.015458792E0,2.083217926E0,-5.257067871E-1,-2.902464294E-1,2.168042330E0
6.025466792E0,3.639381866E0,1.209484863E-1,-1.841171265E-1,3.646042789E0
6.035474792E0,5.603148193E0,1.122366028E0,2.276765442E-1,5.718986955E0
6.045481792E0,7.932304688E0,2.378254395E0,7.608677673E-1,8.316037000E0
6.055489792E0,1.049991531E1,3.741170197E0,1.393601990E0,1.123328547E1
6.065497792E0,1.346809296E1,4.993466034E0,1.925745392E0,1.449250586E1
6.075505792E0,1.625380005E1,6.083349609E0,2.019300842E0,1.747199858E1
6.085513792E0,1.887874146E1,7.505991211E0,2.052082672E0,2.041954520E1
6.095520792E0,2.093291977E1,9.809850311E0,1.984573059E0,2.320256071E1
6.105528792E0,2.153885971E1,1.226115280E1,1.919159088E0,2.485842950E1
6.115536792E0,2.129381927E1,1.420261551E1,1.937720490E0,2.566896545E1
6.125544792E0,2.115984787E1,1.593481339E1,2.005230103E0,2.656460779E1
6.135552792E0,2.110087051E1,1.713801132E1,1.845362549E0,2.724634896E1
6.145559792E0,2.063084793E1,1.744981293E1,1.165476379E0,2.704600142E1
6.155567792E0,1.988719437E1,1.755474472E1,4.429289246E-1,2.653046830E1
6.165575792E0,1.912198563E1,1.801548660E1,8.831634521E-3,2.627181322E1
6.175583792E0,1.852487732E1,1.858310623E1,-2.811154175E-1,2.624084493E1
6.185590792E0,1.795950302E1,1.890508667E1,-5.195695496E-1,2.608095097E1
6.195598792E0,1.728335907E1,1.913381104E1,-3.939807129E-1,2.578705967E1
6.205607042E0,1.631202896E1,1.927706314E1,-7.304809570E-2,2.525257983E1
6.215615042E0,1.564741104E1,1.916599411E1,2.215393066E-2,2.474221682E1
6.225623042E0,1.549847076E1,1.886482040E1,8.831634521E-2,2.441499221E1
6.235630042E0,1.566028427E1,1.853640335E1,2.142045593E-1,2.426702776E1
6.245638042E0,1.584739517E1,1.806488388E1,2.823129272E-1,2.403247103E1
6.255646042E0,1.582928284E1,1.734622833E1,4.245172119E-1,2.348697612E1
6.265654042E0,1.581042206E1,1.664598450E1,7.843688965E-1,2.297114451E1
6.275661042E0,1.608914246E1,1.582479218E1,1.148561554E0,2.259654279E1
6.285669042E0,1.658431274E1,1.478026428E1,1.322499847E0,2.225409282E1
6.295677042E0,1.682411407E1,1.373244324E1,1.600172424E0,2.177593542E1
6.305685042E0,1.675166473E1,1.270572830E1,2.204765167E0,2.114035933E1
6.315693042E0,1.632565063E1,1.171538773E1,2.740950165E0,2.028028565E1
6.325700042E0,1.584694611E1,1.057206528E1,3.080444183E0,1.929723818E1
6.335708042E0,1.535836212E1,9.349407806E0,3.379222870E0,1.829507750E1
6.345716042E0,1.483070938E1,8.262817383E0,3.686384125E0,1.737278100E1
6.355724042E0,1.410322220E1,7.192243652E0,3.925586700E0,1.631071660E1
6.365732042E0,1.324415863E1,6.121370544E0,4.020639038E0,1.513421466E1
6.375739042E0,1.241982285E1,5.168751526E0,3.975582733E0,1.402758888E1
6.385747042E0,1.172691376E1,4.288581848E0,3.783681793E0,1.304717166E1
6.395755042E0,1.107921066E1,3.643573151E0,3.503614197E0,1.217784245E1
6.405763042E0,1.043060944E1,2.916535034E0,3.213218079E0,1.129728110E1
6.415771042E0,9.564959564E0,1.866318970E0,2.873125305E0,1.016004168E1
6.425778042E0,8.482410736E0,9.244775391E-1,2.525398407E0,8.898516041E0
6.435786042E0,7.358996887E0,2.493814087E-1,2.250270538E0,7.699398923E0
6.445794042E0,6.183940430E0,-4.438270569E-1,1.932032318E0,6.493908728E0
6.455802042E0,5.047353973E0,-1.156195679E0,1.554517365E0,5.406393883E0
6.465809042E0,3.955374756E0,-1.797013092E0,1.207987976E0,4.509266067E0
6.475817042E0,2.939287720E0,-2.396815796E0,9.286688232E-1,3.904684884E0
6.485825042E0,2.057471466E0,-2.768193512E0,6.366261292E-1,3.507331889E0
6.495833042E0,1.256487122E0,-3.026556244E0,3.975732422E-1,3.301040301E0
6.505841042E0,5.243595886E-1,-3.252586212E0,1.607656860E-1,3.298502031E0
6.515848042E0,-3.402424622E-1,-3.446433105E0,-1.466949463E-2,3.463218341E0
6.525856042E0,-1.235081635E0,-3.447031860E0,-1.423539734E-1,3.664385343E0
6.535864042E0,-1.920206909E0,-3.282973022E0,-2.668949890E-1,3.812655161E0
6.545872042E0,-2.326761475E0,-3.155737610E0,-3.992198181E-1,3.941050023E0
6.555879042E0,-2.496358795E0,-3.159479828E0,-5.099894714E-1,4.058843342E0
6.565887042E0,-2.549797668E0,-3.234473877E0,-5.947132874E-1,4.161366759E0
6.575895042E0,-2.569855957E0,-3.301684113E0,-6.920109558E-1,4.240773135E0
6.585903042E0,-2.584525452E0,-3.312611389E0,-7.220983887E-1,4.263166911E0
6.595911042E0,-2.599045258E0,-3.300037537E0,-6.322851562E-1,4.247948742E0
6.605918042E0,-2.575244751E0,-3.220852203E0,-4.402345276E-1,4.147237741E0
6.615926042E0,-2.511926422E0,-3.119213562E0,-2.694396973E-1,4.013958812E0
6.625934042E0,-2.345023499E0,-3.051105194E0,-1.251397705E-1,3.850199745E0
6.635942042E0,-1.975891113E0,-3.003504181E0,-4.206253052E-2,3.595407114E0
6.645950042E0,-1.557361450E0,-2.937491455E0,3.188369751E-2,3.324943203E0
6.655957042E0,-1.154698792E0,-2.881208496E0,1.950444031E-1,3.110101930E0
6.665965042E0,-6.303392029E-1,-2.865790558E0,3.824546814E-1,2.959113823E0
6.675973042E0,5.837860107E-2,-2.877017212E0,4.736151123E-1,2.916324292E0
6.685981042E0,9.599537659E-1,-2.933898926E0,5.908213806E-1,3.142983303E0
6.695988042E0,2.037413177E0,-3.019520874E0,7.511380005E-1,3.719242807E0
6.705996042E0,3.160078583E0,-3.039279785E0,8.355624390E-1,4.463348838E0
6.716004042E0,4.319567413E0,-3.035687256E0,9.912387085E-1,5.371835248E0
6.726012042E0,5.536087646E0,-3.090623016E0,1.301693115E0,6.472605505E0
6.736020042E0,7.123536530E0,-3.115321655E0,1.671573944E0,7.952619767E0
6.746027042E0,9.090146942E0,-3.056493988E0,2.171384583E0,9.832997403E0
6.756035042E0,1.119297409E1,-2.540067902E0,2.849175110E0,1.182592122E1
6.766043042E0,1.359098740E1,-1.257235565E0,3.830384674E0,1.417629805E1
6.776051042E0,1.592268860E1,6.640191650E-1,4.814438324E0,1.664787524E1
6.786059042E0,1.872995087E1,2.131866760E0,5.238955536E0,1.956534105E1
6.796066042E0,2.212893265E1,2.652334442E0,5.082979889E0,2.285959804E1
6.806074042E0,2.529874100E1,3.684587860E0,4.982688446E0,2.604668247E1
6.816082042E0,2.749093231E1,5.405110016E0,5.645061035E0,2.858029545E1
6.826090042E0,2.842843277E1,7.503296814E0,6.493796082E0,3.011054035E1
6.836098042E0,2.864847519E1,9.971065063E0,7.567213898E0,3.126371691E1
6.846105042E0,2.844025818E1,1.260199402E1,8.338709564E0,3.220547493E1
6.856113042E0,2.703932144E1,1.401505554E1,7.897277527E0,3.146289367E1
6.866121042E0,2.427052917E1,1.427686111E1,6.544839935E0,2.890886161E1
6.876129042E0,2.170875641E1,1.519145920E1,4.722978516E0,2.691388236E1
6.886136042E0,2.011621811E1,1.741523483E1,2.438279572E0,2.671886679E1
6.896144042E0,1.945160019E1,1.916494629E1,7.417076111E-1,2.731684547E1
6.906152042E0,1.912827255E1,1.952075638E1,-2.487826538E-1,2.733153185E1
6.916160042E0,1.871213791E1,1.885344406E1,-5.140310669E-1,2.656803881E1
6.926168042E0,1.823612778E1,1.843042374E1,-6.511459351E-2,2.592761299E1
6.936175042E0,1.782059189E1,1.805260941E1,7.692503357E-1,2.537837559E1
6.946183042E0,1.688309143E1,1.756956390E1,1.782493286E0,2.443165230E1
6.956191042E0,1.573153610E1,1.723964996E1,2.372566223E0,2.345881134E1
6.966199042E0,1.519879395E1,1.691677139E1,1.854792938E0,2.281711526E1
6.976207042E0,1.511481857E1,1.633044067E1,8.470884705E-1,2.226788252E1
6.986214042E0,1.523412048E1,1.572524918E1,-3.832031250E-2,2.189436816E1
6.996222042E0,1.551583466E1,1.502814880E1,-8.442443848E-1,2.161710272E1
7.006230042E0,1.576222229E1,1.429736847E1,-1.521585846E0,2.133489208E1
7.016238042E0,1.598585724E1,1.354727829E1,-1.707199860E0,2.102357991E1
7.026246042E0,1.629481476E1,1.256112900E1,-1.235081635E0,2.061136522E1
7.036253042E0,1.647548904E1,1.135224289E1,-6.131250000E-1,2.001726955E1
7.046261042E0,1.620829468E1,1.022778122E1,1.071771240E-1,1.916579797E1
7.056269042E0,1.580518295E1,9.121581573E0,1.025218048E0,1.827725720E1
7.066277042E0,1.531345551E1,8.123307495E0,1.854194183E0,1.743353321E1
7.076284042E0,1.462039673E1,7.295977936E0,2.528541870E0,1.653423172E1
7.086292042E0,1.403002441E1,6.814579010E0,3.191962280E0,1.592070022E1
7.096300042E0,1.357152786E1,6.322851562E0,3.638184357E0,1.540782937E1
7.106308042E0,1.307351349E1,5.739813995E0,3.837569733E0,1.478476111E1
7.116316042E0,1.256876312E1,5.163662109E0,3.979624329E0,1.415890612E1
7.126323042E0,1.202629120E1,4.400549011E0,4.048181763E0,1.343072177E1
7.136331042E0,1.130479156E1,3.572620697E0,3.964805145E0,1.250126437E1
7.146339042E0,1.043794418E1,2.969524841E0,3.931873627E0,1.154246017E1
7.156347042E0,9.525591431E0,2.381996613E0,3.985761566E0,1.059703238E1
7.166355042E0,8.569679260E0,1.660496979E0,3.868255920E0,9.547777579E0
7.176362042E0,7.703131256E0,8.622070313E-1,3.678899689E0,8.579972904E0
7.186370042E0,6.888824615E0,1.902543640E-1,3.508703613E0,7.733246560E0
7.196378042E0,6.061944122E0,-2.761756897E-1,3.381468201E0,6.946781035E0
7.206390375E0,5.165608063E0,-6.586303711E-1,3.242856445E0,6.134608264E0
7.216398375E0,4.249962158E0,-9.677375793E-1,3.028053131E0,5.307334560E0
7.226405375E0,3.510200500E0,-1.229992218E0,2.835104370E0,4.676772947E0
7.236413375E0,2.999911652E0,-1.482517090E0,2.650837555E0,4.268988941E0
7.246421375E0,2.612068176E0,-1.685345306E0,2.448009338E0,3.956771244E0
7.256429375E0,2.259102173E0,-1.819616089E0,2.208208008E0,3.645645066E0
7.266436375E0,1.921105042E0,-1.922601929E0,1.979333954E0,3.362261985E0
7.276444375E0,1.605860596E0,-2.010169830E0,1.822011108E0,3.152664822E0
7.286452375E0,1.267863464E0,-2.067350922E0,1.636846161E0,2.925864479E0
7.296460375E0,9.834548950E-1,-2.133962402E0,1.458566895E0,2.765573440E0
7.306468375E0,7.318281555E-1,-2.239642639E0,1.306483154E0,2.694154753E0
7.316475375E0,4.619393921E-1,-2.385738831E0,1.051712952E0,2.647874223E0
7.326483375E0,1.698966980E-1,-2.519111481E0,7.906558228E-1,2.645736981E0
7.336491375E0,-5.508544922E-2,-2.604134674E0,5.504054260E-1,2.662235516E0
7.346499375E0,-1.661544800E-1,-2.627037048E0,2.824626160E-1,2.647397986E0
7.356507375E0,-2.171983337E-1,-2.573298798E0,5.643264771E-2,2.583065323E0
7.366514375E0,-2.730322266E-1,-2.456092529E0,-1.360670471E-1,2.474964919E0
7.376522375E0,-3.769161987E-1,-2.326312408E0,-2.838098145E-1,2.373677159E0
7.386530375E0,-3.210823059E-1,-2.208208008E0,-3.213816833E-1,2.254453956E0
7.396538375E0,-1.294807434E-1,-2.123035126E0,-2.505789185E-1,2.141689334E0
7.406546375E0,3.209326172E-1,-2.078427887E0,-1.336720276E-1,2.107303594E0
7.416553375E0,9.644444275E-1,-2.057172089E0,-1.049317932E-1,2.274449546E0
7.426561375E0,1.709295502E0,-2.046244812E0,-1.841171265E-2,2.666298546E0
7.436569375E0,2.515518951E0,-2.099234619E0,1.181044006E-1,3.278501217E0
7.446577375E0,3.302731934E0,-2.128573608E0,2.380050659E-1,3.936433696E0
7.456585375E0,4.225562897E0,-2.017354889E0,2.621049500E-1,4.689754956E0
7.466592375E0,5.114264832E0,-1.646575928E0,2.616558838E-1,5.379161724E0
7.476600375E0,6.162085876E0,-1.100361786E0,4.447251892E-1,6.275338947E0
7.486608375E0,7.765551453E0,-5.221142578E-1,9.107061768E-1,7.836183918E0
7.496616375E0,9.520801392E0,2.393522644E-1,1.560355225E0,9.650785309E0
7.506623375E0,1.169443130E1,8.749305725E-1,2.203567657E0,1.193234836E1
7.516631375E0,1.479687973E1,1.337319031E0,2.525847473E0,1.507036753E1
7.526639375E0,1.848266510E1,2.054477692E0,2.524350586E0,1.876704915E1
7.536647375E0,2.177162567E1,3.789968719E0,2.760260010E0,2.227075622E1
7.546655375E0,2.408970520E1,6.445895691E0,3.602857819E0,2.519611185E1
7.556663375E0,2.534529419E1,9.477990417E0,4.667593689E0,2.745910907E1
7.566670375E0,2.645763107E1,1.241593094E1,5.854625244E0,2.980668079E1
7.576678375E0,2.689337494E1,1.459180618E1,6.533164215E0,3.128668499E1
7.586686375E0,2.661899551E1,1.582239716E1,6.814579010E0,3.170737550E1
7.596694375E0,2.593866028E1,1.684507050E1,6.436165924E0,3.159105457E1
7.606701375E0,2.422262878E1,1.800575684E1,5.438191223E0,3.066784877E1
7.616709375E0,2.273172913E1,1.913306259E1,4.143832855E0,2.999961573E1
7.626717375E0,2.179812057E1,1.939082657E1,3.409010925E0,2.937317775E1
7.636725375E0,2.070868607E1,1.883353546E1,2.836301880E0,2.813532202E1
7.646733375E0,1.928469727E1,1.841395798E1,2.744692383E0,2.680497591E1
7.656740375E0,1.801892944E1,1.811083832E1,3.221450958E0,2.574999086E1
7.666748375E0,1.744861542E1,1.771221725E1,3.826492767E0,2.515589130E1
7.676756375E0,1.760309418E1,1.711989899E1,4.024830322E0,2.488290829E1
7.686764375E0,1.786669601E1,1.638387955E1,3.568878479E0,2.450280043E1
7.696772375E0,1.803314987E1,1.563498688E1,2.944227448E0,2.404819711E1
7.706779375E0,1.829390762E1,1.494567032E1,2.467768250E0,2.375142096E1
7.716787375E0,1.845826584E1,1.410621597E1,2.090253296E0,2.332513806E1
7.726795375E0,1.873249557E1,1.297262329E1,1.927092590E0,2.286720428E1
7.736803375E0,1.893053375E1,1.183154617E1,2.088906097E0,2.242128724E1
7.746811375E0,1.910207703E1,1.068882248E1,2.326462097E0,2.201255775E1
7.756818375E0,1.889760223E1,9.594448242E0,2.647544403E0,2.135842454E1
7.766826375E0,1.841515549E1,8.656648407E0,3.278931427E0,2.061084434E1
7.776834375E0,1.789214310E1,7.532186737E0,3.912713470E0,1.980333175E1
7.786842375E0,1.723426117E1,6.209836578E0,4.356091461E0,1.882969360E1
7.796850375E0,1.634615799E1,4.855003967E0,4.907395020E0,1.774402633E1
7.806857375E0,1.517858597E1,3.648961945E0,5.173092499E0,1.644582869E1
7.816865375E0,1.385698425E1,2.682272186E0,5.143603821E0,1.502222543E1
7.826873375E0,1.260214371E1,1.775607605E0,4.982389069E0,1.366715074E1
7.836881375E0,1.140193954E1,7.934999084E-1,4.534520416E0,1.229616781E1
7.846889375E0,1.014006363E1,-1.284329224E-1,3.983965302E0,1.089538274E1
7.856896375E0,8.836574249E0,-8.699908447E-1,3.418291626E0,9.514549184E0
7.866904375E0,7.509583740E0,-1.508862305E0,2.916235657E0,8.196032199E0
7.876912375E0,6.229894867E0,-2.156864777E0,2.497855682E0,7.050031115E0
7.886920375E0,5.070106659E0,-2.629132690E0,2.000739441E0,6.051551747E0
7.896928375E0,4.061054993E0,-2.958148499E0,1.684447174E0,5.299072794E0
7.906935375E0,3.143762512E0,-3.178490295E0,1.421743469E0,4.691204300E0
7.916943375E0,2.381098480E0,-3.353326721E0,1.206940155E0,4.286156158E0
7.926951375E0,1.820514221E0,-3.523672485E0,9.954299927E-1,4.089183376E0
7.936959375E0,1.388512573E0,-3.746708679E0,8.074209595E-1,4.076483987E0
7.946967375E0,9.316625977E-1,-4.033811646E0,6.741979980E-1,4.194541039E0
7.956974375E0,2.523751831E-1,-4.194128265E0,6.315367126E-1,4.248910891E0
7.966982375E0,-4.782554626E-1,-4.144431610E0,5.848338318E-1,4.212727415E0
7.976990375E0,-1.071920929E0,-4.083807678E0,4.969665527E-1,4.251291026E0
7.986998375E0,-1.484762421E0,-4.162693634E0,3.968247986E-1,4.437342409E0
7.997006375E0,-1.781146088E0,-4.285438385E0,2.300715637E-1,4.646546724E0
8.007013375E0,-2.045945435E0,-4.315825195E0,-1.496887207E-4,4.776216061E0
8.017021375E0,-2.234253845E0,-4.292623444E0,-1.924996948E-1,4.843094301E0
8.027029375E0,-2.349214783E0,-4.216731262E0,-3.185375977E-1,4.837468226E0
8.037037375E0,-2.512076111E0,-4.060905304E0,-4.170327759E-1,4.793265548E0
8.047045375E0,-2.601739655E0,-3.902384949E0,-4.716691589E-1,4.713823216E0
8.057052375E0,-2.633623352E0,-3.764222260E0,-4.218228149E-1,4.613380070E0
8.067060375E0,-2.502346344E0,-3.630400543E0,-2.769241333E-1,4.417944353E0
8.077068375E0,-2.116748199E0,-3.537294159E0,-1.839674377E-1,4.126368491E0
8.087076375E0,-1.621727600E0,-3.439547424E0,-1.290316772E-1,3.804883187E0
8.097084375E0,-1.022972717E0,-3.395838318E0,-5.194198608E-2,3.546954896E0
8.107091375E0,-3.076103210E-1,-3.335663452E0,1.453477478E-1,3.352968945E0
8.117099375E0,5.839356995E-1,-3.276536407E0,2.137554932E-1,3.335020711E0
8.127107375E0,1.530567169E0,-3.217109985E0,2.604583740E-1,3.572152164E0
8.137115375E0,2.470163269E0,-3.105741577E0,4.848417664E-1,3.997800503E0
8.147123375E0,3.505260773E0,-2.851719818E0,6.887178040E-1,4.570939862E0
8.157130375E0,4.574337616E0,-2.349214783E0,8.428971863E-1,5.210935654E0
8.167138375E0,5.938899994E0,-1.702409821E0,1.091679840E0,6.273794482E0
8.177146375E0,7.875722351E0,-7.174580383E-1,1.916315002E0,8.137199259E0
8.187154375E0,1.055260574E1,8.503816223E-1,3.111130371E0,1.103448092E1
8.197162375E0,1.375489655E1,2.414179688E0,3.990102539E0,1.452399259E1
8.207168417E0,1.701571564E1,3.562142487E0,4.344266052E0,1.791915415E1
8.217176417E0,2.046858536E1,5.108576660E0,5.112468567E0,2.170709278E1
8.227184417E0,2.386367523E1,7.873776398E0,6.569538574E0,2.597364409E1
8.237192417E0,2.663561096E1,1.138412659E1,8.354726257E0,3.014723139E1
8.247200417E0,2.858410904E1,1.558648773E1,9.531279602E0,3.392396174E1
8.257208417E0,2.972428802E1,1.920760757E1,1.017958145E1,3.682511868E1
8.267215417E0,2.921070602E1,2.071048233E1,1.048868866E1,3.731222339E1
8.277223417E0,2.658666275E1,2.119472534E1,9.994266815E0,3.543941856E1
8.287231417E0,2.358779892E1,2.243504608E1,7.599247284E0,3.342849249E1
8.297239417E0,2.145323776E1,2.356010651E1,4.745132446E0,3.221546695E1
8.307247417E0,1.979842896E1,2.352133713E1,2.839445343E0,3.087545205E1
8.317254417E0,1.836740479E1,2.252470963E1,1.893412628E0,2.912574658E1
8.327262417E0,1.701047653E1,2.146281784E1,2.077080688E0,2.746494358E1
8.337270417E0,1.579545319E1,2.034569092E1,2.938239899E0,2.592444279E1
8.347278417E0,1.472951981E1,1.925595703E1,3.976031799E0,2.456744724E1
8.357286417E0,1.396446075E1,1.851200409E1,5.075495453E0,2.373733586E1
8.367293417E0,1.359233459E1,1.777882874E1,5.519322510E0,2.304997249E1
8.377301417E0,1.359308304E1,1.700643494E1,5.069058838E0,2.235365950E1
8.387309417E0,1.375280090E1,1.617162094E1,4.399950256E0,2.167995431E1
8.397317417E0,1.380384476E1,1.534159698E1,3.614234161E0,2.095169245E1
8.407325417E0,1.397074768E1,1.430515228E1,3.005749512E0,2.022013113E1
8.417332417E0,1.417896469E1,1.296034882E1,2.467019806E0,1.936749514E1
8.427340417E0,1.430664917E1,1.155132889E1,2.152374115E0,1.851340390E1
8.437348417E0,1.403331757E1,1.038914566E1,2.273172913E0,1.760782964E1
8.447356417E0,1.346614700E1,9.415719910E0,2.700534210E0,1.665190024E1
8.457364417E0,1.285002823E1,8.329129486E0,3.092868347E0,1.562253046E1
8.467372417E0,1.217568054E1,7.123237152E0,3.470083923E0,1.452684366E1
8.477379417E0,1.147019760E1,5.976471863E0,3.792812805E0,1.347846719E1
8.487387417E0,1.070079758E1,4.974006500E0,4.057462463E0,1.247841380E1
8.497395417E0,9.832902374E0,4.163741455E0,4.305496674E0,1.151347096E1
8.507403417E0,9.057215424E0,3.551364899E0,4.375401306E0,1.066721522E1
8.517411417E0,8.286019135E0,2.916684723E0,4.135599976E0,9.709188948E0
8.527418417E0,7.488327942E0,2.295027466E0,3.908671875E0,8.753280657E0
8.537426417E0,6.835385742E0,1.811981964E0,3.826343079E0,8.040315805E0
8.547434417E0,6.381679230E0,1.305135956E0,3.589385834E0,7.437264303E0
8.557442417E0,5.872737579E0,7.809260559E-1,3.127147064E0,6.699100010E0
8.567450417E0,5.397026825E0,2.324665833E-1,2.789000244E0,6.079511627E0
8.577457417E0,4.866679688E0,-1.989363098E-1,2.487227783E0,5.469044604E0
8.587465417E0,4.224066010E0,-5.171745300E-1,2.174977112E0,4.779197483E0
8.597473417E0,3.506009216E0,-8.837622070E-1,1.867217102E0,4.069353262E0
8.607481417E0,2.795137482E0,-1.255139923E0,1.654509430E0,3.482179091E0
8.617489417E0,2.130220184E0,-1.557511139E0,1.503323822E0,3.037048155E0
8.627496417E0,1.499731293E0,-1.706301727E0,1.346150665E0,2.640602422E0
8.637504417E0,9.761201477E-1,-1.844314728E0,1.259630585E0,2.437411858E0
8.647512417E0,5.710624695E-1,-2.002984772E0,1.214723969E0,2.411143849E0
8.657520417E0,2.944377136E-1,-2.159259796E0,1.148411865E0,2.463320167E0
8.667528417E0,7.319778442E-2,-2.300416260E0,9.723779297E-1,2.498557928E0
8.677535417E0,-2.448907471E-1,-2.331701202E0,8.348139954E-1,2.488717819E0
8.687543417E0,-5.653742981E-1,-2.267484741E0,7.976911926E-1,2.469300789E0
8.697551417E0,-8.367599487E-1,-2.220931549E0,6.724017334E-1,2.466744464E0
8.707559417E0,-1.040635986E0,-2.182910614E0,5.641767883E-1,2.483207090E0
8.717567417E0,-1.180145874E0,-2.144739990E0,4.821473694E-1,2.495019037E0
8.727575417E0,-1.260678406E0,-2.099084930E0,4.438270569E-1,2.488463390E0
8.737582417E0,-1.228495331E0,-2.061213684E0,5.162763977E-1,2.454453900E0
8.747590417E0,-9.963281250E-1,-2.055375824E0,6.215075684E-1,2.367173667E0
8.757598417E0,-5.713618469E-1,-2.047741699E0,6.171665955E-1,2.213728762E0
8.767606417E0,-1.803749084E-1,-2.032922516E0,6.474037170E-1,2.141130691E0
8.777614417E0,1.859133911E-1,-2.011816406E0,6.563850403E-1,2.124337629E0
8.787621417E0,6.014492798E-1,-1.969304810E0,7.012916565E-1,2.175250022E0
8.797629417E0,1.175206146E0,-1.967807922E0,7.424560547E-1,2.409277589E0
8.807637417E0,1.951342163E0,-1.897005157E0,7.885601807E-1,2.833406424E0
8.817645417E0,2.829116821E0,-1.644180908E0,8.171507263E-1,3.372679670E0
8.827653417E0,4.204456787E0,-1.063987427E0,8.854087830E-1,4.426451720E0
8.837660417E0,6.030210114E0,-5.373825073E-2,1.127904510E0,6.135021630E0
8.847668417E0,8.049211578E0,1.126707001E0,1.613345032E0,8.286263204E0
8.857676417E0,1.028481262E1,2.136806488E0,2.059417419E0,1.070441557E1
8.867684417E0,1.342094101E1,3.424129486E0,2.451302490E0,1.406610124E1
8.877692417E0,1.737526794E1,5.555696869E0,2.720742188E0,1.844364774E1
8.887700417E0,2.086570953E1,7.763755188E0,2.592608643E0,2.241373125E1
8.897707417E0,2.307511505E1,9.659562836E0,2.437082062E0,2.513379115E1
8.907715417E0,2.401815399E1,1.189516388E1,2.513872375E0,2.691999627E1
8.917723417E0,2.400123917E1,1.443448334E1,2.791544952E0,2.814616340E1
8.927731417E0,2.316507797E1,1.639570496E1,2.813848572E0,2.851942710E1
8.937739417E0,2.215602631E1,1.710028976E1,2.868784332E0,2.813430886E1
8.947746417E0,2.105311981E1,1.740236160E1,2.758763123E0,2.745335712E1
8.957754417E0,1.993494507E1,1.773302399E1,2.386187897E0,2.678723702E1
8.967762417E0,1.868085297E1,1.791863800E1,2.405647430E0,2.599690356E1
8.977770417E0,1.731988312E1,1.789199341E1,2.849175110E0,2.506430885E1
8.987778417E0,1.611937958E1,1.789199341E1,3.092718658E0,2.428008927E1
8.997785417E0,1.529474442E1,1.794273788E1,3.299438782E0,2.380666599E1
9.007793417E0,1.478894623E1,1.780532364E1,3.570674744E0,2.341991030E1
9.017801417E0,1.451052521E1,1.755609192E1,3.723955994E0,2.307898511E1
9.027809417E0,1.452714066E1,1.733320541E1,3.508703613E0,2.288643324E1
9.037817417E0,1.491528351E1,1.711720459E1,3.093167725E0,2.291357811E1
9.047825417E0,1.542512329E1,1.685959030E1,2.702629852E0,2.301052850E1
9.057832417E0,1.587403976E1,1.666050430E1,2.369722137E0,2.313380913E1
9.067840417E0,1.626457764E1,1.610171631E1,1.970652008E0,2.297140011E1
9.077848417E0,1.658625870E1,1.521795410E1,1.745819550E0,2.257737785E1
9.087856417E0,1.663820068E1,1.424392960E1,1.897304535E0,2.198451766E1
9.097864417E0,1.647608780E1,1.328292801E1,2.388133850E0,2.129790668E1
9.107871417E0,1.617760849E1,1.212074478E1,2.854563904E0,2.041509259E1
9.117879417E0,1.564247131E1,1.082354233E1,3.274590454E0,1.930178541E1
9.127887417E0,1.502784943E1,9.759854279E0,3.761378174E0,1.830953248E1
9.137895417E0,1.432086960E1,8.647367706E0,4.214485931E0,1.725184529E1
9.147903417E0,1.366822678E1,7.441475372E0,4.558021545E0,1.621639724E1
9.157911417E0,1.309117676E1,6.331683197E0,4.651277618E0,1.526772755E1
9.167918417E0,1.222702377E1,5.203778687E0,4.475543060E0,1.402176553E1
9.177926417E0,1.106394241E1,4.245621185E0,4.207151184E0,1.257522334E1
9.187934417E0,9.914183350E0,3.392545166E0,3.886967010E0,1.117626533E1
9.197942417E0,8.854536896E0,2.476450195E0,3.386258240E0,9.798080122E0
9.207946792E0,7.734116821E0,1.525777130E0,2.814297638E0,8.370473705E0
9.217953792E0,6.546935577E0,6.480024719E-1,2.357896729E0,6.988701570E0
9.227961792E0,5.434748383E0,-9.131011963E-2,1.994751892E0,5.789979502E0
9.237969792E0,4.426744537E0,-6.873706055E-1,1.716480560E0,4.797379604E0
9.247977792E0,3.583697662E0,-1.316961365E0,1.532363434E0,4.114050785E0
9.257985792E0,2.936743011E0,-1.884281616E0,1.411265259E0,3.763860565E0
9.267992792E0,2.460433502E0,-2.556383972E0,1.229842529E0,3.755175719E0
9.278000792E0,1.962119751E0,-3.256178741E0,9.873468018E-1,3.927781514E0
9.288008792E0,1.375938721E0,-3.817212067E0,7.872129822E-1,4.133281941E0
9.298016792E0,7.409591675E-1,-4.173770599E0,6.330335999E-1,4.286036986E0
9.308024792E0,1.405577087E-1,-4.401447144E0,5.623805237E-1,4.439455516E0
9.318032792E0,-4.058061218E-1,-4.560117188E0,5.466632080E-1,4.610660260E0
9.328039792E0,-8.921447754E-1,-4.667144623E0,4.812492371E-1,4.775956664E0
9.338047792E0,-1.362915802E0,-4.641098785E0,4.388873291E-1,4.856949609E0
9.348055792E0,-1.678908691E0,-4.595294037E0,4.245172119E-1,4.910771481E0
9.358063792E0,-1.904190216E0,-4.614753571E0,4.529580688E-1,5.012690087E0
9.368071792E0,-2.036065979E0,-4.586013336E0,5.081932068E-1,5.043346441E0
9.378078792E0,-2.036065979E0,-4.407285004E0,5.135820007E-1,4.881955781E0
9.388086792E0,-1.976639557E0,-4.147724762E0,5.599855042E-1,4.628640017E0
9.398094792E0,-1.790127411E0,-3.974235535E0,5.851332092E-1,4.397895531E0
9.408102792E0,-1.473835144E0,-3.813469849E0,6.051914978E-1,4.132916533E0
9.418110792E0,-1.093176727E0,-3.552412720E0,6.026467896E-1,3.765349206E0
9.428118792E0,-7.234455872E-1,-3.255280609E0,5.647755432E-1,3.382188164E0
9.438125792E0,-2.891986084E-1,-2.989583130E0,5.917195129E-1,3.061270179E0
9.448133792E0,3.119512939E-1,-2.793041840E0,6.682104492E-1,2.888754322E0
9.458141792E0,1.170865173E0,-2.622097321E0,7.249424744E-1,2.961732804E0
9.468149792E0,2.264940033E0,-2.400408325E0,7.824229431E-1,3.391769323E0
9.478157792E0,3.560346222E0,-2.178869019E0,8.566685486E-1,4.261152006E0
9.488164792E0,4.891677704E0,-1.900747375E0,9.948312378E-1,5.341445547E0
9.498172792E0,6.437064056E0,-1.330583038E0,1.345851288E0,6.709512693E0
9.508180792E0,8.191565552E0,-3.820056152E-1,1.742676086E0,8.383590783E0
9.518188792E0,1.010563522E1,7.954458618E-1,2.087558899E0,1.034961350E1
9.528196792E0,1.241054214E1,1.791324921E0,2.362836456E0,1.275983532E1
9.538204792E0,1.503653137E1,2.493814087E0,2.416724396E0,1.543233428E1
9.548211792E0,1.779753983E1,3.174299011E0,2.082768860E0,1.819798132E1
9.558219792E0,2.066991669E1,4.031266937E0,1.666185150E0,2.112516845E1
9.568227792E0,2.345891693E1,5.582042084E0,1.740430756E0,2.417662252E1
9.578235792E0,2.546279984E1,7.852370911E0,2.630479889E0,2.677561071E1
9.588243792E0,2.647948563E1,9.794132996E0,3.929628296E0,2.850491499E1
9.598250792E0,2.671913727E1,1.131571884E1,5.125491486E0,2.946571656E1
9.608258792E0,2.623908554E1,1.273776169E1,5.985004120E0,2.977516511E1
9.618266792E0,2.514456161E1,1.408915146E1,6.206543427E0,2.948345890E1
9.628274792E0,2.380978729E1,1.511496826E1,6.000571747E0,2.883357588E1
9.638282792E0,2.233131180E1,1.562974777E1,5.576353912E0,2.782215349E1
9.648290792E0,2.074266541E1,1.633014130E1,4.856051788E0,2.684237176E1
9.658297792E0,1.934098022E1,1.683489166E1,4.133354645E0,2.597251844E1
9.668305792E0,1.820633972E1,1.678115341E1,3.740870819E0,2.504140632E1
9.678313792E0,1.737257355E1,1.634840332E1,3.649860077E0,2.413292525E1
9.688321792E0,1.676199326E1,1.609318405E1,3.698209534E0,2.352938045E1
9.698329792E0,1.651021683E1,1.604049362E1,3.606300659E0,2.330000214E1
9.708337792E0,1.650198395E1,1.593002335E1,3.506607971E0,2.320296139E1
9.718344792E0,1.642474457E1,1.574021805E1,3.262914734E0,2.298202147E1
9.728352792E0,1.637100632E1,1.563977692E1,2.813848572E0,2.281513124E1
9.738360792E0,1.650452866E1,1.544937286E1,2.222727814E0,2.271614199E1
9.748368792E0,1.685644684E1,1.496108826E1,1.645228729E0,2.259824638E1
9.758376792E0,1.714340012E1,1.416848648E1,1.296454010E0,2.227830715E1
9.768383792E0,1.735865250E1,1.310839096E1,1.211131439E0,2.178576529E1
9.778391792E0,1.739846970E1,1.189411606E1,1.433119812E0,2.112417044E1
9.788399792E0,1.714863922E1,1.051278854E1,1.765578461E0,2.019187503E1
9.798407792E0,1.656724823E1,9.126371613E0,2.157014465E0,1.903725516E1
9.808415792E0,1.568977295E1,7.884703674E0,2.486030273E0,1.773465178E1
9.818423792E0,1.464090408E1,6.672075348E0,2.785258026E0,1.632881882E1
9.828430792E0,1.360281281E1,5.545967102E0,3.148552551E0,1.502356983E1
9.838438792E0,1.261381943E1,4.582720184E0,3.488795013E0,1.386655889E1
9.848446792E0,1.157483002E1,3.742816772E0,3.601510620E0,1.268685328E1
9.858454792E0,1.074151291E1,3.185825043E0,3.720962219E0,1.180572491E1
9.868462792E0,1.030247589E1,2.862647095E0,3.997886353E0,1.141572832E1
9.878469792E0,9.806856537E0,2.460134125E0,4.091142426E0,1.090706841E1
9.888477792E0,9.325906677E0,2.201172638E0,4.039948883E0,1.039898473E1
9.898485792E0,8.987460480E0,2.145488434E0,4.059857483E0,1.009257199E1
9.908493792E0,8.647816772E0,2.003134460E0,3.940405884E0,9.712058542E0
9.918501792E0,8.279283142E0,1.930385742E0,3.835773468E0,9.326632648E0
9.928509792E0,7.857310638E0,1.734143829E0,3.687581635E0,8.851149281E0
9.938516792E0,7.228318634E0,1.251547394E0,3.352129211E0,8.065465356E0
9.948524792E0,6.474635925E0,8.015830994E-1,3.145858154E0,7.242918566E0
9.958532792E0,5.673801270E0,4.206253052E-1,2.941832428E0,6.404945318E0
9.968540792E0,4.803810425E0,-7.005432129E-2,2.643951874E0,5.483792822E0
9.978548792E0,3.922143860E0,-6.215075684E-1,2.351759491E0,4.615220127E0
9.988555792E0,3.106490021E0,-1.089584198E0,2.111658783E0,3.911083838E0
9.998563792E0,2.389930115E0,-1.379082184E0,1.912123718E0,3.357059835E0
1.000857179E1,1.730401611E0,-1.548679504E0,1.751956787E0,2.908960386E0
1.001857979E1,1.140628052E0,-1.750609589E0,1.647623749E0,2.660889006E0
1.002858779E1,6.541397095E-1,-1.943708038E0,1.521885223E0,2.553827389E0
1.003859579E1,2.463876343E-1,-2.087708588E0,1.365909576E0,2.506978856E0
1.004860279E1,-1.396595764E-1,-2.171384583E0,1.225501556E0,2.497252464E0
1.005861079E1,-4.364923096E-1,-2.268532562E0,1.091081085E0,2.554843137E0
1.006861879E1,-6.542893982E-1,-2.392923889E0,9.217831421E-1,2.646481346E0
1.007862679E1,-9.647438049E-1,-2.488125916E0,7.490423584E-1,2.771744150E0
1.008863479E1,-1.307530975E0,-2.475552063E0,6.424639893E-1,2.872412792E0
1.009864279E1,-1.483415222E0,-2.437231750E0,5.263055420E-1,2.901312953E0
1.010864979E1,-1.506467285E0,-2.440375214E0,4.360432434E-1,2.900863419E0
1.011865779E1,-1.430425415E0,-2.426903229E0,3.109034729E-1,2.834190734E0
1.012866579E1,-1.240320740E0,-2.398612061E0,1.802252197E-1,2.706328968E0
1.013867379E1,-9.274713135E-1,-2.367626495E0,1.457968140E-1,2.546981541E0
1.014868179E1,-5.254074097E-1,-2.324366455E0,9.340576172E-2,2.384838988E0
1.015868879E1,5.538482666E-3,-2.312840424E0,8.397537231E-2,2.314371051E0
1.016869679E1,5.840853882E-1,-2.323618011E0,1.035845947E-1,2.398142234E0
1.017870479E1,1.172811127E0,-2.272574158E0,1.204994202E-1,2.560195178E0
1.018871279E1,1.938169556E0,-2.212698669E0,1.954934692E-1,2.948008535E0
1.019872079E1,2.803669739E0,-2.160606995E0,2.853067017E-1,3.551082441E0
1.020872912E1,3.706442413E0,-1.975891113E0,3.888912964E-1,4.218186517E0
1.021873612E1,4.779710541E0,-1.630708923E0,5.646258545E-1,5.081697236E0
1.022874413E1,6.145021362E0,-1.237027588E0,6.950047302E-1,6.306707253E0
1.023875212E1,7.880662079E0,-5.923182678E-1,9.322613525E-1,7.957687287E0
1.024876012E1,1.015413437E1,2.299218750E-1,1.369352417E0,1.024863088E1
1.025876813E1,1.288670197E1,8.071215820E-1,1.542841644E0,1.300380303E1
1.026877512E1,1.559936096E1,1.162183228E0,1.628912659E0,1.572717676E1
1.027878312E1,1.820304657E1,2.019600220E0,2.230062561E0,1.845000999E1
1.028879112E1,2.107063339E1,3.803590393E0,2.868934021E0,2.160253860E1
1.029879912E1,2.346011444E1,6.323749695E0,3.223696289E0,2.451038550E1
1.030880712E1,2.501253616E1,9.000483398E0,3.310216370E0,2.678793010E1
1.031881512E1,2.577430206E1,1.115300720E1,3.134481812E0,2.825825884E1
1.032882212E1,2.597219055E1,1.241024277E1,3.173849945E0,2.895931855E1
1.033883012E1,2.561967361E1,1.258253448E1,3.439697113E0,2.874924984E1
1.034883812E1,2.464115845E1,1.307201660E1,3.683540039E0,2.813596941E1
1.035884612E1,2.335847580E1,1.402777908E1,4.212390289E0,2.757065849E1
1.036885413E1,2.189556793E1,1.466081268E1,5.394332428E0,2.689710293E1
1.037886212E1,2.039299255E1,1.515433640E1,6.096971283E0,2.612854982E1
1.038886912E1,1.900492905E1,1.546359329E1,6.421047363E0,2.532863784E1
1.039887713E1,1.788884995E1,1.572959015E1,6.702462158E0,2.474578666E1
1.040888512E1,1.704550369E1,1.596175735E1,6.763385468E0,2.431193692E1
1.041889312E1,1.656021286E1,1.620066055E1,6.653813324E0,2.410342889E1
1.042890113E1,1.666319870E1,1.656170975E1,6.142626343E0,2.428341572E1
1.043890912E1,1.717887634E1,1.663445847E1,5.173242188E0,2.446592397E1
1.044891612E1,1.786834259E1,1.641995453E1,4.289779358E0,2.464335165E1
1.045892412E1,1.857038269E1,1.621158783E1,3.686982880E0,2.492525900E1
1.046893212E1,1.901705383E1,1.561298264E1,2.794389038E0,2.476332315E1
1.047894012E1,1.900672531E1,1.459360245E1,2.376458130E0,2.408062276E1
1.048894812E1,1.872186768E1,1.351569397E1,2.446063385E0,2.321993839E1
1.049895612E1,1.842817841E1,1.235425919E1,2.703977051E0,2.235032374E1
1.050896313E1,1.794393539E1,1.105690704E1,3.182082825E0,2.131585471E1
1.051897112E1,1.731853592E1,9.829459534E0,3.647914124E0,2.024493118E1
1.052897912E1,1.660452072E1,8.704548798E0,4.151466980E0,1.920192585E1
1.053898713E1,1.578916626E1,7.621401215E0,4.713099060E0,1.815480186E1
1.054899512E1,1.499401978E1,6.613397369E0,4.863386536E0,1.709415638E1
1.055900212E1,1.428943497E1,5.683081970E0,4.834346924E0,1.612005839E1
1.056901013E1,1.367151993E1,4.916825409E0,4.777914276E0,1.529425036E1
1.057901812E1,1.306662781E1,4.180057526E0,4.511318665E0,1.444166331E1
1.058902612E1,1.234782257E1,3.540287933E0,4.172722778E0,1.350607183E1
1.059903412E1,1.154429352E1,2.895578613E0,3.805835724E0,1.249557817E1
1.060904212E1,1.074196198E1,2.284698944E0,3.389850769E0,1.149350619E1
1.061904912E1,9.834099884E0,1.566492462E0,2.886597290E0,1.036802117E1
1.062905712E1,8.841064911E0,6.298901367E-1,2.327958984E0,9.164092065E0
1.063906512E1,7.817044373E0,-3.067121887E-1,2.024240570E0,8.080705723E0
1.064907312E1,6.786587219E0,-1.129700775E0,1.831740875E0,7.119639356E0
1.065908112E1,5.759423218E0,-1.855691071E0,1.585502930E0,6.255266956E0
1.066908912E1,4.689897308E0,-2.505938873E0,1.381327515E0,5.493899535E0
1.067909613E1,3.612138519E0,-2.948119354E0,1.309626617E0,4.842940665E0
1.068910412E1,2.609972534E0,-3.204685822E0,1.113235016E0,4.280334104E0
1.069911212E1,1.749711456E0,-3.440894623E0,8.731343079E-1,3.957727821E0
1.070912013E1,1.046174469E0,-3.672313385E0,6.614744568E-1,3.875295482E0
1.071912812E1,4.824467468E-1,-3.826343079E0,3.802093506E-1,3.875334227E0
1.072913612E1,2.903961182E-2,-3.952380981E0,8.547225952E-2,3.953411720E0
1.073914312E1,-3.047662354E-1,-4.137994995E0,-1.797761536E-1,4.153095773E0
1.074915112E1,-6.412664795E-1,-4.362677765E0,-4.164340210E-1,4.429175688E0
1.075915912E1,-1.049617310E0,-4.488266602E0,-5.954617310E-1,4.647666969E0
1.076916712E1,-1.477128296E0,-4.491110687E0,-6.809339905E-1,4.776573490E0
1.077917512E1,-1.771865387E0,-4.433480530E0,-7.017407227E-1,4.825732753E0
1.078918212E1,-1.954934692E0,-4.351900177E0,-8.123606873E-1,4.839497359E0
1.079919012E1,-2.070793762E0,-4.208947449E0,-8.437953186E-1,4.766069237E0
1.080919812E1,-2.150577850E0,-3.972289581E0,-7.601193237E-1,4.580595048E0
1.081920613E1,-2.155816956E0,-3.702700195E0,-6.155200195E-1,4.328556385E0
1.082921412E1,-2.009421387E0,-3.479065247E0,-4.851411438E-1,4.046854486E0
1.083922212E1,-1.707798615E0,-3.336561584E0,-4.334985352E-1,3.773213524E0
1.084922913E1,-1.254690857E0,-3.201841736E0,-2.899470520E-1,3.451102569E0
1.085923712E1,-5.932164001E-1,-3.025807800E0,-1.184037781E-1,3.085682744E0
1.086924512E1,2.495310974E-1,-2.812651062E0,-1.826202393E-2,2.823757296E0
1.087925313E1,1.162033539E0,-2.641856232E0,-2.335144043E-2,2.886220987E0
1.088926112E1,2.211950226E0,-2.387535095E0,2.544708252E-3,3.254697238E0
1.089926912E1,3.344944153E0,-1.993554382E0,1.061293030E-1,3.895404201E0
1.090927612E1,4.487967224E0,-1.306782532E0,2.092648315E-1,4.679030045E0
1.091928412E1,5.808371429E0,-2.242337036E-1,4.450245667E-1,5.829708936E0
1.092929212E1,7.660020905E0,1.221609650E0,7.544311523E-1,7.793421377E0
1.093930012E1,1.011835876E1,2.687660980E0,1.185235291E0,1.053610404E1
1.094930812E1,1.303803726E1,3.869154053E0,1.637594604E0,1.369826576E1
1.095931513E1,1.621428223E1,4.970863037E0,2.001487885E0,1.707683756E1
1.096932312E1,1.961655716E1,6.267766113E0,2.249671783E0,2.071606213E1
1.097933112E1,2.220632172E1,8.038134613E0,2.578986969E0,2.375675706E1
1.098933913E1,2.333302872E1,1.003318588E1,3.348686371E0,2.561852354E1
1.099934712E1,2.359633118E1,1.201281921E1,4.170178070E0,2.680457154E1
1.100935512E1,2.392609543E1,1.362885864E1,4.520150299E0,2.790404252E1
1.101936213E1,2.453368195E1,1.475451782E1,4.542304230E0,2.898671892E1
1.102937012E1,2.466585709E1,1.577389801E1,4.177812195E0,2.957489609E1
1.103937812E1,2.435106171E1,1.668370605E1,3.769760742E0,2.975787879E1
1.104938612E1,2.338556946E1,1.759037064E1,3.363056488E0,2.945532459E1
1.105939412E1,2.207848755E1,1.848446136E1,3.461401978E0,2.900200386E1
1.106940212E1,2.064656525E1,1.856873611E1,3.971241760E0,2.805083561E1
1.107940912E1,1.899954025E1,1.798869232E1,4.033212891E0,2.647342795E1
1.108941712E1,1.741733047E1,1.752211258E1,3.907923431E0,2.501319043E1
1.109942512E1,1.614347946E1,1.711331268E1,3.863166504E0,2.384117144E1
1.110943312E1,1.524070679E1,1.669882462E1,3.600911865E0,2.289315298E1
1.111944112E1,1.473356140E1,1.642489426E1,3.029250641E0,2.227176110E1
1.112944913E1,1.480346603E1,1.618359604E1,2.442021790E0,2.206841312E1
1.113945612E1,1.525058624E1,1.588811050E1,1.546583862E0,2.207723619E1
1.114946412E1,1.573482925E1,1.546718582E1,9.009764099E-1,2.208235602E1
1.115947213E1,1.625125534E1,1.482951187E1,4.846920776E-1,2.200574127E1
1.116948012E1,1.669553146E1,1.398257309E1,1.032852173E-1,2.177759833E1
1.117948812E1,1.688683365E1,1.307081909E1,1.005908203E-1,2.135466181E1
1.118949613E1,1.677756088E1,1.214664093E1,5.197192383E-1,2.071949669E1
1.119950312E1,1.635633682E1,1.117785553E1,1.127006378E0,1.984299251E1
1.120951075E1,1.578931595E1,1.022478745E1,1.933678894E0,1.890999446E1
1.121951875E1,1.544084061E1,9.417366486E0,2.758014679E0,1.829516316E1
1.122952675E1,1.518906418E1,8.345295868E0,3.176694031E0,1.761939326E1
1.123953475E1,1.481065109E1,7.304061127E0,3.676804047E0,1.691814360E1
1.124954275E1,1.420800430E1,6.446943512E0,4.155658264E0,1.614620582E1
1.125954975E1,1.353680008E1,5.521867218E0,4.191882935E0,1.520880852E1
1.126955775E1,1.268567001E1,4.530927887E0,4.017345886E0,1.405683461E1
1.127956575E1,1.165476379E1,3.477568359E0,3.885919189E0,1.276821713E1
1.128957375E1,1.049796936E1,2.354753265E0,3.441493378E0,1.129584438E1
1.129958175E1,9.187743988E0,1.467248840E0,2.905757446E0,9.747352722E0
1.130958975E1,7.881260834E0,8.526269531E-1,2.520308990E0,8.318245155E0
1.131959675E1,6.693630524E0,1.730401611E-1,2.104024658E0,7.018657439E0
1.132960475E1,5.496120758E0,-5.628295898E-1,1.655108185E0,5.767452092E0
1.133961275E1,4.289030914E0,-1.255139923E0,1.402882690E0,4.683934484E0
1.134962075E1,3.168610840E0,-1.802701263E0,1.148262177E0,3.822084840E0
1.135962875E1,2.125130768E0,-2.178719330E0,9.298663330E-1,3.182396910E0
1.136963575E1,1.135089569E0,-2.430196381E0,7.580236816E-1,2.787271548E0
1.137964375E1,2.647993469E-1,-2.592608643E0,6.098318481E-1,2.676496432E0
1.138965175E1,-4.189787292E-1,-2.689606934E0,4.505630493E-1,2.759082401E0
1.139965975E1,-8.500822449E-1,-2.819536743E0,2.835104370E-1,2.958514059E0
1.140966775E1,-1.111738129E0,-2.971021729E0,3.487747192E-2,3.172404170E0
1.141967575E1,-1.333876190E0,-3.072810059E0,-2.255809021E-1,3.357420750E0
1.142968275E1,-1.518592072E0,-3.121458893E0,-3.758683777E-1,3.491547585E0
1.143969075E1,-1.665586395E0,-3.032094727E0,-4.730163574E-1,3.491635855E0
1.144969875E1,-1.833986206E0,-2.739453278E0,-6.475534058E-1,3.359677823E0
1.145970675E1,-1.838476868E0,-2.387385406E0,-7.343728638E-1,3.101436728E0
1.146971475E1,-1.717827759E0,-2.164947968E0,-8.225395203E-1,2.883488022E0
1.147972275E1,-1.687890015E0,-1.861379242E0,-8.646020508E-1,2.657299774E0
1.148972975E1,-1.705702972E0,-1.535806274E0,-7.295828247E-1,2.408404999E0
1.149973775E1,-1.587897949E0,-1.289568329E0,-5.833369446E-1,2.127131487E0
1.150974575E1,-1.459015961E0,-1.036145325E0,-4.171824646E-1,1.837489025E0
1.151975375E1,-1.241069183E0,-7.646099854E-1,-2.118095398E-1,1.473005237E0
1.152976175E1,-7.966433716E-1,-5.936654663E-1,-7.559280396E-2,9.963902947E-1
1.153976975E1,-1.999841309E-1,-4.631369019E-1,2.514770508E-2,5.050958815E-1
1.154977675E1,2.906954956E-1,-1.868115234E-1,1.121168518E-1,3.632803393E-1
1.155978475E1,7.855664063E-1,2.604583740E-1,1.938468933E-1,8.500175065E-1
1.156979275E1,1.410965881E0,5.867797852E-1,3.140469360E-1,1.560051510E0
1.157980075E1,1.992057495E0,1.034049683E0,4.764591980E-1,2.294464028E0
1.158980875E1,2.644700317E0,1.550326080E0,6.456074524E-1,3.132851689E0
1.159981675E1,3.532504120E0,1.760339355E0,7.614665222E-1,4.019603372E0
1.160982375E1,4.595144348E0,1.859133911E0,9.009764099E-1,5.038202951E0
1.161983175E1,5.830076294E0,1.988015900E0,1.094673615E0,6.256221474E0
1.162983975E1,7.047644348E0,2.340383148E0,1.388961639E0,7.554859269E0
1.163984775E1,8.063881073E0,2.905907135E0,1.556014252E0,8.711581635E0
1.164985575E1,8.942553864E0,3.249592438E0,1.532662811E0,9.637332406E0
1.165986275E1,9.776320038E0,3.575315094E0,1.531614990E0,1.052165177E1
1.166987075E1,1.073208252E1,4.040847015E0,1.493893433E0,1.156450420E1
1.167987875E1,1.193632828E1,4.119732971E0,1.297202454E0,1.269373336E1
1.168988675E1,1.316467392E1,4.072880402E0,1.235530701E0,1.383558926E1
1.169989475E1,1.440469528E1,4.447551270E0,1.361867981E0,1.513706190E1
1.170990275E1,1.567390594E1,5.206473083E0,1.546733551E0,1.658828123E1
1.171991075E1,1.708097992E1,6.500532074E0,1.852547607E0,1.836977749E1
1.172991775E1,1.851275253E1,7.845784607E0,1.975591736E0,2.020349735E1
1.173992575E1,1.984588028E1,9.033714294E0,1.976340179E0,2.189458560E1
1.174993375E1,2.114293304E1,1.047761169E1,2.218386841E0,2.370074270E1
1.175994175E1,2.241528717E1,1.188288940E1,2.073188782E0,2.545478877E1
1.176994975E1,2.299727692E1,1.305689804E1,1.280287628E0,2.647633790E1
1.177995675E1,2.262215698E1,1.431069077E1,8.994795227E-1,2.678370624E1
1.178996475E1,2.146835632E1,1.565250046E1,3.029699707E-1,2.657033844E1
1.179997275E1,2.020872574E1,1.644390472E1,3.457809448E-2,2.605370980E1
1.180998075E1,1.904190216E1,1.672576859E1,-1.413061523E-1,2.534492730E1
1.181998875E1,1.777673309E1,1.674807220E1,-2.869532776E-1,2.442524318E1
1.182999675E1,1.665885773E1,1.665870804E1,-2.372566223E-1,2.356027133E1
1.184000475E1,1.574919937E1,1.656425446E1,-3.842509460E-1,2.285955939E1
1.185001175E1,1.512963776E1,1.647893188E1,-5.330415344E-1,2.237733827E1
1.186001975E1,1.507260635E1,1.672621765E1,-6.987469482E-1,2.252638601E1
1.187002775E1,1.532258652E1,1.699910019E1,-9.407936096E-1,2.290493740E1
1.188003575E1,1.567270844E1,1.703083420E1,-1.174457703E0,2.317460796E1
1.189004375E1,1.619886429E1,1.690225159E1,-1.221010895E0,2.344312651E1
1.190005075E1,1.671978104E1,1.646980087E1,-1.228794708E0,2.350139049E1
1.191005875E1,1.685420151E1,1.575144470E1,-1.090332642E0,2.309460855E1
1.192006675E1,1.689970688E1,1.484223541E1,-7.048841858E-1,2.250308660E1
1.193007475E1,1.698128723E1,1.368484222E1,-2.272274780E-1,2.181033368E1
1.194008275E1,1.676199326E1,1.257145752E1,4.427792358E-1,2.095714712E1
1.195009075E1,1.639600433E1,1.161554535E1,1.162033539E0,2.012710048E1
1.196009875E1,1.605695938E1,1.066846481E1,1.952689362E0,1.937666333E1
1.197010575E1,1.585517899E1,9.813592529E0,2.715203705E0,1.884318524E1
1.198011375E1,1.568154007E1,8.940907288E0,3.165317688E0,1.832674980E1
1.199012175E1,1.537572601E1,7.987390137E0,3.497027893E0,1.767598811E1
1.200012975E1,1.495031067E1,7.170089722E0,3.802991638E0,1.701131156E1
1.201013775E1,1.424797119E1,6.341412964E0,3.809727631E0,1.605404080E1
1.202014475E1,1.327604233E1,5.361849976E0,3.642076263E0,1.477387744E1
1.203015275E1,1.215232910E1,4.350103912E0,3.524420929E0,1.337998690E1
1.204016075E1,1.093042007E1,3.382965088E0,3.337759094E0,1.191885781E1
1.205016875E1,9.597142639E0,2.414928131E0,2.899021454E0,1.031219424E1
1.206017675E1,8.250093842E0,1.439257050E0,2.487227783E0,8.736235533E0
1.207018475E1,6.940167847E0,5.385800171E-1,2.176773376E0,7.293445037E0
1.208019175E1,5.654641113E0,-1.440005493E-1,1.852397919E0,5.952065215E0
1.209019975E1,4.435426483E0,-6.848258972E-1,1.536105652E0,4.743586741E0
1.210020775E1,3.334316254E0,-1.172811127E0,1.313967590E0,3.770896664E0
1.211021575E1,2.422562256E0,-1.462458801E0,1.147064667E0,3.053416280E0
1.212022375E1,1.717229004E0,-1.653012543E0,1.028960266E0,2.596167396E0
1.213023175E1,1.211281128E0,-1.870809631E0,8.939410400E-1,2.401304069E0
1.214023875E1,8.572673035E-1,-2.081870728E0,7.677534485E-1,2.378768234E0
1.215024675E1,5.198689270E-1,-2.225122833E0,6.831793213E-1,2.384988325E0
1.216025475E1,1.544787598E-1,-2.296823730E0,6.084846497E-1,2.381074653E0
1.217026275E1,-1.621128845E-1,-2.321522369E0,5.484594727E-1,2.390931720E0
1.218027075E1,-3.942800903E-1,-2.315385132E0,5.078938293E-1,2.403002547E0
1.219027875E1,-5.331912231E-1,-2.279010773E0,4.710704041E-1,2.387486190E0
1.220028575E1,-6.471043396E-1,-2.234702911E0,3.373983765E-1,2.350846399E0
1.221029738E1,-7.851173401E-1,-2.155966644E0,2.362088013E-1,2.306598363E0
1.222030537E1,-9.445358276E-1,-2.051184540E0,1.052311707E-1,2.260659095E0
1.223031337E1,-1.113085327E0,-1.935026093E0,-4.191284180E-3,2.232331179E0
1.224032138E1,-1.203497314E0,-1.854343872E0,-1.257385254E-2,2.210691087E0
1.225032937E1,-1.235231323E0,-1.746867371E0,3.966751099E-2,2.139840074E0
1.226033637E1,-1.244661713E0,-1.605411530E0,6.571334839E-2,2.032448573E0
1.227034437E1,-1.103056183E0,-1.550326080E0,8.307723999E-2,1.904506688E0
1.228035237E1,-8.165519714E-1,-1.571432190E0,1.082249451E-1,1.774223461E0
1.229036037E1,-4.879852295E-1,-1.608405304E0,1.299298096E-1,1.685817001E0
1.230036837E1,-1.118174744E-1,-1.642534332E0,1.532812500E-1,1.653456175E0
1.231037637E1,1.172062683E-1,-1.634301453E0,2.097138977E-1,1.651865148E0
1.232038338E1,4.460723877E-1,-1.677711182E0,3.095562744E-1,1.763383246E0
1.233039137E1,8.366102600E-1,-1.818717957E0,3.445834351E-1,2.031351638E0
1.234039937E1,1.189576263E0,-1.877545624E0,3.890409851E-1,2.256462307E0
1.235040738E1,1.736239471E0,-1.840722198E0,4.794529724E-1,2.575395284E0
1.236041537E1,2.587369537E0,-1.726360016E0,5.143304443E-1,3.152671222E0
1.237042337E1,3.821403351E0,-1.542392578E0,4.758604431E-1,4.148317924E0
1.238043038E1,5.283712463E0,-1.398841095E0,4.543052673E-1,5.484593611E0
1.239043837E1,6.883585510E0,-1.277742920E0,5.435197449E-1,7.022235410E0
1.240044637E1,8.690028992E0,-1.110241241E0,8.265811157E-1,8.799572480E0
1.241045437E1,1.035666321E1,-9.735754395E-1,1.379680939E0,1.049341896E1
1.242046237E1,1.203691910E1,-4.546046448E-1,1.896556091E0,1.219389240E1
1.243047037E1,1.397927994E1,2.815644836E-1,2.254761200E0,1.416275023E1
1.244047737E1,1.606609039E1,8.560697937E-1,2.096091156E0,1.622484866E1
1.245048537E1,1.816098404E1,1.456321564E0,1.703757019E0,1.829877050E1
1.246049337E1,2.030213150E1,2.548151093E0,1.776805115E0,2.053841897E1
1.247050137E1,2.255330017E1,4.112098846E0,2.229912872E0,2.303330669E1
1.248050937E1,2.514456161E1,6.136040039E0,2.732567596E0,2.602627311E1
1.249051738E1,2.773462555E1,8.791817322E0,3.434757385E0,2.929680980E1
1.250052437E1,2.952954300E1,1.190519302E1,4.991370392E0,3.222795850E1
1.251053237E1,3.004686722E1,1.500255203E1,6.145171051E0,3.414167431E1
1.252054038E1,2.929692673E1,1.715687210E1,6.153104553E0,3.450404138E1
1.253054837E1,2.776665894E1,1.823942093E1,5.045557709E0,3.360240284E1
1.254055637E1,2.610197067E1,1.876258301E1,3.776047668E0,3.236674111E1
1.255056438E1,2.411365540E1,1.884805527E1,3.159030762E0,3.076844226E1
1.256057137E1,2.194571365E1,1.827354996E1,2.736459503E0,2.868841554E1
1.257057937E1,2.000005966E1,1.750100647E1,2.914738770E0,2.673543185E1
1.258058737E1,1.861648682E1,1.699281326E1,3.452121277E0,2.544103821E1
1.259059537E1,1.781789749E1,1.659658722E1,3.766617279E0,2.463963441E1
1.260060337E1,1.771910294E1,1.610545853E1,4.093836823E0,2.429221898E1
1.261061137E1,1.791130325E1,1.552736069E1,4.080813904E0,2.405341465E1
1.262061837E1,1.797971100E1,1.482502121E1,3.531905365E0,2.356959094E1
1.263062638E1,1.806413544E1,1.406430313E1,2.941682739E0,2.308183504E1
1.264063437E1,1.802776108E1,1.330268692E1,2.436782684E0,2.253662705E1
1.265064237E1,1.792926590E1,1.235036728E1,2.019600220E0,2.186478751E1
1.266065038E1,1.797312469E1,1.126213028E1,1.793570251E0,2.128580945E1
1.267065837E1,1.797102905E1,1.010668304E1,1.928439789E0,2.070801312E1
1.268066537E1,1.781445465E1,9.022787018E0,2.352957001E0,2.010725955E1
1.269067338E1,1.736568787E1,7.868537292E0,2.864143982E0,1.927911603E1
1.270068137E1,1.659883255E1,6.786287842E0,3.360661469E0,1.824469759E1
1.271068937E1,1.572315353E1,5.870941315E0,3.900888062E0,1.723085711E1
1.272069737E1,1.489327927E1,4.971012726E0,4.392914886E0,1.630393928E1
1.273070537E1,1.404918457E1,3.972139893E0,4.554429016E0,1.529379960E1
1.274071237E1,1.311093567E1,3.031346283E0,4.554129639E0,1.420654044E1
1.275072037E1,1.211565536E1,2.332749023E0,4.626429291E0,1.317705092E1
1.276072837E1,1.121033798E1,1.827549591E0,4.509223022E0,1.222066723E1
1.277073637E1,1.023257126E1,1.236129456E0,4.104015656E0,1.109398373E1
1.278074437E1,9.097781067E0,7.354206848E-1,3.780837708E0,9.879534285E0
1.279075237E1,8.019273834E0,3.637435913E-1,3.503763885E0,8.758848303E0
1.280075938E1,6.899602203E0,-1.115180969E-1,3.021466827E0,7.533007941E0
1.281076737E1,5.745352478E0,-6.131250000E-1,2.505489807E0,6.297815219E0
1.282077537E1,4.654720459E0,-1.008153534E0,2.165546722E0,5.231862833E0
1.283078338E1,3.547323303E0,-1.294208679E0,1.789229279E0,4.178494960E0
1.284079137E1,2.526595917E0,-1.423539734E0,1.393601990E0,3.217495735E0
1.285079937E1,1.617536316E0,-1.495240631E0,1.155746613E0,2.487552715E0
1.286080637E1,8.184979248E-1,-1.500629425E0,8.833131409E-1,1.924076305E0
1.287081437E1,2.308200073E-1,-1.523382111E0,5.894741821E-1,1.649682012E0
1.288082237E1,-1.971400452E-1,-1.569336548E0,4.056564331E-1,1.632862070E0
1.289083037E1,-5.243595886E-1,-1.537153473E0,2.935395813E-1,1.650442142E0
1.290083837E1,-7.294331360E-1,-1.471290436E0,1.707948303E-1,1.651041829E0
1.291084637E1,-8.372090149E-1,-1.499581604E0,4.715194702E-2,1.718105709E0
1.292085337E1,-8.828640747E-1,-1.530118103E0,1.796264648E-2,1.766644571E0
1.293086137E1,-8.967851257E-1,-1.551822968E0,-3.442840576E-3,1.792314129E0
1.294086938E1,-9.702822876E-1,-1.593586121E0,-2.799179077E-2,1.865944260E0
1.295087737E1,-1.068627777E0,-1.614841919E0,-2.305206299E-2,1.936546190E0
1.296088537E1,-1.165476379E0,-1.638941803E0,-2.918930054E-2,2.011297452E0
1.297089338E1,-1.241817627E0,-1.629361725E0,-9.280700684E-3,2.048662193E0
1.298090037E1,-1.331331482E0,-1.588496704E0,-7.484436035E-3,2.072636319E0
1.299090837E1,-1.396296387E0,-1.560355225E0,-4.355941772E-2,2.094337473E0
1.300091638E1,-1.309327240E0,-1.514999542E0,-7.065307617E-2,2.003635020E0
1.301092437E1,-1.066681824E0,-1.505419464E0,-6.002517700E-2,1.845995909E0
1.302093237E1,-7.729925537E-1,-1.438957672E0,-1.419049072E-1,1.639589483E0
1.303094037E1,-4.719685364E-1,-1.326391754E0,-1.913021851E-1,1.420797632E0
1.304094837E1,-8.038284302E-2,-1.291364594E0,-1.709445190E-1,1.305107637E0
1.305095537E1,3.724255371E-1,-1.280736694E0,-1.462458801E-1,1.341780578E0
1.306096337E1,8.027806091E-1,-1.220861206E0,-4.969665527E-2,1.461994716E0
1.307097137E1,1.316961365E0,-1.179996185E0,1.287322998E-1,1.772949587E0
1.308097937E1,1.873204651E0,-1.107097778E0,4.044589233E-1,2.213176038E0
1.309098737E1,2.644251251E0,-8.568182373E-1,7.918533325E-1,2.890196165E0
1.310099537E1,3.748954010E0,-5.417234802E-1,1.212179260E0,3.977121957E0
1.311100238E1,5.121749268E0,-1.824705505E-1,1.701661377E0,5.400116897E0
1.312101037E1,6.711443481E0,3.454815674E-1,2.337688751E0,7.115308835E0
1.313101837E1,8.610244904E0,9.298663330E-1,2.891686707E0,9.130324239E0
1.314102638E1,1.078357544E1,1.386117554E0,3.126099243E0,1.131279442E1
1.315103437E1,1.296783325E1,1.775757294E0,3.295546875E0,1.349735687E1
1.316104237E1,1.500764145E1,2.264490967E0,3.453468475E0,1.556546388E1
1.317104937E1,1.655946442E1,2.913391571E0,3.596271515E0,1.719409436E1
1.318105737E1,1.776820084E1,3.918701019E0,3.522474976E0,1.853302481E1
1.319106537E1,1.909144913E1,5.390889587E0,3.317850494E0,2.011350920E1
1.320107337E1,2.032503387E1,6.957082672E0,3.432062988E0,2.175516163E1
1.321107804E1,2.154200317E1,8.460107117E0,3.493884430E0,2.340595099E1
1.322108604E1,2.271646088E1,1.021326141E1,3.623963928E0,2.516905676E1
1.323109304E1,2.354558670E1,1.218211716E1,4.216731262E0,2.684361105E1
1.324110104E1,2.406186310E1,1.399245255E1,4.681514740E0,2.822549493E1
1.325110904E1,2.392235321E1,1.554667053E1,4.398902435E0,2.886742611E1
1.326111704E1,2.289997925E1,1.670466248E1,4.156706085E0,2.864843806E1
1.327112504E1,2.142180313E1,1.761237488E1,4.101321259E0,2.803409057E1
1.328113304E1,2.014585648E1,1.831291809E1,3.918850708E0,2.750592469E1
1.329114004E1,1.907977341E1,1.868519394E1,3.449576569E0,2.692719451E1
1.330114804E1,1.815305054E1,1.862052841E1,3.012335815E0,2.617883667E1
1.331115604E1,1.751852005E1,1.832758759E1,2.734812927E0,2.550055319E1
1.332116404E1,1.719549179E1,1.801144501E1,2.424957275E0,2.501954250E1
1.333117204E1,1.718935455E1,1.760010040E1,1.908980255E0,2.467552735E1
1.334118004E1,1.733664825E1,1.701915848E1,1.433269501E0,2.433650323E1
1.335118704E1,1.739712250E1,1.629376694E1,1.166075134E0,2.386433413E1
1.336119504E1,1.738963806E1,1.538201294E1,9.842033386E-1,2.323735119E1
1.337120304E1,1.733874390E1,1.430530197E1,1.004710693E0,2.250073661E1
1.338121104E1,1.719564148E1,1.300420761E1,1.218615875E0,2.159362235E1
1.339121904E1,1.696467178E1,1.172047714E1,1.738185425E0,2.069277559E1
1.340122704E1,1.661919022E1,1.052431458E1,2.403701477E0,1.981757961E1
1.341123404E1,1.599214417E1,9.414223022E0,3.014730835E0,1.880066148E1
1.342124204E1,1.523711426E1,8.302634583E0,3.585194550E0,1.771883213E1
1.343125004E1,1.449001785E1,7.208859100E0,4.166136475E0,1.671182097E1
1.344125804E1,1.383527939E1,6.159690857E0,4.700974274E0,1.585736127E1
1.345126604E1,1.308653641E1,5.192851410E0,4.831353149E0,1.488506346E1
1.346127404E1,1.222582626E1,4.339176636E0,4.837789764E0,1.384570300E1
1.347128104E1,1.134191437E1,3.586392059E0,4.765789490E0,1.281460023E1
1.348128904E1,1.044393173E1,2.856210480E0,4.613705750E0,1.176944897E1
1.349129704E1,9.555678864E0,2.240241394E0,4.448449402E0,1.077582397E1
1.350130504E1,8.727900238E0,1.597927094E0,4.158652039E0,9.799183657E0
1.351131304E1,7.802823944E0,8.869056702E-1,3.678300934E0,8.671825698E0
1.352132104E1,6.792425079E0,4.311035156E-1,3.335813141E0,7.579613315E0
1.353132804E1,5.895939331E0,1.658551025E-1,3.105292511E0,6.665767029E0
1.354133604E1,5.008135529E0,-1.604663086E-1,2.730172577E0,5.706225829E0
1.355134404E1,4.133654022E0,-3.721261597E-1,2.383493500E0,4.786085532E0
1.356135204E1,3.356320496E0,-5.770500183E-1,2.118843842E0,4.010906782E0
1.357136004E1,2.607876892E0,-8.072712708E-1,1.753303986E0,3.244500525E0
1.358136804E1,1.902393951E0,-9.871971130E-1,1.443747711E0,2.584195879E0
1.359137604E1,1.243314514E0,-1.109642487E0,1.261277161E0,2.089965910E0
1.360138304E1,5.730084229E-1,-1.160836029E0,1.103205872E0,1.700865113E0
1.361139104E1,-6.316864014E-2,-1.197360077E0,8.901988220E-1,1.493357082E0
1.362139904E1,-6.417155457E-1,-1.218915253E0,7.200027466E-1,1.554334967E0
1.363140704E1,-1.122216339E0,-1.210981750E0,5.990542603E-1,1.756334911E0
1.364141504E1,-1.501228180E0,-1.218316498E0,4.960684204E-1,1.996012278E0
1.365142304E1,-1.789528656E0,-1.214873657E0,4.218228149E-1,2.203693559E0
1.366143004E1,-1.984423370E0,-1.213376770E0,3.356021118E-1,2.350074058E0
1.367143804E1,-2.119143219E0,-1.229842529E0,2.393522644E-1,2.461822523E0
1.368144604E1,-2.208058319E0,-1.260977783E0,1.634600830E-1,2.548000335E0
1.369145404E1,-2.344724121E0,-1.209484863E0,1.269360352E-1,2.641343900E0
1.370146204E1,-2.425855408E0,-1.114133148E0,4.176315308E-2,2.669796114E0
1.371147004E1,-2.379302216E0,-1.035995636E0,-5.568420410E-2,2.595663060E0
1.372147704E1,-2.221081238E0,-9.964778137E-1,-1.354682922E-1,2.438138953E0
1.373148504E1,-2.030078430E0,-9.937834167E-1,-1.667532349E-1,2.266413588E0
1.374149304E1,-1.800455933E0,-9.586065674E-1,-1.284329224E-1,2.043786469E0
1.375150104E1,-1.425934753E0,-9.138496399E-1,-1.511856079E-1,1.700372951E0
1.376150904E1,-9.232800293E-1,-9.351054382E-1,-1.630110168E-1,1.324175511E0
1.377151704E1,-4.483177185E-1,-9.624984741E-1,-1.122665405E-1,1.067705889E0
1.378152404E1,3.412902832E-2,-9.668394470E-1,-5.763015747E-2,9.691566137E-1
1.379153204E1,5.882766724E-1,-9.572593689E-1,1.022373962E-1,1.128214265E0
1.380154004E1,1.282532959E0,-8.602610779E-1,3.382965088E-1,1.580944161E0
1.381154804E1,2.167193298E0,-5.737568665E-1,5.560935974E-1,2.309797355E0
1.382155604E1,3.334615631E0,-3.791615295E-1,7.565267944E-1,3.440313600E0
1.383156404E1,4.747228088E0,-2.525248718E-1,1.024768982E0,4.863136313E0
1.384157104E1,6.415209503E0,-1.077758789E-2,1.456620941E0,6.578508470E0
1.385157904E1,8.315208435E0,1.847158813E-1,1.925595703E0,8.537255419E0
1.386158704E1,1.025951523E1,6.243516541E-1,2.430795135E0,1.056201840E1
1.387159504E1,1.220397171E1,1.366208954E0,2.878963165E0,1.261316302E1
1.388160304E1,1.408945084E1,1.931583252E0,2.998414764E0,1.453389589E1
1.389161104E1,1.554577240E1,2.254611511E0,2.893333282E0,1.597265445E1
1.390161804E1,1.659134811E1,2.555785217E0,2.943928070E0,1.704322689E1
1.391162604E1,1.739472748E1,3.268153839E0,3.056793365E0,1.796110685E1
1.392163404E1,1.818957458E1,4.276157684E0,3.015479279E0,1.892720960E1
1.393164204E1,1.924532913E1,5.201233978E0,3.302282867E0,2.020743923E1
1.394165004E1,2.054642349E1,6.273603973E0,3.577710114E0,2.177874273E1
1.395165804E1,2.189781326E1,7.847431183E0,3.778592377E0,2.356637779E1
1.396166604E1,2.319516541E1,9.424102478E0,3.756737823E0,2.531684192E1
1.397167304E1,2.386262741E1,1.068478088E1,3.469185791E0,2.637469961E1
1.398168104E1,2.396815796E1,1.205338486E1,3.182082825E0,2.701633457E1
1.399168904E1,2.348271744E1,1.356164841E1,2.971021729E0,2.727972316E1
1.400169704E1,2.274969177E1,1.466395615E1,2.756667480E0,2.720623644E1
1.401170504E1,2.186039108E1,1.526630356E1,2.456990662E0,2.677636132E1
1.402171304E1,2.113814301E1,1.564307007E1,2.306254120E0,2.639783209E1
1.403172004E1,2.046244812E1,1.593481339E1,2.369572449E0,2.604313603E1
1.404172804E1,1.979408798E1,1.579096252E1,2.404749298E0,2.543507884E1
1.405173604E1,1.915761154E1,1.534503983E1,2.357747040E0,2.465853399E1
1.406174404E1,1.861813339E1,1.479104187E1,2.246528320E0,2.388423539E1
1.407175204E1,1.828717163E1,1.433374283E1,2.258653107E0,2.334477123E1
1.408176004E1,1.814811081E1,1.401176239E1,2.329156494E0,2.304578880E1
1.409176704E1,1.803898773E1,1.358335327E1,2.267185364E0,2.269477239E1
1.410177504E1,1.800111649E1,1.307411224E1,2.186802521E0,2.235519427E1
1.411178304E1,1.807925400E1,1.238928635E1,2.116299133E0,2.201891376E1
1.412179104E1,1.815170334E1,1.161659317E1,2.078577576E0,2.165063638E1
1.413179904E1,1.801638474E1,1.079540085E1,2.089355164E0,2.110678098E1
1.414180704E1,1.780232986E1,9.827812958E0,2.291434937E0,2.046361479E1
1.415181404E1,1.738559647E1,8.812474365E0,2.591860199E0,1.966307220E1
1.416182204E1,1.674313248E1,7.824379120E0,2.933898926E0,1.871259353E1
1.417183004E1,1.611833176E1,7.015012207E0,3.513493652E0,1.792639541E1
1.418183804E1,1.564830917E1,6.274951172E0,4.062551880E0,1.734211406E1
1.419184604E1,1.502021530E1,5.425916748E0,4.262685699E0,1.652930518E1
1.420185404E1,1.406220749E1,4.541555786E0,4.274660797E0,1.538324196E1
1.421186142E1,1.307366318E1,3.854484558E0,4.439168701E0,1.433471098E1
1.422186942E1,1.212463669E1,3.188968506E0,4.434827728E0,1.329827176E1
1.423187742E1,1.107486969E1,2.444716187E0,4.159849548E0,1.208030315E1
1.424188542E1,9.943672028E0,1.656006317E0,3.918701019E0,1.081550683E1
1.425189342E1,8.737779694E0,8.925938416E-1,3.626508636E0,9.502477710E0
1.426190142E1,7.407645721E0,2.080673218E-1,3.202590179E0,8.072985260E0
1.427190842E1,6.146368561E0,-4.143383789E-1,2.786006470E0,6.761017292E0
1.428191642E1,5.052742767E0,-1.100960541E0,2.511327667E0,5.748833815E0
1.429192442E1,4.045936432E0,-1.686842194E0,2.245779877E0,4.925298514E0
1.430193242E1,3.061433716E0,-2.088906097E0,2.063459015E0,4.241906197E0
1.431194042E1,2.203118591E0,-2.513722687E0,1.976040802E0,3.882946114E0
1.432194842E1,1.495540009E0,-2.931054840E0,1.904489594E0,3.801947265E0
1.433195642E1,8.631051636E-1,-3.339405670E0,1.820963287E0,3.900318967E0
1.434196342E1,1.977388000E-1,-3.636687469E0,1.715881805E0,4.026021206E0
1.435197142E1,-4.658312988E-1,-3.793112183E0,1.644031219E0,4.160232864E0
1.436197942E1,-1.003213806E0,-3.916755066E0,1.529519348E0,4.322827503E0
1.437198742E1,-1.417252808E0,-4.176464996E0,1.357227631E0,4.614491546E0
1.438199542E1,-1.749711456E0,-4.542453918E0,1.094523926E0,4.989324644E0
1.439200342E1,-2.063159637E0,-4.965923309E0,8.666976929E-1,5.446851099E0
1.440201042E1,-2.418221283E0,-5.448819122E0,6.366261292E-1,5.995224502E0
1.441201842E1,-2.860701141E0,-5.772895203E0,4.348457336E-1,6.457477902E0
1.442202642E1,-3.251837769E0,-5.836812286E0,2.914439392E-1,6.687882035E0
1.443203442E1,-3.467688904E0,-5.850883026E0,2.052232361E-1,6.804396747E0
1.444204242E1,-3.534300385E0,-5.858816528E0,2.591111755E-1,6.847200079E0
1.445205042E1,-3.397185516E0,-5.742209015E0,4.053570557E-1,6.684171463E0
1.446205742E1,-3.027753754E0,-5.574707336E0,6.137237549E-1,6.373485038E0
1.447206542E1,-2.354154510E0,-5.318739624E0,9.312135315E-1,5.890517234E0
1.448207342E1,-1.389560394E0,-5.098846893E0,1.158141632E0,5.410213468E0
1.449208142E1,-2.667453003E-1,-4.853058014E0,1.357377319E0,5.046364863E0
1.450208942E1,1.037342834E0,-4.456831970E0,1.407972107E0,4.787673425E0
1.451209742E1,2.403102722E0,-3.783232727E0,1.431922302E0,4.705119981E0
1.452210442E1,3.963308258E0,-3.055146790E0,1.450783081E0,5.210230878E0
1.453211242E1,5.989494781E0,-2.154020691E0,1.551373901E0,6.551382591E0
1.454212042E1,8.387059021E0,-1.025218048E0,1.953886871E0,8.672456686E0
1.455212842E1,1.099523529E1,7.649093628E-2,2.608924713E0,1.130077600E1
1.456213642E1,1.390937531E1,1.068927155E0,3.062182159E0,1.428251680E1
1.457214442E1,1.712169525E1,2.176174622E0,3.078947296E0,1.753191663E1
1.458215242E1,2.013118698E1,3.555855560E0,2.931503906E0,2.065193727E1
1.459215942E1,2.246648071E1,4.860991516E0,2.860701141E0,2.316366994E1
1.460216742E1,2.360381561E1,6.054309998E0,2.591411133E0,2.450530948E1
1.461217542E1,2.375350433E1,7.561376038E0,2.895279236E0,2.509553780E1
1.462218342E1,2.399600006E1,9.689500580E0,3.790567474E0,2.615459505E1
1.463219142E1,2.463472183E1,1.155177795E1,4.115841064E0,2.751823471E1
1.464219942E1,2.511357605E1,1.260633499E1,3.693868561E0,2.834177215E1
1.465220642E1,2.522748917E1,1.361299164E1,3.063978424E0,2.882928571E1
1.466221442E1,2.472857666E1,1.484777390E1,2.346819763E0,2.893901270E1
1.467222242E1,2.380948792E1,1.579171097E1,1.953737183E0,2.863716011E1
1.468223042E1,2.267260208E1,1.670900345E1,1.841919708E0,2.822464082E1
1.469223842E1,2.140683426E1,1.711855179E1,2.290686493E0,2.750535608E1
1.470224642E1,1.998179764E1,1.707139984E1,3.023861847E0,2.645465309E1
1.471225342E1,1.884311554E1,1.698008972E1,3.534899139E0,2.561019254E1
1.472226142E1,1.811158676E1,1.683294571E1,3.892655182E0,2.503058930E1
1.473226942E1,1.760054947E1,1.652234161E1,3.672463074E0,2.441831483E1
1.474227742E1,1.738649460E1,1.622925110E1,2.997965698E0,2.397220440E1
1.475228542E1,1.753768021E1,1.589514587E1,2.057621155E0,2.375836051E1
1.476229342E1,1.784708679E1,1.539713150E1,1.391057281E0,2.361197166E1
1.477230142E1,1.821367447E1,1.480062195E1,8.945397949E-1,2.348609268E1
1.478230842E1,1.855825790E1,1.401325928E1,4.697232056E-1,2.325942845E1
1.479231642E1,1.883922363E1,1.303399567E1,4.056564331E-1,2.291213537E1
1.480232442E1,1.874192596E1,1.206970093E1,8.479866028E-1,2.230821711E1
1.481233242E1,1.825663513E1,1.093281509E1,1.541045380E0,2.133555701E1
1.482234042E1,1.748992950E1,9.689799957E0,2.387834473E0,2.013682226E1
1.483234842E1,1.660047913E1,8.483757935E0,3.212918701E0,1.891752897E1
1.484235542E1,1.554277863E1,7.314389648E0,3.824247437E0,1.759838435E1
1.485236342E1,1.440394684E1,6.215225372E0,4.358935547E0,1.628198483E1
1.486237142E1,1.349608475E1,5.322182465E0,4.800068207E0,1.528105312E1
1.487237942E1,1.274838959E1,4.537663879E0,4.787045288E0,1.435366271E1
1.488238742E1,1.189591232E1,3.757935333E0,4.654271393E0,1.331529384E1
1.489239542E1,1.097951797E1,3.092419281E0,4.527185669E0,1.227225660E1
1.490240242E1,1.016461258E1,2.581232300E0,4.280199280E0,1.132705676E1
1.491241042E1,9.301806793E0,1.852098541E0,3.776047668E0,1.020844820E1
1.492241842E1,8.249195709E0,1.101559296E0,3.243604889E0,8.932168572E0
1.493242642E1,7.089856567E0,5.683680725E-1,2.876119080E0,7.672103321E0
1.494243442E1,5.881569214E0,1.689985657E-1,2.509830780E0,6.396926409E0
1.495244242E1,4.801116028E0,-3.116519165E-1,2.241887970E0,5.307909541E0
1.496245042E1,3.820654907E0,-8.882528687E-1,2.007176056E0,4.406262906E0
1.497245742E1,2.902314606E0,-1.449585571E0,1.809886322E0,3.714891236E0
1.498246542E1,2.109862518E0,-1.873504028E0,1.723066864E0,3.306130156E0
1.499247342E1,1.387015686E0,-2.198627930E0,1.712139587E0,3.112747862E0
1.500248142E1,8.273295593E-1,-2.540966034E0,1.685644684E0,3.159490558E0
1.501248942E1,4.578977966E-1,-2.896027679E0,1.582359467E0,3.331742516E0
1.502249742E1,1.019380188E-1,-3.130889282E0,1.495090942E0,3.471045373E0
1.503250442E1,-1.890568542E-1,-3.287313995E0,1.308728485E0,3.543295930E0
1.504251242E1,-3.872447205E-1,-3.467988281E0,1.133742371E0,3.669097022E0
1.505252042E1,-6.153703308E-1,-3.643124084E0,1.007854156E0,3.829726327E0
1.506252842E1,-8.405021667E-1,-3.678450623E0,9.379495239E-1,3.888083356E0
1.507253642E1,-1.002016296E0,-3.689976654E0,8.358618164E-1,3.913902061E0
1.508254442E1,-1.143621826E0,-3.726949768E0,7.177574158E-1,3.963988038E0
1.509255142E1,-1.211281128E0,-3.743415527E0,6.956034851E-1,3.995525746E0
1.510255942E1,-1.229243774E0,-3.680995331E0,6.237528992E-1,3.930627757E0
1.511256742E1,-1.297651520E0,-3.462000732E0,6.234535217E-1,3.749405664E0
1.512257542E1,-1.285975800E0,-3.277733917E0,7.247927856E-1,3.594801520E0
1.513258342E1,-1.087338867E0,-3.202739868E0,7.006929016E-1,3.454101767E0
1.514259142E1,-8.012837219E-1,-3.030448151E0,6.948550415E-1,3.210684526E0
1.515259842E1,-4.806504822E-1,-2.843337250E0,6.798861694E-1,2.962741434E0
1.516260642E1,-9.056167603E-2,-2.706521759E0,6.252497864E-1,2.779280257E0
1.517261442E1,4.152365112E-1,-2.553240509E0,5.827381897E-1,2.651611256E0
1.518262242E1,1.053958282E0,-2.370620270E0,4.340972900E-1,2.630419925E0
1.519263042E1,1.660047913E0,-2.195484467E0,3.477268982E-1,2.774315251E0
1.520263842E1,2.439926147E0,-1.957928467E0,2.842588806E-1,3.141261943E0
1.521264554E1,3.515439606E0,-1.791324921E0,2.532733154E-1,3.953644896E0
1.522265354E1,4.714446259E0,-1.660047913E0,2.451901245E-1,5.004186327E0
1.523266154E1,6.032605133E0,-1.553768921E0,5.345384216E-1,6.252379857E0
1.524266954E1,7.564519501E0,-1.525777130E0,8.852590942E-1,7.767472870E0
1.525267754E1,9.239386597E0,-1.569635925E0,1.210083618E0,9.449567397E0
1.526268554E1,1.123533600E1,-1.650168457E0,1.565893707E0,1.146332648E1
1.527269354E1,1.381013168E1,-1.702110443E0,1.715283051E0,1.401995410E1
1.528270054E1,1.686662567E1,-1.104702759E0,1.681453400E0,1.698619190E1
1.529270854E1,1.991338989E1,4.635859680E-1,1.998643799E0,2.001880581E1
1.530271654E1,2.276780411E1,2.512824554E0,2.849324799E0,2.308258744E1
1.531272454E1,2.519800049E1,4.505630493E0,3.650009766E0,2.585657568E1
1.532273254E1,2.806828171E1,6.214626617E0,4.615352325E0,2.911617247E1
1.533274054E1,3.047797073E1,7.799680481E0,4.833598480E0,3.182931652E1
1.534274754E1,3.086476639E1,9.409133606E0,4.445455627E0,3.257188473E1
1.535275554E1,2.848785919E1,1.154803574E1,4.004772034E0,3.099924918E1
1.536276354E1,2.557356949E1,1.363933685E1,3.795207825E0,2.923084960E1
1.537277154E1,2.393372955E1,1.544952255E1,3.201692047E0,2.866639129E1
1.538277954E1,2.325818436E1,1.635543869E1,2.545007629E0,2.854681380E1
1.539278754E1,2.245555344E1,1.619961273E1,2.185605011E0,2.777510040E1
1.540279554E1,2.172836563E1,1.610815292E1,2.400857391E0,2.715434735E1
1.541280254E1,2.107721970E1,1.626727203E1,2.552042999E0,2.674670546E1
1.542281054E1,2.016202286E1,1.639375900E1,2.363135834E0,2.609304334E1
1.543281854E1,1.907887527E1,1.637280258E1,2.513273621E0,2.526635491E1
1.544282654E1,1.811966995E1,1.623314301E1,2.580783234E0,2.446421495E1
1.545283454E1,1.761297363E1,1.596100891E1,2.068548431E0,2.385895090E1
1.546284254E1,1.757091110E1,1.533575912E1,1.303040314E0,2.335851748E1
1.547284954E1,1.768332733E1,1.461830109E1,8.505313110E-1,2.295905476E1
1.548285754E1,1.783466263E1,1.393512177E1,5.842350769E-1,2.264076280E1
1.549286554E1,1.821591980E1,1.306064026E1,3.794609070E-1,2.241749426E1
1.550287354E1,1.861439117E1,1.196881073E1,5.364843750E-1,2.213675235E1
1.551288154E1,1.883682861E1,1.094224548E1,1.132844238E0,2.181380720E1
1.552288954E1,1.877380966E1,1.005743546E1,1.707199860E0,2.136638642E1
1.553289654E1,1.851005814E1,9.026229858E0,2.367626495E0,2.072922413E1
1.554290454E1,1.817400696E1,8.099806366E0,3.200943604E0,2.015309981E1
1.555291254E1,1.769455399E1,7.129973145E0,3.847149811E0,1.946109759E1
1.556292054E1,1.689806030E1,6.102210388E0,4.384382629E0,1.849335623E1
1.557292854E1,1.589484650E1,5.110073547E0,4.990023193E0,1.742582360E1
1.558293654E1,1.494267654E1,4.254003754E0,5.150489502E0,1.636788540E1
1.559294454E1,1.397119675E1,3.370840302E0,5.018464050E0,1.522307079E1
1.560295154E1,1.297247360E1,2.498604126E0,4.818330231E0,1.406216200E1
1.561295954E1,1.187809937E1,1.710343323E0,4.432432709E0,1.279300506E1
1.562296754E1,1.057715469E1,1.065184937E0,3.985462189E0,1.135318146E1
1.563297554E1,9.220376129E0,4.077520752E-1,3.513942719E0,9.875696995E0
1.564298354E1,7.940687256E0,-2.796185303E-1,3.108885040E0,8.532166595E0
1.565299154E1,6.807992706E0,-8.270301819E-1,2.705024872E0,7.372238681E0
1.566299854E1,5.821843414E0,-1.404080200E0,2.429747314E0,6.462892074E0
1.567300654E1,4.942871246E0,-2.092199249E0,2.288141785E0,5.834797913E0
1.568301454E1,4.129013672E0,-2.562072144E0,2.175575867E0,5.324105364E0
1.569302254E1,3.349285126E0,-2.814746704E0,2.052681427E0,4.832598773E0
1.570303054E1,2.667602692E0,-3.103795624E0,1.965712280E0,4.540228647E0
1.571303854E1,2.100881195E0,-3.453019409E0,1.917063446E0,4.473497188E0
1.572304654E1,1.610500946E0,-3.735032959E0,1.833836517E0,4.461741910E0
1.573305354E1,1.278940430E0,-4.026327209E0,1.717229004E0,4.560249431E0
1.574306154E1,1.093326416E0,-4.425247650E0,1.500180359E0,4.798824911E0
1.575306954E1,8.306227112E-1,-4.821324005E0,1.280587006E0,5.057173354E0
1.576307754E1,5.659730530E-1,-5.152585144E0,1.091230774E0,5.297192064E0
1.577308554E1,3.758683777E-1,-5.461542664E0,8.566685486E-1,5.541083496E0
1.578309354E1,1.511856079E-2,-5.466632080E0,6.902146912E-1,5.510053647E0
1.579310054E1,-4.683760071E-1,-5.247038727E0,6.213578796E-1,5.304420524E0
1.580310854E1,-8.360115051E-1,-5.034331055E0,5.279521179E-1,5.130510486E0
1.581311654E1,-1.080752563E0,-4.798421631E0,5.098397827E-1,4.944978549E0
1.582312454E1,-1.231638794E0,-4.533023529E0,5.776487732E-1,4.732749152E0
1.583313254E1,-1.308728485E0,-4.313280487E0,6.390211487E-1,4.552527522E0
1.584314054E1,-1.264270935E0,-4.065845032E0,7.581733704E-1,4.324847243E0
1.585314754E1,-1.161285095E0,-3.812721405E0,8.933422852E-1,4.084542572E0
1.586315554E1,-8.867559814E-1,-3.559897156E0,9.629475403E-1,3.792950289E0
1.587316354E1,-1.366658020E-1,-3.377127228E0,1.071172485E0,3.545571371E0
1.588317154E1,1.116677856E0,-3.278033295E0,1.165326691E0,3.653827857E0
1.589317954E1,2.257156219E0,-2.994073792E0,1.033750305E0,3.889456487E0
1.590318754E1,3.324885864E0,-2.228565674E0,9.415420532E-1,4.111918337E0
1.591319554E1,4.783602448E0,-1.257834320E0,8.810678101E-1,5.024070067E0
1.592320254E1,6.777605896E0,-1.866618347E-1,6.637197876E-1,6.812584552E0
1.593321054E1,8.874744873E0,1.196911011E0,5.060975647E-1,8.969382770E0
1.594321854E1,1.068223618E1,2.977009277E0,5.258564758E-1,1.110176918E1
1.595322654E1,1.239108261E1,4.676425323E0,5.303471375E-1,1.325477839E1
1.596323454E1,1.425276123E1,5.955515442E0,6.595285034E-1,1.546105898E1
1.597324254E1,1.664418823E1,7.155270538E0,8.132588196E-1,1.813527745E1
1.598324954E1,1.882769760E1,8.401429138E0,8.897497559E-1,2.063632388E1
1.599325754E1,2.017579422E1,9.727521515E0,1.120569763E0,2.242639123E1
1.600326554E1,2.118110367E1,1.129491211E1,1.447489929E0,2.404806477E1
1.601327354E1,2.182431610E1,1.297816177E1,1.779649200E0,2.545389180E1
1.602328154E1,2.199615875E1,1.447968933E1,2.093097382E0,2.641729471E1
1.603328954E1,2.228296234E1,1.563603470E1,2.334245911E0,2.732150610E1
1.604329654E1,2.261542099E1,1.645797546E1,2.089205475E0,2.804794114E1
1.605330454E1,2.203118591E1,1.693608124E1,1.775607605E0,2.784522909E1
1.606331254E1,2.092573471E1,1.697994003E1,1.567240906E0,2.699372114E1
1.607332054E1,1.981953506E1,1.668220917E1,1.284179535E0,2.593760185E1
1.608332854E1,1.889550659E1,1.652338943E1,8.807684326E-1,2.511649499E1
1.609333654E1,1.815589462E1,1.646545990E1,6.256988525E-1,2.451814386E1
1.610334454E1,1.738469833E1,1.623987900E1,6.400689697E-1,2.379855236E1
1.611335154E1,1.668325699E1,1.616578308E1,8.346643066E-1,2.324565058E1
1.612335954E1,1.639899811E1,1.612671432E1,1.046473846E0,2.302375211E1
1.613336754E1,1.629212036E1,1.580952393E1,9.333091736E-1,2.272103208E1
1.614337554E1,1.636127655E1,1.517858597E1,7.078779602E-1,2.232894833E1
1.615338354E1,1.657548111E1,1.452369781E1,6.520440674E-1,2.204789182E1
1.616339154E1,1.663460815E1,1.391790756E1,6.327342224E-1,2.169835690E1
1.617339954E1,1.675391006E1,1.310869034E1,6.622229004E-1,2.128308728E1
1.618340654E1,1.706092163E1,1.238165222E1,7.873626709E-1,2.109503019E1
1.619341454E1,1.719743774E1,1.191671906E1,1.152603149E0,2.095443991E1
1.620342254E1,1.709520035E1,1.121827148E1,1.586700439E0,2.050885439E1
1.621343054E1,1.686063812E1,1.034483780E1,2.016756134E0,1.988376454E1
1.622343854E1,1.646890274E1,9.369915161E0,2.290387115E0,1.908575230E1
1.623344654E1,1.579171097E1,8.301736450E0,2.504741364E0,1.801584560E1
1.624345354E1,1.484492981E1,7.164551239E0,2.762056274E0,1.671321903E1
1.625346154E1,1.374127487E1,6.117328949E0,2.997816010E0,1.533725039E1
1.626346954E1,1.270737488E1,5.130730591E0,3.132984924E0,1.405764444E1
1.627347754E1,1.179232773E1,4.195026398E0,3.139720917E0,1.290407250E1
1.628348554E1,1.087129303E1,3.280128937E0,2.928210754E0,1.172683573E1
1.629349354E1,9.790839844E0,2.534679108E0,2.680475922E0,1.046279572E1
1.630350154E1,8.625812531E0,2.015408936E0,2.486778717E0,9.200575166E0
1.631350854E1,7.554789734E0,1.587598572E0,2.237247620E0,8.037449475E0
1.632351654E1,6.641838226E0,1.043629761E0,1.998943176E0,7.014196456E0
1.633352454E1,5.848637695E0,5.267546082E-1,1.802701263E0,6.142781549E0
1.634353254E1,5.062771912E0,1.936972046E-1,1.636846161E0,5.324325628E0
1.635354054E1,4.284091187E0,-8.277786255E-2,1.457818451E0,4.526093692E0
1.636354854E1,3.577560425E0,-3.861968994E-1,1.250050507E0,3.809292967E0
1.637355554E1,2.970722351E0,-6.644682312E-1,1.152902527E0,3.255133416E0
1.638356354E1,2.460433502E0,-9.258247375E-1,1.016236725E0,2.818443106E0
1.639357154E1,1.994003448E0,-1.124311981E0,8.229885864E-1,2.432578343E0
1.640357954E1,1.615590363E0,-1.314716034E0,7.114704895E-1,2.201090804E0
1.641358754E1,1.281036072E0,-1.465302887E0,6.523434448E-1,2.052734259E0
1.642359554E1,8.499325562E-1,-1.586700439E0,5.891748047E-1,1.893972171E0
1.643360354E1,3.058140564E-1,-1.583856354E0,5.366340637E-1,1.700029207E0
1.644361054E1,-1.263372803E-1,-1.510957947E0,5.207670593E-1,1.603169784E0
1.645361854E1,-3.803590393E-1,-1.557511139E0,5.239105225E-1,1.686711648E0
1.646362654E1,-4.569996643E-1,-1.712139587E0,4.830455017E-1,1.836737220E0
1.647363454E1,-4.691244507E-1,-1.813478851E0,4.071533203E-1,1.916913436E0
1.648364254E1,-4.483177185E-1,-1.839075623E0,4.155358887E-1,1.938003611E0
1.649365054E1,-3.706292725E-1,-1.816772003E0,3.510200500E-1,1.887125233E0
1.650365754E1,-2.992277527E-1,-1.760638733E0,2.375559998E-1,1.801615622E0
1.651366554E1,-2.386038208E-1,-1.714983673E0,2.893482971E-1,1.755512238E0
1.652367354E1,-1.543290710E-1,-1.661694489E0,3.279679871E-1,1.700767190E0
1.653368154E1,-7.244934082E-2,-1.591640167E0,3.326083374E-1,1.627634982E0
1.654368954E1,1.049317932E-1,-1.562301178E0,4.008663940E-1,1.616319745E0
1.655369754E1,3.802093506E-1,-1.479822693E0,3.983216858E-1,1.578953615E0
1.656370454E1,6.438111877E-1,-1.201251984E0,4.101470947E-1,1.423277841E0
1.657371254E1,9.698332214E-1,-7.927514648E-1,5.445675659E-1,1.365864267E0
1.658372054E1,1.394799500E0,-3.558100891E-1,6.780899048E-1,1.591185842E0
1.659372854E1,1.986069946E0,3.861968994E-2,7.792794800E-1,2.133832660E0
1.660373654E1,2.973267059E0,3.475772095E-1,9.101074219E-1,3.128805274E0
1.661374454E1,4.193379822E0,7.765850830E-1,1.100960541E0,4.404501428E0
1.662375254E1,5.749244385E0,1.502276001E0,1.273252258E0,6.077155214E0
1.663375954E1,7.557484131E0,2.381547546E0,1.298100586E0,8.029470732E0
1.664376754E1,9.404642944E0,3.220552826E0,1.244961090E0,1.001844287E1
1.665377554E1,1.135912857E1,4.280199280E0,1.320703583E0,1.221041218E1
1.666378354E1,1.316048264E1,5.842051392E0,1.758543091E0,1.450587265E1
1.667379154E1,1.462623459E1,7.233408051E0,2.060016174E0,1.644665914E1
1.668379954E1,1.552212158E1,8.072712708E0,2.237397308E0,1.763833596E1
1.669380654E1,1.622371262E1,8.846304016E0,2.329755249E0,1.862508269E1
1.670381454E1,1.710433136E1,9.999805298E0,2.517764282E0,1.997231570E1
1.671382254E1,1.835019058E1,1.146974854E1,2.858755188E0,2.182789745E1
1.672383054E1,1.960173798E1,1.329909439E1,2.898572388E0,2.386411040E1
1.673383854E1,2.085418350E1,1.505120087E1,2.513722687E0,2.584094462E1
1.674384654E1,2.204181381E1,1.622386230E1,1.782044220E0,2.742682894E1
1.675385454E1,2.254237289E1,1.694506256E1,1.093625793E0,2.822214978E1
1.676386154E1,2.207444595E1,1.748184631E1,1.128203888E0,2.818100351E1
1.677386954E1,2.080149307E1,1.768916519E1,1.605411530E0,2.735298933E1
1.678387754E1,1.934741684E1,1.717603226E1,1.718725891E0,2.592860662E1
