"Time (s)","Acceleration x (m/s^2)","Acceleration y (m/s^2)","Acceleration z (m/s^2)","Absolute acceleration (m/s^2)"
1.342666666E-3,1.198003738E1,-3.363804932E0,-2.108365631E0,1.262068481E1
1.135166667E-2,1.288505539E1,-3.280278625E0,-3.358416138E0,1.371363698E1
2.135966667E-2,1.351808899E1,-3.307671661E0,-4.555027771E0,1.464335002E1
3.136766667E-2,1.387060593E1,-3.605552216E0,-5.592071228E0,1.538391940E1
4.137666667E-2,1.383168686E1,-4.372257843E0,-6.292464752E0,1.581225198E1
5.138466667E-2,1.357781479E1,-5.654341736E0,-6.519991608E0,1.608847182E1
6.139266667E-2,1.257579849E1,-6.964866486E0,-5.337301025E0,1.533449885E1
7.140166667E-2,1.157063873E1,-8.147108002E0,-3.612886963E0,1.460506767E1
8.140966667E-2,1.117246674E1,-9.223519592E0,-2.421514435E0,1.468880726E1
9.141766667E-2,1.070918015E1,-9.935439148E0,-1.664837952E0,1.470276082E1
1.014266667E-1,9.975555725E0,-1.004396347E1,-6.213578796E-1,1.416965066E1
1.114346667E-1,9.207203522E0,-9.706116028E0,5.243595886E-1,1.338866080E1
1.214426667E-1,8.555458832E0,-9.385333099E0,1.141376495E0,1.275080756E1
1.314516667E-1,7.992928619E0,-9.531878357E0,1.115330658E0,1.248949860E1
1.414596667E-1,7.729775848E0,-9.963730316E0,8.006849670E-1,1.263591916E1
1.514676667E-1,7.537874908E0,-9.829010468E0,2.908451843E-1,1.239006036E1
1.614766667E-1,7.079078979E0,-8.777297516E0,1.811233521E-2,1.127628658E1
1.714846667E-1,6.356082458E0,-7.860005035E0,3.330574036E-1,1.011387120E1
1.814926667E-1,5.589227142E0,-7.080875244E0,6.812333679E-1,9.046675255E0
1.915016667E-1,5.129233704E0,-6.360573120E0,8.927435303E-1,8.219666649E0
2.015096667E-1,5.002896423E0,-5.740113373E0,1.006357269E0,7.680535731E0
2.115176667E-1,5.036726074E0,-5.317991180E0,1.024020538E0,7.395827053E0
2.215266667E-1,5.133574677E0,-5.190606079E0,9.925859070E-1,7.367578110E0
2.315346667E-1,5.083728333E0,-5.207071838E0,8.875044250E-1,7.331135996E0
2.415426667E-1,5.090015259E0,-5.060227203E0,8.812174988E-1,7.231230806E0
2.515516667E-1,5.133574677E0,-4.947511597E0,9.897418213E-1,7.197989221E0
2.615596667E-1,5.104984131E0,-5.065466309E0,1.129102020E0,7.279744726E0
2.715676667E-1,5.210814056E0,-5.293741608E0,1.280587006E0,7.537651253E0
2.815766667E-1,5.328020325E0,-5.667214966E0,1.337768097E0,7.892702296E0
2.915846667E-1,5.474864960E0,-5.973927155E0,1.358275452E0,8.216256092E0
3.015926667E-1,5.611530762E0,-6.330485687E0,1.337618408E0,8.564668676E0
3.116016667E-1,5.720204773E0,-6.658603363E0,1.288221130E0,8.872274515E0
3.216096667E-1,5.804329834E0,-6.938970337E0,1.276545410E0,9.136143735E0
3.316176667E-1,5.866300964E0,-7.185657349E0,1.306034088E0,9.367650910E0
3.416266667E-1,5.972579956E0,-7.385042725E0,1.286873932E0,9.584707189E0
3.516346667E-1,6.104605408E0,-7.560777283E0,1.251846771E0,9.797891643E0
3.616426667E-1,6.202352142E0,-7.779322815E0,1.191522217E0,1.002031740E1
3.716516667E-1,6.295308838E0,-7.777227173E0,1.201102295E0,1.007763973E1
3.816596667E-1,6.378685455E0,-7.606881409E0,1.243314514E0,1.000490399E1
3.916676667E-1,6.465205536E0,-7.424410858E0,1.295256500E0,9.929675151E0
4.016766667E-1,6.528673553E0,-7.274722137E0,1.356479187E0,9.868393807E0
4.116846667E-1,6.664441223E0,-7.102729797E0,1.368304596E0,9.835436180E0
4.216926667E-1,6.753655701E0,-6.954088898E0,1.270408173E0,9.776766063E0
4.317016667E-1,6.780150604E0,-6.786736908E0,1.043629761E0,9.649839540E0
4.417096667E-1,6.750212860E0,-6.627617798E0,7.731422424E-1,9.491493047E0
4.517176667E-1,6.672674103E0,-6.553372192E0,5.508544922E-1,9.368815691E0
4.617266667E-1,6.663243713E0,-6.462660828E0,4.496649170E-1,9.293384760E0
4.717346667E-1,6.674170990E0,-6.372548218E0,3.938310242E-1,9.236288869E0
4.817426667E-1,6.632108459E0,-6.338868256E0,4.101470947E-1,9.183372693E0
4.917516667E-1,6.579118652E0,-6.285130005E0,4.728666687E-1,9.111051767E0
5.017596667E-1,6.573729858E0,-6.274651794E0,5.101391602E-1,9.101946020E0
5.117676667E-1,6.522536316E0,-6.345753937E0,5.201683044E-1,9.114968353E0
5.217766667E-1,6.390361176E0,-6.401587830E0,5.219645691E-1,9.060325033E0
5.317846667E-1,6.343059540E0,-6.420747986E0,5.381309509E-1,9.041570325E0
5.417926667E-1,6.320007477E0,-6.396199036E0,5.275030518E-1,9.007336792E0
5.518016667E-1,6.215075684E0,-6.393504639E0,4.457730103E-1,8.927641396E0
5.618096667E-1,6.082900543E0,-6.420149231E0,3.149450684E-1,8.849812742E0
5.718176667E-1,6.048172760E0,-6.411766663E0,2.142045593E-1,8.816860499E0
5.818266667E-1,6.130800934E0,-6.480473785E0,1.477427673E-1,8.922168374E0
5.918346667E-1,6.275699615E0,-6.608607330E0,1.630110168E-1,9.115079215E0
6.018426667E-1,6.532715149E0,-6.755002899E0,2.409988403E-1,9.400239988E0
6.118516667E-1,6.963818665E0,-7.030430145E0,2.939886475E-1,9.899906451E0
6.218596667E-1,7.461383972E0,-7.348818054E0,3.200344849E-1,1.047758558E1
6.318676667E-1,7.904013519E0,-7.601043549E0,3.537144470E-1,1.097152709E1
6.418756667E-1,8.266409912E0,-7.740254059E0,3.858975220E-1,1.133110686E1
6.518846667E-1,8.535699921E0,-7.803871765E0,3.740721130E-1,1.157145270E1
6.618926667E-1,8.803193665E0,-7.857460327E0,3.418890381E-1,1.180477825E1
6.719006667E-1,9.197174377E0,-8.020920410E0,3.333567810E-1,1.220796082E1
6.819096667E-1,9.766440582E0,-8.336314545E0,3.529660034E-1,1.284531381E1
6.919176667E-1,1.046413971E1,-8.787027283E0,3.498225403E-1,1.366866651E1
7.019256667E-1,1.117321518E1,-9.305848389E0,3.447331238E-1,1.454504701E1
7.119346667E-1,1.175385773E1,-9.849667511E0,4.266128540E-1,1.534115772E1
7.219426667E-1,1.207104813E1,-1.010413834E1,5.414241028E-1,1.575109375E1
7.319506667E-1,1.177137131E1,-9.711654510E0,5.203179932E-1,1.526932044E1
7.419596667E-1,1.068537964E1,-8.586294708E0,2.692900085E-1,1.371037242E1
7.519676667E-1,9.436826019E0,-7.354057159E0,-1.242416382E-2,1.196394569E1
7.619756667E-1,8.469836884E0,-6.564898224E0,-2.125579834E-1,1.071826508E1
7.719846667E-1,7.829169159E0,-6.258635101E0,-3.561094666E-1,1.002961699E1
7.819926667E-1,7.450456696E0,-6.218069458E0,-4.233197021E-1,9.713541698E0
7.920006667E-1,7.026987305E0,-6.203699341E0,-3.248245239E-1,9.379229556E0
8.020096667E-1,6.517596588E0,-6.270011444E0,-1.466949463E-1,9.045088623E0
8.120176667E-1,6.041586456E0,-6.204447784E0,-2.200424194E-2,8.660047541E0
8.220256667E-1,5.654940491E0,-6.138884125E0,1.525328064E-1,8.347904917E0
8.320346667E-1,5.421426086E0,-6.126310272E0,2.395019531E-1,8.184185943E0
8.420426667E-1,5.340294800E0,-6.337521057E0,2.607577515E-1,8.291617231E0
8.520506667E-1,5.376818848E0,-6.749165039E0,2.336640930E-1,8.632265552E0
8.620596667E-1,5.408403168E0,-7.249724121E0,2.191442871E-1,9.047505119E0
8.720676667E-1,5.367089081E0,-7.804620209E0,2.776725769E-1,9.476014134E0
8.820756667E-1,5.291645966E0,-8.267008667E0,3.457809448E-1,9.821634985E0
8.920846667E-1,5.084476776E0,-8.575816498E0,4.450245667E-1,9.979708390E0
9.020926667E-1,4.798721008E0,-8.703351288E0,5.300477600E-1,9.952738195E0
9.121006667E-1,4.608616333E0,-8.729397125E0,5.674699402E-1,9.887554845E0
9.221096667E-1,4.463268585E0,-8.764873352E0,6.843768311E-1,9.859621848E0
9.321176667E-1,4.217180328E0,-8.831185455E0,8.035290527E-1,9.819373982E0
9.421256667E-1,4.020339661E0,-8.787476349E0,8.470884705E-1,9.700537637E0
9.521350417E-1,3.917204132E0,-8.510552216E0,8.054750061E-1,9.403338621E0
9.621430417E-1,4.054019623E0,-8.151748352E0,6.224057007E-1,9.125429587E0
9.721510417E-1,4.226161652E0,-7.616760864E0,3.447331238E-1,8.717472644E0
9.821590417E-1,4.273762665E0,-7.073690186E0,7.634124756E-3,8.264514410E0
9.921680417E-1,4.228556671E0,-6.713389435E0,-3.712280273E-1,7.942801739E0
1.002176042E0,4.234244843E0,-6.473887482E0,-6.918612671E-1,7.766512765E0
1.012184042E0,4.289330292E0,-6.328390045E0,-8.867559814E-1,7.696311525E0
1.022193042E0,4.237537994E0,-6.283184052E0,-1.055604858E0,7.651760039E0
1.032201042E0,4.218228149E0,-6.121071167E0,-1.070873108E0,7.510507983E0
1.042209042E0,4.369413757E0,-6.049070892E0,-1.210233307E0,7.559609772E0
1.052218042E0,4.630021820E0,-5.996679840E0,-1.725312195E0,7.770069068E0
1.062226042E0,4.798421631E0,-5.773493958E0,-1.632505188E0,7.682652915E0
1.072234042E0,5.038821716E0,-5.761668549E0,-1.269060974E0,7.758676724E0
1.082243042E0,5.232219543E0,-5.735323334E0,-7.038363647E-1,7.795219094E0
1.092251042E0,5.521418152E0,-5.711073761E0,9.909393311E-2,7.944321338E0
1.102259042E0,5.820047150E0,-5.667963409E0,6.963519287E-1,8.153751532E0
1.112268042E0,6.089037781E0,-5.707630920E0,8.960366821E-1,8.393825919E0
1.122276042E0,6.486311646E0,-5.785618744E0,8.714877319E-1,8.735279840E0
1.132284042E0,6.891069946E0,-5.876479797E0,7.812254333E-1,9.090114025E0
1.142293042E0,7.300318909E0,-5.962700500E0,7.128176880E-1,9.452860016E0
1.152301042E0,7.667355652E0,-6.035000153E0,5.770500183E-1,9.774587268E0
1.162309042E0,7.908055115E0,-6.107898560E0,4.337979126E-1,1.000159693E1
1.172318042E0,8.157436523E0,-6.184688873E0,3.423381042E-1,1.024262381E1
1.182326042E0,8.568032684E0,-6.113287354E0,3.116519165E-1,1.052998544E1
1.192334042E0,8.951684875E0,-6.123466187E0,1.499880981E-1,1.084675051E1
1.202343042E0,9.263486481E0,-6.114335175E0,-4.011657715E-2,1.109949935E1
1.212351042E0,9.685908051E0,-5.964047699E0,-3.999682617E-1,1.138185637E1
1.222359042E0,1.017913239E1,-5.332510986E0,-8.605604553E-1,1.152349660E1
1.232367042E0,1.056772430E1,-4.457580414E0,-1.040486298E0,1.151648522E1
1.242376042E0,1.101544327E1,-3.820205841E0,-1.078656921E0,1.170886262E1
1.252384042E0,1.169577850E1,-3.662733307E0,-1.362616425E0,1.233140599E1
1.262392042E0,1.257744507E1,-3.911066895E0,-1.948348389E0,1.331482745E1
1.272401042E0,1.336346054E1,-4.688699799E0,-2.390079803E0,1.436239760E1
1.282409042E0,1.406355469E1,-5.993536377E0,-3.091371460E0,1.559687873E1
1.292417042E0,1.412687302E1,-7.551945648E0,-3.888763275E0,1.648401966E1
1.302426042E0,1.322694443E1,-8.674161987E0,-4.003125458E0,1.631619314E1
1.312434042E0,1.202838684E1,-8.913663940E0,-3.127446442E0,1.529432627E1
1.322442042E0,1.099179245E1,-8.651708679E0,-1.991309052E0,1.412929142E1
1.332451042E0,1.011970596E1,-8.322692871E0,-1.318308563E0,1.316865987E1
1.342459042E0,9.368567963E0,-8.124055939E0,-9.821076965E-1,1.243924781E1
1.352467042E0,8.671916656E0,-8.022716675E0,-7.759863281E-1,1.183926839E1
1.362476042E0,8.015531616E0,-7.880362701E0,-5.278024292E-1,1.125288580E1
1.372484042E0,7.374115448E0,-7.630232849E0,-1.204994202E-1,1.061190615E1
1.382492042E0,6.813531189E0,-7.275470581E0,4.354444885E-1,9.977288777E0
1.392501042E0,6.218069458E0,-7.019652557E0,8.770262146E-1,9.418550037E0
1.402509042E0,5.531596985E0,-6.847959595E0,1.134939880E0,8.875877666E0
1.412517042E0,4.931794281E0,-6.741231537E0,1.379082184E0,8.465734766E0
1.422526042E0,4.561015320E0,-6.762187958E0,1.464404755E0,8.287009594E0
1.432534042E0,4.222120056E0,-6.753955078E0,1.430575104E0,8.092512100E0
1.442542042E0,3.960314484E0,-6.975943451E0,1.465751953E0,8.154526757E0
1.452551042E0,3.861519928E0,-7.281158752E0,1.547631683E0,8.385807818E0
1.462559042E0,3.909270630E0,-7.503446503E0,1.739083557E0,8.637622236E0
1.472567042E0,4.233496399E0,-7.495363312E0,1.998045044E0,8.837145859E0
1.482575042E0,4.630321198E0,-7.519612885E0,2.130369873E0,9.084213126E0
1.492584042E0,4.939428406E0,-7.473508759E0,2.025288391E0,9.184393241E0
1.502592042E0,5.169350281E0,-7.445516968E0,1.838177490E0,9.248610800E0
1.512600042E0,5.347779236E0,-7.422015839E0,1.655407562E0,9.296528172E0
1.522609042E0,5.606441345E0,-7.344327393E0,1.542542267E0,9.367537886E0
1.532617042E0,5.792354736E0,-7.227570190E0,1.417252808E0,9.370045345E0
1.542625042E0,5.804928589E0,-7.130721588E0,1.331930237E0,9.290770928E0
1.552634042E0,5.976172485E0,-7.026238861E0,1.359922028E0,9.323736270E0
1.562642042E0,6.129154358E0,-6.928043060E0,1.375190277E0,9.351762512E0
1.572650042E0,6.297105103E0,-6.919810181E0,1.268013153E0,9.441671619E0
1.582659042E0,6.346352692E0,-6.828949127E0,1.127904510E0,9.390575448E0
1.592667042E0,6.406976624E0,-6.553222504E0,1.122964783E0,9.233370162E0
1.602675042E0,6.511908417E0,-6.510561218E0,1.094823303E0,9.273133056E0
1.612684042E0,6.731501770E0,-6.608457642E0,9.319619751E-1,9.479102363E0
1.622692042E0,6.836433563E0,-6.641538849E0,8.922944641E-1,9.573037739E0
1.632700042E0,6.831793213E0,-6.557563477E0,8.412506104E-1,9.506983741E0
1.642709042E0,6.799759827E0,-6.336473236E0,7.584727478E-1,9.325390484E0
1.652717042E0,6.726262665E0,-6.381679230E0,5.620811462E-1,9.288938284E0
1.662725042E0,6.668482819E0,-6.401138763E0,4.406835938E-1,9.254050065E0
1.672733042E0,6.644532623E0,-6.354735260E0,3.405418396E-1,9.200458834E0
1.682742042E0,6.456972656E0,-6.231541443E0,3.168910217E-1,8.979143866E0
1.692750042E0,6.267766113E0,-6.049519958E0,3.249742126E-1,8.717063268E0
1.702758042E0,6.170767822E0,-6.033353577E0,2.983296204E-1,8.635318839E0
1.712767042E0,6.084996185E0,-6.120322723E0,3.311114502E-1,8.636849171E0
1.722775042E0,6.044430542E0,-6.158942413E0,2.975811768E-1,8.634597083E0
1.732783042E0,6.017935638E0,-6.196963348E0,1.996847534E-1,8.640473256E0
1.742792042E0,5.984405365E0,-6.295458527E0,1.383123779E-1,8.687061410E0
1.752800042E0,5.989644470E0,-6.486161957E0,1.437011719E-1,8.829880398E0
1.762808042E0,6.003415833E0,-6.739734650E0,2.270777893E-1,9.028653783E0
1.772817042E0,6.055507507E0,-6.926097107E0,3.177891541E-1,9.205486530E0
1.782825042E0,6.330785065E0,-7.019802246E0,2.941383362E-1,9.457429908E0
1.792833042E0,6.751709747E0,-7.121590576E0,2.860551453E-1,9.817558983E0
1.802842042E0,7.182962952E0,-7.328011322E0,2.335144043E-1,1.026397758E1
1.812850042E0,7.558831329E0,-7.493866425E0,1.495390320E-1,1.064501418E1
1.822858042E0,7.896379395E0,-7.573500824E0,1.029858398E-1,1.094172419E1
1.832867042E0,8.120762787E0,-7.597600708E0,6.286926270E-2,1.112089373E1
1.842875042E0,8.308771820E0,-7.608527985E0,3.742218018E-2,1.126617893E1
1.852883042E0,8.516090698E0,-7.716004486E0,-2.844085693E-3,1.149175940E1
1.862892042E0,8.850944366E0,-7.979306946E0,8.831634521E-3,1.191673754E1
1.872900042E0,9.403744812E0,-8.356073456E0,2.170486450E-2,1.257993844E1
1.882908042E0,1.010129425E1,-8.898844757E0,7.050338745E-2,1.346218980E1
1.892917042E0,1.083357147E1,-9.455836487E0,1.760339355E-1,1.438089366E1
1.902925042E0,1.142753632E1,-9.873168640E0,3.746708679E-1,1.510656889E1
1.912933042E0,1.165596130E1,-9.939480743E0,6.795867920E-1,1.533351067E1
1.922941042E0,1.129371460E1,-9.426198120E0,7.610174561E-1,1.473025282E1
1.932950042E0,1.035726196E1,-8.458161163E0,4.195774841E-1,1.337869242E1
1.942958042E0,9.375004578E0,-7.453749847E0,-5.987548828E-4,1.197702375E1
1.952965583E0,8.620274048E0,-6.884333954E0,-3.591032410E-1,1.103775945E1
1.962974583E0,8.025860138E0,-6.603667603E0,-5.135820007E-1,1.040608587E1
1.972982583E0,7.687563629E0,-6.559509430E0,-4.528083801E-1,1.011587040E1
1.982990583E0,7.349865875E0,-6.573131104E0,-3.832031250E-1,9.867797400E0
1.992999583E0,6.886130219E0,-6.560557251E0,-3.335064697E-1,9.516875926E0
2.003007583E0,6.546785889E0,-6.639592896E0,-3.580554199E-1,9.331280886E0
2.013015583E0,6.192322998E0,-6.794520721E0,-2.788700867E-1,9.197181333E0
2.023024583E0,5.857918396E0,-6.970255280E0,-8.412506104E-2,9.105314032E0
2.033032583E0,5.539829865E0,-7.175179138E0,1.261875916E-1,9.065805750E0
2.043040583E0,5.289849701E0,-7.372917938E0,3.788621521E-1,9.082178445E0
2.053049583E0,5.114414520E0,-7.625742188E0,6.298901367E-1,9.203583073E0
2.063057583E0,5.077591095E0,-7.951315155E0,7.673043823E-1,9.465415999E0
2.073065583E0,5.069956970E0,-8.246651001E0,7.285350037E-1,9.707856595E0
2.083074583E0,5.044060822E0,-8.576115875E0,5.960604858E-1,9.967326682E0
2.093082583E0,4.980443115E0,-9.209598541E0,5.298980713E-1,1.048343030E1
2.103090583E0,4.656965790E0,-9.548493805E0,6.048921204E-1,1.064081570E1
2.113098583E0,4.164938965E0,-9.444460144E0,5.538482666E-1,1.033688986E1
2.123107583E0,3.792363739E0,-9.199419708E0,3.802093506E-1,9.957705802E0
2.133115583E0,3.600163422E0,-8.934919739E0,3.198847961E-1,9.638272339E0
2.143123583E0,3.629652100E0,-8.564440155E0,3.091072083E-1,9.306962813E0
2.153132583E0,3.736529846E0,-8.171806641E0,2.624043274E-1,8.989379016E0
2.163140583E0,3.799249420E0,-7.828570404E0,-9.864486694E-2,8.702329662E0
2.173148583E0,3.889811096E0,-7.270081787E0,-7.632627869E-1,8.280536796E0
2.183157583E0,3.999532928E0,-6.784042511E0,-1.340163116E0,7.988462531E0
2.193165583E0,4.174968109E0,-6.637946320E0,-1.590592346E0,8.001417004E0
2.203173583E0,4.257596283E0,-6.395749969E0,-1.245410156E0,7.783558970E0
2.213182583E0,4.431833954E0,-6.612199860E0,-1.438209229E0,8.088929779E0
2.223190583E0,4.568050690E0,-6.604416046E0,-1.784289551E0,8.226122271E0
2.233198583E0,4.738396454E0,-6.555018768E0,-2.058818665E0,8.346221079E0
2.243207583E0,4.893473969E0,-6.324049072E0,-2.264490967E0,8.310692118E0
2.253215583E0,4.875361633E0,-5.939498749E0,-2.228415985E0,8.000789601E0
2.263223583E0,4.968318329E0,-5.588179321E0,-2.073637848E0,7.759633308E0
2.273231583E0,5.209317169E0,-5.267695770E0,-1.858535156E0,7.638046676E0
2.283240583E0,5.456752625E0,-5.134622498E0,-1.543440399E0,7.650013442E0
2.293248583E0,5.701643372E0,-5.321583710E0,-1.071322174E0,7.872466038E0
2.303256583E0,6.008205872E0,-5.638624420E0,-3.957769775E-1,8.249197692E0
2.313265583E0,6.335126038E0,-5.766159210E0,3.115022278E-1,8.572015375E0
2.323273583E0,6.688990173E0,-5.735173645E0,6.411167908E-1,8.834355495E0
2.333281583E0,6.919211426E0,-5.778134308E0,6.532415771E-1,9.038199345E0
2.343290583E0,7.117548981E0,-5.968688049E0,4.285588074E-1,9.298838808E0
2.353298583E0,7.487130432E0,-6.070626068E0,3.411405945E-1,9.644998697E0
2.363306583E0,7.791896667E0,-6.183042297E0,3.245251465E-1,9.952335520E0
2.373315583E0,8.006699982E0,-6.240822144E0,2.787203979E-1,1.015543159E1
2.383323583E0,8.148455200E0,-6.160588989E0,2.456391907E-1,1.021814648E1
2.393331583E0,8.365204468E0,-6.070775757E0,3.457809448E-1,1.034168886E1
2.403340583E0,8.627309418E0,-5.918242950E0,4.510121155E-1,1.047184221E1
2.413348583E0,8.848998413E0,-5.663173370E0,4.776567078E-1,1.051686557E1
2.423356583E0,9.078321533E0,-5.465584259E0,6.221063232E-1,1.061487397E1
2.433365583E0,9.289831696E0,-5.225633240E0,7.165599060E-1,1.068277463E1
2.443373583E0,9.467362518E0,-4.823569336E0,5.273533630E-1,1.063841510E1
2.453381583E0,9.749675446E0,-4.250710602E0,2.667453003E-1,1.063935454E1
2.463389583E0,1.001821701E1,-3.838467865E0,-1.496887207E-4,1.072839725E1
2.473398583E0,1.034139496E1,-3.820205841E0,-3.342549133E-1,1.102951262E1
2.483406583E0,1.078552139E1,-4.125570831E0,-8.291258240E-1,1.157735963E1
2.493414583E0,1.139161102E1,-4.841831360E0,-1.605261841E0,1.248154631E1
2.503423583E0,1.217927307E1,-5.858367462E0,-2.383343811E0,1.372353779E1
2.513431583E0,1.296454010E1,-7.135811005E0,-2.678529968E0,1.503906983E1
2.523439583E0,1.308653641E1,-8.679550781E0,-2.662064209E0,1.592729176E1
2.533448583E0,1.245470032E1,-9.905351715E0,-2.679278412E0,1.613735063E1
2.543456583E0,1.144475052E1,-1.036684204E1,-2.608924713E0,1.566078595E1
2.553464583E0,9.881700897E0,-1.007195526E1,-2.336042175E0,1.430207637E1
2.563473583E0,8.428522797E0,-9.443711700E0,-2.113904114E0,1.283324892E1
2.573481583E0,7.287295990E0,-9.018595734E0,-1.833836517E0,1.173893983E1
2.583489583E0,6.171965332E0,-8.976084137E0,-1.495240631E0,1.099540754E1
2.593498583E0,5.170547791E0,-8.937015381E0,-1.079704742E0,1.038126055E1
2.603506583E0,4.501289520E0,-8.812474365E0,-4.071533203E-1,9.903892447E0
2.613514583E0,4.097129974E0,-8.330027618E0,1.160087585E-1,9.283818836E0
2.623523583E0,3.823349304E0,-8.716374207E0,5.649252319E-1,9.534795212E0
2.633531583E0,4.054618378E0,-9.014105072E0,9.366023254E-1,9.928305211E0
2.643539583E0,4.150419159E0,-8.987909546E0,1.195713501E0,9.971871839E0
2.653547583E0,4.205354919E0,-9.122180328E0,1.522933044E0,1.015965103E1
2.663556583E0,4.555027771E0,-8.968899078E0,1.772464142E0,1.021425757E1
2.673564583E0,4.728666687E0,-8.722810822E0,1.811981964E0,1.008617846E1
2.683572583E0,5.146447906E0,-8.227041779E0,1.740879822E0,9.859046862E0
2.693581583E0,5.771847382E0,-7.814200287E0,1.692230988E0,9.861013844E0
2.703589583E0,6.202801208E0,-7.478298798E0,1.450483704E0,9.823624520E0
2.713597583E0,6.548881531E0,-7.150779877E0,1.133442993E0,9.762489189E0
2.723606583E0,6.660549316E0,-6.908733215E0,9.770182800E-1,9.646143092E0
2.733614583E0,6.774612122E0,-6.660699005E0,9.499246216E-1,9.547912726E0
2.743622583E0,7.015161896E0,-6.360722809E0,1.028660889E0,9.525199961E0
2.753631583E0,6.945257263E0,-6.380781097E0,1.011147308E0,9.485430130E0
2.763639583E0,6.832242279E0,-6.274801483E0,8.421487427E-1,9.314605881E0
2.773647583E0,6.753655701E0,-6.259233856E0,7.008425903E-1,9.234774178E0
2.783656583E0,6.576723633E0,-6.342311096E0,5.881269836E-1,9.155550073E0
2.793664583E0,6.386469269E0,-6.429280243E0,4.107458496E-1,9.071457783E0
2.803672583E0,6.238876190E0,-6.553970947E0,4.143383789E-1,9.058133781E0
2.813680583E0,6.071973267E0,-6.544989624E0,3.923341370E-1,8.936424039E0
2.823689583E0,5.943091278E0,-6.519392853E0,3.326083374E-1,8.827992151E0
2.833697583E0,5.652096405E0,-6.614894257E0,2.969824219E-1,8.705815203E0
2.843705583E0,5.332810364E0,-6.746620331E0,1.895059204E-1,8.601840777E0
2.853714583E0,5.080734558E0,-6.761140137E0,1.336720276E-1,8.458412842E0
2.863722583E0,5.022655334E0,-6.633904724E0,8.906478882E-2,8.321279411E0
2.873730583E0,4.912035370E0,-6.643185425E0,1.149609375E-1,8.262761045E0
2.883739583E0,4.814737701E0,-6.639892273E0,1.938468933E-1,8.204111478E0
2.893747583E0,4.619992676E0,-6.721472626E0,1.664538574E-1,8.157832645E0
2.903755583E0,4.405638428E0,-6.758894806E0,1.029858398E-1,8.068637744E0
2.913764583E0,4.315675507E0,-6.745273132E0,8.187973022E-2,8.008150161E0
2.923772583E0,4.271367645E0,-6.862329712E0,-6.047424316E-2,8.083304261E0
2.933780583E0,4.402195587E0,-6.714287567E0,-1.757345581E-1,8.030682795E0
2.943789583E0,4.659211121E0,-6.558760986E0,-3.288661194E-1,8.051940565E0
2.953798042E0,5.113217010E0,-6.530170441E0,-5.212161255E-1,8.310221443E0
2.963806042E0,5.668262787E0,-6.405030670E0,-7.387138367E-1,8.584830752E0
2.973815042E0,6.379583588E0,-6.223757629E0,-8.041278076E-1,8.948791388E0
2.983823042E0,7.133715363E0,-6.180946655E0,-8.009843445E-1,9.472886168E0
2.993831042E0,7.820786591E0,-6.165079651E0,-7.087760925E-1,9.983750475E0
3.003839042E0,8.341104584E0,-6.243965607E0,-5.173242188E-1,1.043210221E1
3.013848042E0,8.705746307E0,-6.405030670E0,-2.853067017E-1,1.081183780E1
3.023856042E0,8.948391724E0,-6.560856628E0,-7.095245361E-2,1.109610690E1
3.033864042E0,9.049880676E0,-6.689888306E0,4.580474854E-2,1.125420117E1
3.043873042E0,9.036558380E0,-6.773564301E0,8.711883545E-2,1.129372172E1
3.053881042E0,9.012907562E0,-6.913672943E0,1.143621826E-1,1.135977355E1
3.063889042E0,8.998238068E0,-6.970704346E0,1.017883301E-1,1.138285414E1
3.073898042E0,9.001980286E0,-7.022197266E0,4.775070190E-2,1.141705670E1
3.083906042E0,8.995393982E0,-7.129673767E0,1.496887207E-3,1.147821254E1
3.093914042E0,9.022487640E0,-7.169041901E0,-1.871109009E-2,1.152392273E1
3.103923042E0,9.184600525E0,-7.158713379E0,-7.409591675E-2,1.164515153E1
3.113931042E0,9.590855713E0,-7.147935791E0,-2.152523804E-1,1.196343734E1
3.123939042E0,1.012554382E1,-7.778873749E0,-2.481838989E-1,1.277102618E1
3.133948042E0,1.074600357E1,-8.461903381E0,-3.311114502E-1,1.368174098E1
3.143956042E0,1.125554398E1,-8.965156860E0,-3.573069763E-1,1.439406044E1
3.153964042E0,1.157423126E1,-9.248517609E0,-1.213975525E-1,1.481595912E1
3.163972042E0,1.152797745E1,-9.333241425E0,1.561253357E-1,1.483334199E1
3.173981042E0,1.095751373E1,-9.051976318E0,2.751278687E-1,1.421552243E1
3.183989042E0,1.011102402E1,-8.594228210E0,2.168989563E-1,1.327179756E1
3.193997042E0,9.383836212E0,-8.356522522E0,2.315684509E-1,1.256747686E1
3.204006042E0,8.656199341E0,-8.178991699E0,1.068777466E-1,1.190953883E1
3.214014042E0,7.891888733E0,-7.893385620E0,4.101470947E-2,1.116194994E1
3.224022042E0,7.085665283E0,-7.547005920E0,2.574645996E-2,1.035203428E1
3.234031042E0,6.290369110E0,-7.306007080E0,3.652404785E-2,9.640944819E0
3.244039042E0,5.650898895E0,-7.178771667E0,7.125183105E-2,9.136328464E0
3.254047042E0,5.147196350E0,-7.163653107E0,1.300794983E-1,8.822044932E0
3.264056042E0,4.745581512E0,-7.301366730E0,1.746867371E-1,8.709822930E0
3.274064042E0,4.507127380E0,-7.583829346E0,2.534230042E-1,8.825694759E0
3.284072042E0,4.283791809E0,-7.872578888E0,3.061134338E-1,8.967835639E0
3.294081042E0,4.070186005E0,-8.217611389E0,3.546125793E-1,9.177216416E0
3.304089042E0,3.780538330E0,-8.581804047E0,4.812492371E-1,9.389964408E0
3.314097042E0,3.442241821E0,-8.937614136E0,5.608836365E-1,9.593985910E0
3.324106042E0,3.130290527E0,-9.166937256E0,5.608836365E-1,9.702888636E0
3.334114042E0,2.880010986E0,-9.245074768E0,4.727169800E-1,9.694809544E0
3.344122042E0,2.661764832E0,-8.090974731E0,5.201683044E-1,8.533430681E0
3.354130042E0,2.334395599E0,-8.211324463E0,8.029302979E-1,8.574377488E0
3.364139042E0,2.571951599E0,-9.708511047E0,4.010160828E-1,1.005141461E1
3.374147042E0,3.075803833E0,-1.003423370E1,-8.737330627E-1,1.053137335E1
3.384155042E0,3.263812866E0,-9.156608734E0,-1.601819000E0,9.851993811E0
3.394164042E0,3.208428040E0,-8.743767242E0,-2.028282166E0,9.532124874E0
3.404172042E0,3.286116486E0,-8.302185516E0,-2.545606384E0,9.284662502E0
3.414180042E0,3.698359222E0,-7.335645447E0,-3.166066132E0,8.804176839E0
3.424189042E0,3.971990204E0,-6.973398743E0,-3.171903992E0,8.629366787E0
3.434197042E0,4.346810760E0,-7.219187622E0,-3.219654694E0,9.020953944E0
3.444205042E0,4.650229797E0,-7.381899261E0,-3.003354492E0,9.226982827E0
3.454214042E0,4.856351166E0,-7.545958099E0,-2.585273895E0,9.338590439E0
3.464222042E0,4.913981323E0,-7.580236816E0,-2.231858826E0,9.305288628E0
3.474230042E0,4.804109802E0,-7.534432068E0,-1.770817566E0,9.109496826E0
3.484239042E0,5.121599579E0,-7.137307892E0,-1.465003510E0,8.906075537E0
3.494247042E0,7.206613770E0,-4.864733734E0,-1.084794159E0,8.762288211E0
3.504255042E0,8.086035004E0,-3.103496246E0,-3.234773254E-1,8.667196122E0
3.514263042E0,6.064937897E0,-5.493126984E0,1.030756531E0,8.247446561E0
3.524272042E0,6.075416107E0,-6.449488220E0,1.930086365E0,9.068175812E0
3.534280042E0,6.584956512E0,-6.905440063E0,1.789378967E0,9.708173455E0
3.544288042E0,6.817722473E0,-6.510261841E0,1.264869690E0,9.511295616E0
3.554297042E0,7.092251587E0,-5.466033325E0,7.149133301E-1,8.982686344E0
3.564305042E0,7.439978485E0,-5.089566193E0,8.277786255E-1,9.052192074E0
3.574313042E0,7.896080017E0,-5.052742767E0,1.086740112E0,9.437123141E0
3.584322042E0,8.436306610E0,-4.976401520E0,1.318158875E0,9.882984576E0
3.594330042E0,8.934021606E0,-4.571044464E0,1.517693939E0,1.014961006E1
3.604338042E0,9.246122589E0,-4.142036591E0,1.738035736E0,1.027949504E1
3.614347042E0,9.437574463E0,-4.111649780E0,1.652862854E0,1.042618968E1
3.624355042E0,9.736502838E0,-4.459376678E0,1.494941254E0,1.081297264E1
3.634363042E0,9.983788605E0,-4.614304504E0,1.322948914E0,1.107781724E1
3.644372042E0,9.955198059E0,-4.641098785E0,1.250050507E0,1.105479048E1
3.654380042E0,1.006132736E1,-4.478536835E0,1.138233032E0,1.107172863E1
3.664388042E0,1.014530273E1,-4.605472870E0,1.042432251E0,1.119036250E1
3.674396042E0,1.021026764E1,-4.856201477E0,9.012757874E-1,1.134215835E1
3.684405042E0,1.012868729E1,-4.875810699E0,6.738986206E-1,1.126134874E1
3.694413042E0,1.004980133E1,-4.941673737E0,5.248086548E-1,1.121133668E1
3.704421042E0,1.007794281E1,-4.978497162E0,2.101629639E-1,1.124253235E1
3.714430042E0,1.026804749E1,-5.108876038E0,-7.035369873E-2,1.146901753E1
3.724438042E0,1.050919601E1,-5.505401459E0,-4.867877197E-1,1.187390451E1
3.734446042E0,1.089599167E1,-5.948031006E0,-1.189276886E0,1.247060892E1
3.744455042E0,1.136406830E1,-6.369853821E0,-1.683848419E0,1.313592142E1
3.754463042E0,1.177152100E1,-7.198829956E0,-2.153721313E0,1.396532759E1
3.764471042E0,1.180699722E1,-8.530760193E0,-3.646566925E0,1.501587504E1
3.774480042E0,1.119566849E1,-9.952653351E0,-6.791526947E0,1.644758766E1
3.784488042E0,9.737550659E0,-1.036414764E1,-8.072413330E0,1.635234864E1
3.794496042E0,8.519234161E0,-9.472601624E0,-6.721772003E0,1.440450454E1
3.804505042E0,8.233179016E0,-9.119186554E0,-4.415517883E0,1.305532835E1
3.814513042E0,8.162076874E0,-9.269923096E0,-2.766996002E0,1.265729987E1
3.824521042E0,7.765102386E0,-9.220226440E0,-1.730551300E0,1.217802112E1
3.834529042E0,7.364086304E0,-9.016200714E0,-9.440867615E-1,1.167959512E1
3.844538042E0,6.957681427E0,-8.783734131E0,-3.915856934E-1,1.121234389E1
3.854546042E0,6.553521881E0,-8.607700195E0,-1.143621826E-1,1.081916034E1
3.864554042E0,6.086193695E0,-8.325387268E0,-4.819976807E-2,1.031291181E1
3.874563042E0,5.544619904E0,-7.807913361E0,7.274871826E-2,9.576618051E0
3.884571042E0,5.077291718E0,-7.262297974E0,2.737806702E-1,8.865371898E0
3.894579042E0,4.693040771E0,-6.989565125E0,3.492237854E-1,8.426185944E0
3.904588042E0,4.380191345E0,-6.910529480E0,2.944377136E-1,8.187074415E0
3.914596042E0,4.035757599E0,-6.912625122E0,2.350112915E-1,8.007930805E0
3.924604042E0,3.762575684E0,-7.041207733E0,2.270777893E-1,7.986685573E0
3.934613042E0,3.596421204E0,-7.325765991E0,2.558180237E-1,8.164957789E0
3.944621042E0,3.572620697E0,-7.641010437E0,4.328997803E-1,8.446067805E0
3.954628667E0,3.699556732E0,-7.992329865E0,6.810836792E-1,8.833342043E0
3.964637667E0,3.896098022E0,-8.330776062E0,9.337582397E-1,9.244096172E0
3.974645667E0,4.131408691E0,-8.523126068E0,1.099313965E0,9.535235023E0
3.984653667E0,4.378694458E0,-8.446036377E0,1.119222565E0,9.579204288E0
3.994661667E0,4.603377228E0,-8.258626099E0,1.055305481E0,9.513656321E0
4.004670667E0,4.769531708E0,-8.120164032E0,9.119036865E-1,9.461345832E0
4.014678667E0,4.913681946E0,-8.042924652E0,6.740483093E-1,9.449193000E0
4.024686667E0,5.067262573E0,-7.793243866E0,4.885839844E-1,9.308625798E0
4.034695667E0,5.183421021E0,-7.418722687E0,4.767585754E-1,9.062703709E0
4.044703667E0,5.342989197E0,-7.133865051E0,5.614823914E-1,8.930555784E0
4.054711667E0,5.497168579E0,-7.008874969E0,5.611830139E-1,8.925139612E0
4.064720667E0,5.673202515E0,-6.912176056E0,5.700146484E-1,8.960375065E0
4.074728667E0,5.864504700E0,-6.819069672E0,6.041436768E-1,9.014272913E0
4.084736667E0,6.071374512E0,-6.634503479E0,5.842350769E-1,9.012189273E0
4.094745667E0,6.195316772E0,-6.380032654E0,5.186714172E-1,8.908186494E0
4.104753667E0,6.222859497E0,-6.264622650E0,4.755610657E-1,8.842829615E0
4.114761667E0,6.398594055E0,-6.237079926E0,4.080514526E-1,8.944812903E0
4.124770667E0,6.517746277E0,-6.067632294E0,2.984793091E-1,8.909897198E0
4.134778667E0,6.588549042E0,-5.946833496E0,2.145039368E-1,8.878052661E0
4.144786667E0,6.735992432E0,-5.808521118E0,2.371069336E-1,8.897681233E0
4.154794667E0,6.827003174E0,-5.722150726E0,2.944377136E-1,8.912781543E0
4.164803667E0,6.795269165E0,-5.774841156E0,3.351530457E-1,8.923945370E0
4.174811667E0,6.713688812E0,-5.694458313E0,2.905458069E-1,8.808228529E0
4.184819667E0,6.600224762E0,-5.592220917E0,2.520758057E-1,8.654446482E0
4.194828667E0,6.518494720E0,-5.605842590E0,2.924917603E-1,8.602429657E0
4.204836667E0,6.532864838E0,-5.676196289E0,3.677851868E-1,8.662147150E0
4.214844667E0,6.633455658E0,-5.873935089E0,4.843927002E-1,8.873583475E0
4.224853667E0,6.759343872E0,-6.122118988E0,5.541476440E-1,9.136528339E0
4.234861667E0,6.934629364E0,-6.364015961E0,5.351371765E-1,9.427415094E0
4.244869667E0,7.204368439E0,-6.596931610E0,4.403842163E-1,9.778362313E0
4.254878667E0,7.459438019E0,-6.807843018E0,2.862048340E-1,1.010306168E1
4.264886667E0,7.658524017E0,-6.986721039E0,7.723937988E-2,1.036692948E1
4.274894667E0,7.818541260E0,-7.099436646E0,-8.397537231E-2,1.056118554E1
4.284903667E0,8.011939087E0,-7.216642914E0,-1.683998108E-1,1.078422280E1
4.294911667E0,8.244555359E0,-7.345973969E0,-1.652563477E-1,1.104370120E1
4.304919667E0,8.428971863E0,-7.446415100E0,-8.502319336E-2,1.124739496E1
4.314927667E0,8.565487976E0,-7.483238525E0,-3.008743286E-2,1.137397680E1
4.324936667E0,8.644972687E0,-7.414381714E0,-2.365081787E-2,1.138899330E1
4.334944667E0,8.677006073E0,-7.290888519E0,-5.867797852E-2,1.133361958E1
4.344952667E0,8.682993622E0,-7.106472015E0,-1.507365417E-1,1.122136553E1
4.354961667E0,8.616980896E0,-6.818470917E0,-2.707868958E-1,1.099168918E1
4.364969667E0,8.605305176E0,-6.590644684E0,-3.561094666E-1,1.084503059E1
4.374977667E0,8.818611603E0,-6.597081299E0,-4.239184570E-1,1.102130206E1
4.384986667E0,9.270222473E0,-6.746770020E0,-3.897894287E-1,1.147204717E1
4.394994667E0,9.943672028E0,-7.125482483E0,-3.842509460E-1,1.223914878E1
4.405002667E0,1.069510941E1,-7.510481873E0,-4.246669006E-1,1.307566614E1
4.415011667E0,1.132125732E1,-7.805069275E0,-5.011578369E-1,1.376012838E1
4.425019667E0,1.172287216E1,-7.956404572E0,-6.110293579E-1,1.418109524E1
4.435027667E0,1.169263504E1,-7.881260834E0,-7.762857056E-1,1.412213178E1
4.445036667E0,1.132170639E1,-7.563321991E0,-1.015787659E0,1.365345010E1
4.455044667E0,1.080767532E1,-7.144792328E0,-1.358425140E0,1.302686540E1
4.465052667E0,9.994416504E0,-6.939718781E0,-1.500180359E0,1.225963291E1
4.475060667E0,9.009015656E0,-6.915618896E0,-1.436862030E0,1.144782601E1
4.485069667E0,8.236023102E0,-6.855444031E0,-1.357077942E0,1.080142814E1
4.495077667E0,7.546407166E0,-6.629563751E0,-1.319955139E0,1.013122195E1
4.505085667E0,6.918612671E0,-6.474785614E0,-1.222058716E0,9.554238721E0
4.515094667E0,6.384822693E0,-6.450536041E0,-9.949809265E-1,9.130463465E0
4.525102667E0,5.925877075E0,-6.556815033E0,-7.436535645E-1,8.869095958E0
4.535110667E0,5.557493134E0,-6.744973755E0,-5.105882263E-1,8.754490346E0
4.545119667E0,5.196893005E0,-7.002138977E0,-3.073109436E-1,8.725370318E0
4.555127667E0,4.842879181E0,-7.232809296E0,-1.582209778E-1,8.705862562E0
4.565135667E0,4.680466919E0,-7.721093903E0,8.547225952E-2,9.029361392E0
4.575144667E0,4.683311005E0,-8.563542023E0,3.409909058E-1,9.766469615E0
4.585152667E0,4.461921387E0,-9.085656281E0,5.161267090E-1,1.013529868E1
4.595160667E0,4.120481415E0,-9.722731476E0,1.038989410E0,1.061081399E1
4.605169667E0,3.971391449E0,-1.010743149E1,1.250948639E0,1.093146805E1
4.615177667E0,3.918401642E0,-1.041623932E1,1.337169342E0,1.120892211E1
4.625185667E0,3.613635406E0,-9.992021484E0,1.255289612E0,1.069928064E1
4.635194667E0,3.199446716E0,-9.527537384E0,7.933502197E-1,1.008165822E1
4.645202667E0,3.215463409E0,-9.585167542E0,3.350033569E-1,1.011567442E1
4.655210667E0,3.346890106E0,-9.213939514E0,-3.742218018E-2,9.803048259E0
4.665218667E0,3.512894897E0,-8.842412109E0,-5.601351929E-1,9.531129729E0
4.675227667E0,3.435505829E0,-8.467890930E0,-1.119671631E0,9.206603156E0
4.685235667E0,3.536096649E0,-7.654332733E0,-2.003433838E0,8.666402728E0
4.695243667E0,3.890409851E0,-6.940317535E0,-2.834206238E0,8.446065433E0
4.705252667E0,4.258943481E0,-7.061864777E0,-3.410807190E0,8.924244472E0
4.715260667E0,4.610562286E0,-7.273225250E0,-3.358266449E0,9.243107902E0
4.725268667E0,4.835394745E0,-7.435936890E0,-2.923121338E0,9.339102640E0
4.735277667E0,4.887336731E0,-7.481891327E0,-2.553090820E0,9.294247193E0
4.745285667E0,4.735702057E0,-7.363038483E0,-2.157613220E0,9.016457424E0
4.755293667E0,4.626878357E0,-7.125931549E0,-1.830393677E0,8.691216531E0
4.765302667E0,4.676125946E0,-6.872658234E0,-1.575473785E0,8.460597066E0
4.775310667E0,5.347330170E0,-5.996679840E0,-1.412313080E0,8.157740942E0
4.785318667E0,7.289241943E0,-3.516786804E0,-1.559008026E0,8.242047292E0
4.795326667E0,7.257807312E0,-2.803370361E0,-1.612297211E0,7.945700388E0
4.805335667E0,6.103557587E0,-5.009183350E0,-1.208736420E0,7.987889382E0
4.815343667E0,6.376290436E0,-6.496041412E0,-1.074914703E0,9.165755581E0
4.825351667E0,6.588698730E0,-6.439309387E0,-1.302291870E0,9.304387162E0
4.835360667E0,6.541696472E0,-5.867498474E0,-1.171912994E0,8.865365821E0
4.845368667E0,6.626869354E0,-6.100264435E0,-7.655081177E-1,9.039614278E0
4.855376667E0,6.812333679E0,-6.284082184E0,-2.546205139E-1,9.271591592E0
4.865385667E0,7.009623413E0,-6.118676147E0,1.630110168E-1,9.305890112E0
4.875393667E0,7.224726105E0,-5.987399139E0,3.706292725E-1,9.390579418E0
4.885401667E0,7.319778442E0,-5.813161469E0,5.089416504E-1,9.361144391E0
4.895410667E0,7.333400116E0,-5.539380798E0,4.074526978E-1,9.199430123E0
4.905418667E0,7.475305023E0,-5.304668884E0,3.725752258E-1,9.173794714E0
4.915426667E0,7.725883942E0,-5.162165222E0,7.074288940E-1,9.318674160E0
4.925435667E0,7.899373169E0,-4.988825684E0,8.828640747E-1,9.384451350E0
4.935443667E0,8.199798431E0,-4.920867004E0,9.979747009E-1,9.614966453E0
4.945451667E0,8.516090698E0,-4.892276459E0,9.247769165E-1,9.864754537E0
4.955460042E0,8.871302032E0,-4.921465759E0,7.246430969E-1,1.017083736E1
4.965469042E0,9.213789825E0,-5.036127319E0,4.016148376E-1,1.050798724E1
4.975477042E0,9.413175201E0,-4.978347473E0,2.212399292E-1,1.065085715E1
4.985485042E0,9.618099060E0,-4.858746185E0,9.145980835E-2,1.077606649E1
4.995494042E0,9.751471710E0,-4.797373810E0,-7.140151978E-2,1.086789281E1
5.005502042E0,9.835746460E0,-4.816683655E0,-2.154020691E-1,1.095393755E1
5.015510042E0,9.896520081E0,-4.717440033E0,-4.382885742E-1,1.097212136E1
5.025519042E0,1.011776001E1,-4.734055481E0,-7.315287781E-1,1.119443984E1
5.035527042E0,1.061562469E1,-5.090913391E0,-1.101110229E0,1.182460699E1
5.045535042E0,1.143382324E1,-5.774541779E0,-1.667232971E0,1.291732606E1
5.055544042E0,1.247326172E1,-6.839277649E0,-2.670895844E0,1.447382677E1
5.065552042E0,1.295421158E1,-8.406518555E0,-4.250411224E0,1.601708923E1
5.075560042E0,1.225396774E1,-9.809700623E0,-5.789360962E0,1.673041100E1
5.085569042E0,1.114417557E1,-1.037941589E1,-5.888754272E0,1.632796222E1
5.095577042E0,9.851763153E0,-9.933343506E0,-4.916526031E0,1.482905185E1
5.105585042E0,8.775950317E0,-9.273815002E0,-3.931873627E0,1.335966238E1
5.115594042E0,7.769742737E0,-8.894054718E0,-3.176993408E0,1.222973420E1
5.125602042E0,6.946454773E0,-8.589737549E0,-2.475701752E0,1.132103901E1
5.135610042E0,6.274651794E0,-8.186476135E0,-1.688638458E0,1.045184895E1
5.145618042E0,5.871540070E0,-7.934250641E0,-9.605525208E-1,9.917155699E0
5.155627042E0,5.585484924E0,-7.851472778E0,-3.529660034E-1,9.641983801E0
5.165635042E0,5.412893829E0,-7.853718109E0,4.191284180E-2,9.538451889E0
5.175643042E0,5.268444214E0,-8.054300995E0,3.362008667E-1,9.630228449E0
5.185652042E0,5.193599854E0,-8.299491119E0,4.068539429E-1,9.799008236E0
5.195660042E0,5.139711914E0,-8.503367157E0,3.926335144E-1,9.943744397E0
5.205668042E0,5.022206268E0,-8.752748566E0,4.089495850E-1,1.009952489E1
5.215677042E0,4.872667236E0,-9.028924255E0,5.483097839E-1,1.027448309E1
5.225685042E0,4.794380035E0,-9.115294647E0,7.734416199E-1,1.032825679E1
5.235693042E0,4.778213654E0,-8.980724487E0,8.764274597E-1,1.021042914E1
5.245702042E0,4.891378326E0,-8.671467590E0,7.219487000E-1,9.982040975E0
5.255710042E0,5.038372650E0,-8.400680695E0,4.261637878E-1,9.805011508E0
5.265718042E0,5.162464600E0,-8.201594696E0,2.007325745E-1,9.693167174E0
5.275726042E0,5.174140320E0,-7.992629242E0,1.942959595E-1,9.523213805E0
5.285735042E0,5.151537323E0,-7.776329041E0,3.460803223E-1,9.334313136E0
5.295743042E0,5.121749268E0,-7.632478180E0,5.530998230E-1,9.208309190E0
5.305751042E0,5.046904907E0,-7.472011871E0,7.604187012E-1,9.048781528E0
5.315760042E0,5.045258331E0,-7.316185913E0,8.229885864E-1,8.925162080E0
5.325768042E0,5.119653625E0,-7.123686218E0,7.014413452E-1,8.800555581E0
5.335776042E0,5.234315186E0,-7.005132751E0,5.301974487E-1,8.760767641E0
5.345785042E0,5.383255463E0,-6.958429871E0,3.559597778E-1,8.804878932E0
5.355793042E0,5.549260254E0,-6.942562866E0,3.101550293E-1,8.893237018E0
5.365801042E0,5.722599792E0,-6.989864502E0,4.050576782E-1,9.042700142E0
5.375810042E0,5.934109955E0,-6.977739716E0,5.180726624E-1,9.174470654E0
5.385818042E0,6.109096069E0,-6.848258972E0,5.560935974E-1,9.193962466E0
5.395826042E0,6.219266968E0,-6.639592896E0,4.911286926E-1,9.110690579E0
5.405835042E0,6.232738953E0,-6.526877289E0,3.703298950E-1,9.032403126E0
5.415843042E0,6.244115295E0,-6.427933044E0,2.505789185E-1,8.964936633E0
5.425851042E0,6.394253082E0,-6.380631409E0,2.252815247E-1,9.036021327E0
5.435859042E0,6.552773438E0,-6.355483704E0,2.112107849E-1,9.131025289E0
5.445868042E0,6.575675812E0,-6.304140472E0,1.236428833E-1,9.110268220E0
5.455876042E0,6.582411804E0,-6.240373077E0,-3.577560425E-2,9.070373818E0
5.465884042E0,6.569538574E0,-6.159541168E0,-1.437011719E-1,9.006632806E0
5.475893042E0,6.525979156E0,-6.130052490E0,-1.532812500E-1,8.954855813E0
5.485901042E0,6.540948029E0,-6.165977783E0,-1.507365417E-1,8.990328394E0
5.495909042E0,6.566544800E0,-6.245761871E0,-1.734892273E-1,9.064168493E0
5.505918042E0,6.608008575E0,-6.318061523E0,-1.907034302E-1,9.144399737E0
5.515926042E0,6.717880096E0,-6.394103394E0,-2.261796570E-1,9.277156269E0
5.525934042E0,6.914870453E0,-6.512507172E0,-2.465373230E-1,9.502050499E0
5.535943042E0,7.117698669E0,-6.622528381E0,-2.565664673E-1,9.725499620E0
5.545951042E0,7.251969452E0,-6.696324921E0,-2.634521484E-1,9.874271386E0
5.555959042E0,7.384593658E0,-6.752458191E0,-3.245251465E-1,1.001165479E1
5.565968042E0,7.539521484E0,-6.835086365E0,-3.960763550E-1,1.018428526E1
5.575976042E0,7.714806976E0,-6.935826874E0,-4.677772522E-1,1.038473672E1
5.585984042E0,7.944279785E0,-7.090904388E0,-5.421725464E-1,1.066238517E1
5.595992042E0,8.185128937E0,-7.259154510E0,-5.894741821E-1,1.095623748E1
5.606001042E0,8.393345947E0,-7.363188171E0,-6.438111877E-1,1.118388524E1
5.616009042E0,8.462951202E0,-7.351512451E0,-7.018904114E-1,1.123204917E1
5.626017042E0,8.361761627E0,-7.189100189E0,-7.429051208E-1,1.105233582E1
5.636026042E0,8.197104034E0,-6.917564850E0,-8.158035278E-1,1.075689330E1
5.646034042E0,8.059540100E0,-6.674021301E0,-9.032217407E-1,1.050307367E1
5.656042042E0,8.128396912E0,-6.657854919E0,-9.933343506E-1,1.055388941E1
5.666051042E0,8.525521088E0,-6.938371582E0,-1.095422058E0,1.104651346E1
5.676059042E0,9.154213715E0,-7.490722961E0,-1.176253967E0,1.188672085E1
5.686067042E0,9.880653076E0,-8.167465668E0,-1.265468445E0,1.288162300E1
5.696076042E0,1.052581146E1,-8.893306274E0,-1.246907043E0,1.383612592E1
5.706084042E0,1.090886490E1,-9.377399597E0,-1.095272369E0,1.442700863E1
5.716092042E0,1.072893906E1,-9.392518158E0,-7.979905701E-1,1.428167776E1
5.726101042E0,9.961934052E0,-8.983269196E0,-5.415737915E-1,1.342507198E1
5.736109042E0,9.083560638E0,-8.405620422E0,-5.180726624E-1,1.238684495E1
5.746117042E0,8.286617889E0,-7.942633209E0,-5.321434021E-1,1.149071951E1
5.756126042E0,7.583080902E0,-7.485783234E0,-5.438191223E-1,1.066938638E1
5.766134042E0,7.014862518E0,-7.058122559E0,-6.104306030E-1,9.969855351E0
5.776142042E0,6.599476318E0,-6.887776794E0,-7.123686218E-1,9.565669130E0
5.786150042E0,6.309080200E0,-6.860084381E0,-7.450007629E-1,9.349881113E0
5.796159042E0,6.062243500E0,-6.957980804E0,-7.294331360E-1,9.257233163E0
5.806167042E0,5.849086761E0,-7.153923340E0,-6.741979980E-1,9.265256501E0
5.816175042E0,5.669460297E0,-7.423512726E0,-5.707630920E-1,9.358263287E0
5.826184042E0,5.563181305E0,-7.785160675E0,-4.517605591E-1,9.579237995E0
5.836192042E0,5.460345154E0,-8.206833801E0,-3.492237854E-1,9.863541326E0
5.846200042E0,5.265001373E0,-8.797655182E0,-1.248403931E-1,1.025351458E1
5.856209042E0,5.027445374E0,-9.501192169E0,2.944377136E-1,1.075335079E1
5.866217042E0,4.785847778E0,-1.022852966E1,7.125183105E-1,1.131524814E1
5.876225042E0,4.425696716E0,-1.066666855E1,1.078806610E0,1.159863928E1
5.886234042E0,3.783232727E0,-1.049632278E1,1.250798950E0,1.122720535E1
5.896242042E0,3.065625000E0,-9.406289520E0,9.870474243E-1,9.942363994E0
5.906250042E0,2.718347168E0,-9.491312714E0,7.526348877E-1,9.901559858E0
5.916258042E0,2.465223541E0,-9.313781891E0,8.431965637E-1,9.671341203E0
5.926267042E0,2.391427002E0,-8.727451172E0,8.328680420E-1,9.087408665E0
5.936275042E0,2.527943115E0,-8.402776337E0,2.926414490E-1,8.779680266E0
5.946283042E0,2.551743622E0,-7.930508423E0,-3.573069763E-1,8.338586669E0
5.956291667E0,2.623594208E0,-7.410489807E0,-9.764195251E-1,7.921616050E0
5.966299667E0,3.169508972E0,-6.690037994E0,-2.018402710E0,7.673092270E0
5.976307667E0,3.552562408E0,-6.280489655E0,-2.791245575E0,7.736685455E0
5.986316667E0,3.529061279E0,-6.178851013E0,-3.367846527E0,7.872411548E0
5.996324667E0,3.631747742E0,-6.224506073E0,-3.846401367E0,8.168774142E0
6.006332667E0,3.894301758E0,-6.378685455E0,-3.802841949E0,8.385393325E0
6.016341667E0,4.180955658E0,-6.502627716E0,-3.375630341E0,8.435605350E0
6.026349667E0,4.517605591E0,-6.714886322E0,-2.888543243E0,8.593144981E0
6.036357667E0,4.906796265E0,-6.951993256E0,-2.454146576E0,8.856054157E0
6.046366667E0,5.405708771E0,-7.129224701E0,-2.112257538E0,9.192886601E0
6.056374667E0,6.816974030E0,-6.229296112E0,-2.042053528E0,9.457549766E0
6.066382667E0,9.399703217E0,-3.146905975E0,-2.075434113E0,1.012743129E1
6.076390667E0,8.326435089E0,-3.489693146E0,-1.707648926E0,9.188228578E0
6.086399667E0,6.709198151E0,-5.593418427E0,-8.821156311E-1,8.779396193E0
6.096407667E0,7.128176880E0,-6.101162567E0,-8.032296753E-1,9.417020134E0
6.106415667E0,7.597750397E0,-6.709647217E0,-9.940827942E-1,1.018495839E1
6.116424667E0,7.850574646E0,-6.896009674E0,-6.358776855E-1,1.046856304E1
6.126432667E0,7.932604065E0,-6.824009399E0,3.861968994E-2,1.046397644E1
6.136440667E0,7.931107178E0,-6.539301453E0,5.367837524E-1,1.029335035E1
6.146449667E0,7.895181885E0,-6.218518524E0,8.827143860E-1,1.008875881E1
6.156457667E0,7.779472504E0,-5.725294189E0,1.065035248E0,9.717689338E0
6.166465667E0,7.679181061E0,-5.042713623E0,9.770182800E-1,9.238687524E0
6.176474667E0,7.711663513E0,-4.717140656E0,6.614744568E-1,9.064144668E0
6.186482667E0,7.832911377E0,-4.637955322E0,2.188449097E-1,9.105658862E0
6.196490667E0,8.025111694E0,-4.770729218E0,-2.097138977E-1,9.338428931E0
6.206499667E0,8.303532715E0,-4.862488403E0,-5.284011841E-1,9.636994180E0
6.216507667E0,8.531358948E0,-5.016967163E0,-7.831713867E-1,9.928111725E0
6.226515667E0,8.861871643E0,-4.980293427E0,-9.864486694E-1,1.021318621E1
6.236523667E0,9.114845581E0,-5.092410278E0,-1.121767273E0,1.050101968E1
6.246532667E0,9.295669556E0,-5.185516663E0,-1.461710358E0,1.074409851E1
6.256540667E0,9.388326874E0,-5.182822266E0,-1.958227844E0,1.090123775E1
6.266548667E0,9.545949097E0,-5.138065338E0,-2.497406616E0,1.112483256E1
6.276557667E0,9.786049805E0,-4.922812958E0,-3.221301270E0,1.141830285E1
6.286565667E0,9.937534790E0,-4.662204895E0,-4.650678864E0,1.192139111E1
6.296573667E0,9.683662720E0,-4.738396454E0,-6.840624847E0,1.276792359E1
6.306582667E0,8.668324127E0,-5.660778351E0,-8.675958252E0,1.350764622E1
6.316590667E0,7.742948456E0,-7.153474274E0,-9.587113495E0,1.424914700E1
6.326598667E0,7.467670898E0,-8.581804047E0,-1.054542068E1,1.551191048E1
6.336607667E0,7.455246735E0,-9.624685364E0,-1.111109436E1,1.648246614E1
6.346615667E0,7.558232574E0,-1.021924896E1,-1.045351181E1,1.645709082E1
6.356623667E0,7.795040131E0,-1.032672546E1,-8.168812866E0,1.530141866E1
6.366632667E0,8.312963104E0,-1.016790573E1,-5.184768219E0,1.411996756E1
6.376640667E0,8.866062927E0,-9.851314087E0,-2.744692383E0,1.353472561E1
6.386648667E0,9.114695892E0,-9.313033447E0,-7.923023987E-1,1.305519116E1
6.396656667E0,9.269024963E0,-8.945098572E0,4.008663940E-1,1.288760281E1
6.406665667E0,9.200617218E0,-8.902287598E0,7.200027466E-1,1.282265517E1
6.416673667E0,8.624016266E0,-8.904981995E0,6.500981140E-1,1.241350025E1
6.426681667E0,7.856562195E0,-8.796457672E0,4.574487305E-1,1.180307148E1
6.436690667E0,6.821614380E0,-8.458610229E0,3.249742126E-1,1.087143588E1
6.446698667E0,5.786666565E0,-7.976911926E0,3.573069763E-1,9.861252562E0
6.456706667E0,4.872816925E0,-7.415429535E0,3.457809448E-1,8.879893267E0
6.466715667E0,4.061653748E0,-7.114106140E0,3.844006348E-1,8.200932946E0
6.476723667E0,3.580404510E0,-6.982978821E0,5.381309509E-1,7.865804129E0
6.486731667E0,3.238216095E0,-7.042554932E0,7.379653931E-1,7.786412291E0
6.496740667E0,3.078947296E0,-7.268584900E0,9.023236084E-1,7.945214333E0
6.506748667E0,3.122207336E0,-7.608527985E0,8.137078857E-1,8.264381239E0
6.516756667E0,3.323688354E0,-8.020920410E0,6.342311096E-1,8.705418864E0
6.526765667E0,3.680246887E0,-8.244854736E0,4.285588074E-1,9.039109991E0
6.536773667E0,4.224066010E0,-8.182584229E0,2.721340942E-1,9.212571589E0
6.546781667E0,4.762795715E0,-8.068671112E0,3.041674805E-1,9.374443685E0
6.556789667E0,5.157375183E0,-7.864495697E0,4.805007935E-1,9.416989559E0
6.566798667E0,5.454806671E0,-7.631430359E0,6.195616150E-1,9.400930897E0
6.576806667E0,5.716911621E0,-7.411387939E0,5.878276062E-1,9.378554844E0
6.586814667E0,5.961652679E0,-7.201374664E0,4.474195862E-1,9.359555759E0
6.596823667E0,6.240522766E0,-7.002288666E0,2.609074402E-1,9.383189418E0
6.606831667E0,6.566095734E0,-6.855294342E0,1.207987976E-1,9.493327449E0
6.616839667E0,6.853049011E0,-6.789580994E0,3.652404785E-2,9.646969722E0
6.626848667E0,7.031028900E0,-6.727460175E0,-2.709365845E-2,9.731126444E0
6.636856667E0,7.155120850E0,-6.707252197E0,-9.235794067E-2,9.807727382E0
6.646864667E0,7.319628754E0,-6.639892273E0,-1.942959595E-1,9.884476992E0
6.656873667E0,7.338788910E0,-6.277944946E0,-3.100053406E-1,9.662635185E0
6.666881667E0,7.285649414E0,-5.931415558E0,-3.525169373E-1,9.401417239E0
6.676889667E0,7.250322876E0,-5.602848816E0,-3.203338623E-1,9.168517353E0
6.686898667E0,7.197632446E0,-5.503605194E0,-3.038681030E-1,9.065755280E0
6.696906667E0,7.217091980E0,-5.589227142E0,-3.766168213E-1,9.136066819E0
6.706914667E0,7.233707428E0,-5.673801270E0,-5.433700562E-1,9.209440538E0
6.716923667E0,7.242838440E0,-5.635181580E0,-6.777905273E-1,9.201813957E0
6.726931667E0,7.178322601E0,-5.616769867E0,-6.718029785E-1,9.139351090E0
6.736939667E0,7.092251587E0,-5.631139984E0,-5.822891235E-1,9.074625652E0
6.746947667E0,7.016359406E0,-5.656287689E0,-5.295986938E-1,9.027921384E0
6.756956667E0,6.915319519E0,-5.719306641E0,-5.674699402E-1,8.991892717E0
6.766964667E0,6.787185974E0,-5.794450378E0,-6.559359741E-1,8.948284787E0
6.776972667E0,6.725514221E0,-5.882916412E0,-7.429051208E-1,8.966223010E0
6.786981667E0,6.723717957E0,-5.995931396E0,-8.662486267E-1,9.050412320E0
6.796989667E0,6.765780487E0,-6.168522491E0,-9.596543884E-1,9.205834665E0
6.806997667E0,6.804250488E0,-6.341412964E0,-9.740245056E-1,9.352008705E0
6.817006667E0,6.853498077E0,-6.541696472E0,-9.565109253E-1,9.522559623E0
6.827014667E0,6.957980804E0,-6.769971771E0,-8.939410400E-1,9.749109972E0
6.837022667E0,7.079528046E0,-6.993906097E0,-8.873547363E-1,9.991087943E0
6.847031667E0,7.207960968E0,-7.170987854E0,-9.394464111E-1,1.021079466E1
6.857039667E0,7.336393890E0,-7.319329376E0,-1.013392639E0,1.041259922E1
6.867047667E0,7.500602417E0,-7.465425568E0,-1.089434509E0,1.063853764E1
6.877055667E0,7.661817169E0,-7.587122498E0,-1.145717468E0,1.084345603E1
6.887064667E0,7.779173126E0,-7.625143433E0,-1.159638519E0,1.095459303E1
6.897072667E0,7.822732544E0,-7.545209656E0,-1.149010620E0,1.092911518E1
6.907080667E0,7.757917328E0,-7.370522919E0,-1.128652954E0,1.076028563E1
6.917089667E0,7.708370361E0,-7.153623962E0,-1.169368286E0,1.058114982E1
6.927097667E0,7.732170868E0,-6.981182556E0,-1.254092102E0,1.049266998E1
6.937105667E0,7.896379395E0,-7.086713104E0,-1.347198486E0,1.069529120E1
6.947114667E0,8.321944427E0,-7.453450470E0,-1.495540009E0,1.127143837E1
6.957126542E0,8.970246277E0,-7.979905701E0,-1.655257874E0,1.211957474E1
6.967134542E0,9.669741669E0,-8.583750000E0,-1.728156281E0,1.304496808E1
6.977143542E0,1.038779846E1,-9.134155426E0,-1.697619781E0,1.393632179E1
6.987151542E0,1.093146790E1,-9.515412598E0,-1.506467285E0,1.457084455E1
6.997159542E0,1.114013397E1,-9.585915985E0,-1.246457977E0,1.474944161E1
7.007168542E0,1.082414108E1,-9.201665039E0,-1.087638245E0,1.424835523E1
7.017176542E0,9.988279266E0,-8.403824158E0,-1.169218597E0,1.310561160E1
7.027184542E0,9.142238617E0,-7.650740204E0,-1.337319031E0,1.199594827E1
7.037193542E0,8.513695679E0,-7.441924438E0,-1.369202728E0,1.139034545E1
7.047201542E0,8.022267609E0,-7.377857666E0,-1.275497589E0,1.097344319E1
7.057209542E0,7.538323975E0,-7.280260620E0,-1.161584473E0,1.054408846E1
7.067217542E0,7.043902130E0,-7.154372406E0,-1.064436493E0,1.009626796E1
7.077226542E0,6.539151764E0,-7.088808746E0,-9.677375793E-1,9.692689578E0
7.087234542E0,6.092480621E0,-6.950646057E0,-8.446934509E-1,9.281341916E0
7.097242542E0,5.689668274E0,-6.866071930E0,-6.884184265E-1,8.943667522E0
7.107251542E0,5.318589935E0,-6.764882355E0,-5.767506409E-1,8.624597004E0
7.117259542E0,4.947361908E0,-6.681805115E0,-4.824467468E-1,8.328004821E0
7.127267542E0,4.582121429E0,-6.609056396E0,-4.016148376E-1,8.052127528E0
7.137276542E0,4.353397064E0,-6.678212585E0,-3.580554199E-1,7.979899311E0
7.147284542E0,4.247866516E0,-6.931036835E0,-2.559677124E-1,8.133213449E0
7.157292542E0,4.249812469E0,-7.281907196E0,-1.848655701E-1,8.433341788E0
7.167301542E0,4.331991577E0,-7.759414215E0,-2.016307068E-1,8.889055908E0
7.177309542E0,4.363426208E0,-8.359067230E0,-1.815724182E-1,9.431143185E0
7.187317542E0,4.134252777E0,-8.769064636E0,2.694396973E-2,9.694806166E0
7.197326542E0,3.801195374E0,-8.998387756E0,1.791773987E-1,9.769962795E0
7.207334542E0,3.625760193E0,-9.134754181E0,2.537223816E-1,9.831289131E0
7.217342542E0,3.536096649E0,-9.117839355E0,3.781137085E-1,9.786825021E0
7.227350542E0,3.702400818E0,-8.880433044E0,4.513114929E-1,9.631902457E0
7.237359542E0,4.164190521E0,-8.305478668E0,1.242416382E-1,9.291764880E0
7.247367542E0,4.490212555E0,-7.577841797E0,-3.591032410E-1,8.815591315E0
7.257375542E0,4.606071625E0,-6.920259247E0,-7.421566772E-1,8.346057775E0
7.267384542E0,4.628973999E0,-6.423143005E0,-1.047072601E0,7.986271181E0
7.277392542E0,4.714146881E0,-6.072871399E0,-1.352287903E0,7.805871535E0
7.287400542E0,4.788093109E0,-5.904770966E0,-1.599423981E0,7.768546379E0
7.297409542E0,4.857099609E0,-5.801036682E0,-1.678759003E0,7.749946773E0
7.307417542E0,5.063819733E0,-5.592370605E0,-1.627116394E0,7.717796773E0
7.317425542E0,5.359005890E0,-5.438490601E0,-1.413959656E0,7.765011658E0
7.327434542E0,5.689817963E0,-5.367837524E0,-1.009051666E0,7.887071282E0
7.337442542E0,5.900130615E0,-5.438041534E0,-5.300477600E-1,8.041441888E0
7.347450542E0,5.992189178E0,-5.557642822E0,-1.504371643E-1,8.174127246E0
7.357459542E0,6.277645569E0,-5.687722321E0,6.930587769E-2,8.471353044E0
7.367467542E0,6.794520721E0,-5.711073761E0,1.438508606E-1,8.877081075E0
7.377475542E0,7.224875793E0,-5.779032440E0,2.544708252E-3,9.251813479E0
7.387483542E0,7.419022064E0,-5.935906219E0,-1.267863464E-1,9.502260037E0
7.397492542E0,7.540120239E0,-5.908812561E0,3.742218018E-3,9.579535120E0
7.407500542E0,7.723339233E0,-5.850883026E0,1.739382935E-1,9.690874864E0
7.417508542E0,7.953111420E0,-5.664819946E0,2.936892700E-1,9.768747088E0
7.427517542E0,8.153843994E0,-5.521717529E0,3.362008667E-1,9.853302359E0
7.437525542E0,8.260721741E0,-5.338348846E0,1.796264648E-1,9.837162078E0
7.447533542E0,8.429570618E0,-5.001399536E0,-1.660047913E-1,9.803020744E0
7.457542542E0,8.692573700E0,-4.396058350E0,-4.703219604E-1,9.752300718E0
7.467550542E0,9.064101105E0,-3.410657501E0,-6.209088135E-1,9.704434099E0
7.477558542E0,9.704319763E0,-2.751578064E0,-8.843609619E-1,1.012556656E1
7.487567542E0,1.043689636E1,-3.143313446E0,-1.422042847E0,1.099233510E1
7.497575542E0,1.119117783E1,-3.460952911E0,-2.294877777E0,1.193679690E1
7.507583542E0,1.205712708E1,-3.572171631E0,-3.510649567E0,1.305600949E1
7.517592542E0,1.253822662E1,-3.443738708E0,-4.918771362E0,1.390182631E1
7.527600542E0,1.266306702E1,-3.188519440E0,-6.203998718E0,1.445716164E1
7.537608542E0,1.251622238E1,-3.261268158E0,-7.099286957E0,1.475437454E1
7.547616542E0,1.179232773E1,-3.826193390E0,-7.238647156E0,1.435607055E1
7.557625542E0,1.076666061E1,-4.867278442E0,-6.371949463E0,1.342434804E1
7.567633542E0,1.017643799E1,-6.254144440E0,-5.375321960E0,1.309840826E1
7.577641542E0,1.009395950E1,-7.801327057E0,-4.606221313E0,1.356340654E1
7.587650542E0,1.037462585E1,-9.339378662E0,-4.104764099E0,1.455011834E1
7.597658542E0,1.086186264E1,-1.066397415E1,-3.734134827E0,1.567303951E1
7.607666542E0,1.120255417E1,-1.154534134E1,-2.963237915E0,1.635765587E1
7.617675542E0,1.106693619E1,-1.166479294E1,-1.833537140E0,1.618352030E1
7.627683542E0,1.034738251E1,-1.122874969E1,-6.795867920E-1,1.528446867E1
7.637691542E0,9.171427917E0,-1.041174866E1,-1.811233521E-2,1.387515507E1
7.647700542E0,8.055049438E0,-9.576036530E0,1.511856079E-2,1.251337387E1
7.657708542E0,7.144343262E0,-8.827742615E0,-1.660047913E-1,1.135773912E1
7.667716542E0,6.429579620E0,-8.238418121E0,-4.010160828E-1,1.045809931E1
7.677725542E0,5.839656372E0,-7.938142548E0,-4.070036316E-1,9.863130619E0
7.687733542E0,5.339995422E0,-7.692054291E0,-1.143621826E-1,9.364631815E0
7.697741542E0,4.905449066E0,-7.354356537E0,2.228865051E-1,8.843057673E0
7.707749542E0,4.529880066E0,-6.943910065E0,5.361849976E-1,8.308140270E0
7.717758542E0,4.298461304E0,-6.503226471E0,7.532336426E-1,7.831735761E0
7.727766542E0,4.157604218E0,-6.160888367E0,7.855664063E-1,7.473910146E0
7.737774542E0,4.104015656E0,-5.874683533E0,9.801617432E-1,7.232950169E0
7.747783542E0,4.161945190E0,-5.626799011E0,1.121767273E0,7.088089778E0
7.757791542E0,4.355941772E0,-5.470074921E0,1.243613892E0,7.102290044E0
7.767799542E0,4.563110962E0,-5.541626129E0,1.198108521E0,7.277847610E0
7.777808542E0,4.658462677E0,-5.816155243E0,1.128353577E0,7.536717994E0
7.787816542E0,4.980592804E0,-5.996530151E0,1.138981476E0,7.877941186E0
7.797824542E0,5.226231995E0,-6.231990509E0,1.127605133E0,8.211132681E0
7.807833542E0,5.474565582E0,-6.502927094E0,1.137933655E0,8.576352494E0
7.817841542E0,5.734724579E0,-6.887178040E0,1.139280853E0,9.034281831E0
7.827849542E0,5.883964233E0,-7.169191589E0,1.100661163E0,9.339689403E0
7.837858542E0,6.027366028E0,-7.313341827E0,1.070274353E0,9.537274092E0
7.847866542E0,6.292015686E0,-7.421117706E0,1.064137115E0,9.787483701E0
7.857874542E0,6.455924835E0,-7.528145142E0,1.077010345E0,9.975564447E0
7.867882542E0,6.564748535E0,-7.535629578E0,1.177750854E0,1.006323673E1
7.877891542E0,6.744973755E0,-7.483837280E0,1.089584198E0,1.013359192E1
7.887899542E0,6.909930725E0,-7.476652222E0,1.068029022E0,1.023660867E1
7.897907542E0,6.953490143E0,-7.513176270E0,9.348060608E-1,1.027972301E1
7.907916542E0,7.013215942E0,-7.361691284E0,6.441105652E-1,1.018796225E1
7.917924542E0,7.073690186E0,-7.091802521E0,3.897894287E-1,1.002410553E1
7.927932542E0,7.189100189E0,-6.956483917E0,2.029779053E-1,1.000584979E1
7.937941542E0,7.124284973E0,-6.838828583E0,-7.738906860E-2,9.875778543E0
7.947949542E0,7.012467499E0,-6.761738892E0,-2.865042114E-1,9.745660466E0
7.957957667E0,6.924300842E0,-6.798412628E0,-3.659889221E-1,9.710731399E0
7.967966667E0,6.718778229E0,-6.829098816E0,-3.700305176E-1,9.587256860E0
7.977974667E0,6.499933319E0,-7.018604736E0,-4.144880676E-1,9.575058535E0
7.987982667E0,6.278543701E0,-7.022796021E0,-5.417234802E-1,9.435742646E0
7.997991667E0,6.022426300E0,-6.916666718E0,-6.221063232E-1,9.192220259E0
8.007999667E0,5.696104889E0,-6.896608429E0,-6.304888916E-1,8.966957955E0
8.018007667E0,5.388943634E0,-6.955585785E0,-6.340814209E-1,8.821731483E0
8.028015667E0,5.179229736E0,-7.057074738E0,-7.074288940E-1,8.782208159E0
8.038024667E0,5.089117126E0,-7.110064545E0,-8.978329468E-1,8.789666373E0
8.048032667E0,4.950804749E0,-7.177274780E0,-1.034648438E0,8.780332472E0
8.058040667E0,4.813091125E0,-7.279212799E0,-1.153201904E0,8.802423518E0
8.068049667E0,4.834496613E0,-7.284601593E0,-1.314566345E0,8.841145997E0
8.078057667E0,5.012925568E0,-7.177125092E0,-1.546134796E0,8.889942640E0
8.088065667E0,5.400619354E0,-7.065756683E0,-1.791474609E0,9.071989208E0
8.098074667E0,6.032605133E0,-7.067552948E0,-2.046394501E0,9.514744338E0
8.108082667E0,6.776109009E0,-7.176526337E0,-2.220632172E0,1.011678757E1
8.118090667E0,7.438032532E0,-7.159162445E0,-2.368374939E0,1.059184284E1
8.128099667E0,7.996072083E0,-7.083869019E0,-2.380499725E0,1.094464015E1
8.138107667E0,8.450676727E0,-7.048243103E0,-2.237247620E0,1.122928960E1
8.148115667E0,8.856482849E0,-7.057374115E0,-1.992805939E0,1.149848222E1
8.158124667E0,9.218130798E0,-7.061116333E0,-1.707798615E0,1.173668929E1
8.168132667E0,9.518106995E0,-7.037764893E0,-1.429826660E0,1.192346006E1
8.178140667E0,9.738149414E0,-7.123386841E0,-1.231339417E0,1.212808274E1
8.188149667E0,9.986333313E0,-7.313491516E0,-1.110540619E0,1.242768328E1
8.198157667E0,1.035112473E1,-7.628436584E0,-1.012045441E0,1.289818064E1
8.208165667E0,1.083581680E1,-7.942483521E0,-9.309141541E-1,1.346716642E1
8.218173667E0,1.127380600E1,-8.206534424E0,-7.704478455E-1,1.396565426E1
8.228182667E0,1.146450943E1,-8.423882446E0,-5.245092773E-1,1.423628750E1
8.238190667E0,1.131991013E1,-8.354127502E0,-4.269122314E-1,1.407529984E1
8.248198667E0,1.089599167E1,-7.841743011E0,-4.141886902E-1,1.343082723E1
8.258207667E0,1.035980667E1,-7.347620544E0,-3.610491943E-1,1.270604102E1
8.268215667E0,9.798473969E0,-6.885681152E0,-2.784210205E-1,1.197915754E1
8.278223667E0,9.161398773E0,-6.594386902E0,-1.257385254E-1,1.128862154E1
8.288232667E0,8.585695953E0,-6.319259033E0,-4.685256958E-2,1.066064749E1
8.298240667E0,7.926766205E0,-6.008804626E0,1.601669312E-2,9.946839299E0
8.308248667E0,7.294630737E0,-5.821544037E0,-4.340972900E-3,9.332846908E0
8.318257667E0,6.839876404E0,-5.847889252E0,-3.906875610E-2,8.999069079E0
8.328265667E0,6.457272034E0,-6.118975525E0,4.505630493E-2,8.896080803E0
8.338273667E0,6.039939880E0,-6.517596588E0,1.681004333E-1,8.887530411E0
8.348282667E0,5.672903137E0,-6.792724457E0,3.858975220E-1,8.858433973E0
8.358290667E0,5.445975037E0,-7.056026917E0,5.972579956E-1,8.933245606E0
8.368298667E0,5.290298767E0,-7.387737122E0,7.038363647E-1,9.113797587E0
8.378306667E0,5.228477325E0,-7.800578613E0,7.011419678E-1,9.416878565E0
8.388315667E0,5.234165497E0,-8.271050262E0,5.962101746E-1,9.806234112E0
8.398323667E0,5.110672302E0,-8.780890045E0,5.899232483E-1,1.017698437E1
8.408331667E0,4.859045563E0,-9.155411224E0,5.869294739E-1,1.038153961E1
8.418340667E0,4.676125946E0,-9.296867065E0,5.580395508E-1,1.042157854E1
8.428348667E0,4.517455902E0,-9.300010529E0,5.038522339E-1,1.035139946E1
8.438356667E0,4.389172668E0,-9.192234650E0,4.093986511E-1,1.019458787E1
8.448365667E0,4.339925079E0,-8.911717987E0,2.722837830E-1,9.916037799E0
8.458373667E0,4.335584106E0,-8.579259338E0,1.342707825E-1,9.613480586E0
8.468381667E0,4.422852631E0,-8.127798157E0,4.191284180E-2,9.253349932E0
8.478390667E0,4.540507965E0,-7.619006195E0,-1.428030396E-1,8.870505098E0
8.488398667E0,4.633764038E0,-7.298822021E0,-4.677772522E-1,8.658139963E0
8.498406667E0,4.632117462E0,-7.108118591E0,-8.875044250E-1,8.530505624E0
8.508415667E0,4.664599915E0,-6.913373566E0,-1.080153809E0,8.409515959E0
8.518423667E0,4.793930969E0,-6.676715698E0,-9.972262573E-1,8.279780605E0
8.528431667E0,4.996609497E0,-6.447841644E0,-9.065148926E-1,8.207468403E0
8.538439667E0,5.230423279E0,-6.209088135E0,-9.753717041E-1,8.176885293E0
8.548448667E0,5.404062195E0,-6.097120972E0,-1.068927155E0,8.217139260E0
8.558456667E0,5.659880219E0,-6.055208130E0,-1.080752563E0,8.358697009E0
8.568464667E0,6.032156067E0,-6.006409607E0,-1.127305756E0,8.586890092E0
8.578473667E0,6.446344757E0,-5.923931122E0,-1.139580231E0,8.828757770E0
8.588481667E0,6.743776245E0,-5.729036407E0,-9.237290955E-1,8.896833799E0
8.598489667E0,6.765032043E0,-5.516179047E0,-7.182064819E-1,8.758407982E0
8.608498667E0,6.764433289E0,-5.346581726E0,-4.373904419E-1,8.633354172E0
8.618506667E0,6.952142944E0,-5.044809265E0,-1.285826111E-1,8.590630101E0
8.628514667E0,7.552993469E0,-4.838388519E0,3.592529297E-1,8.977013784E0
8.638523667E0,8.158035278E0,-4.753065948E0,6.095324707E-1,9.461326828E0
8.648531667E0,8.488248596E0,-4.614603882E0,5.819897461E-1,9.679031216E0
8.658539667E0,8.745713196E0,-4.331093445E0,4.486170959E-1,9.769704552E0
8.668548667E0,8.971144409E0,-3.759881287E0,3.065625000E-1,9.732015201E0
8.678556667E0,9.174122314E0,-3.361110535E0,3.161425781E-1,9.775557805E0
8.688564667E0,9.316027222E0,-3.388503571E0,3.257226562E-1,9.918488539E0
8.698572667E0,9.457932129E0,-3.596121826E0,1.270857239E-1,1.011932424E1
8.708581667E0,9.588161316E0,-3.823498993E0,-1.845661926E-1,1.032405185E1
8.718589667E0,9.614506531E0,-4.055067444E0,-4.704716492E-1,1.044526933E1
8.728597667E0,9.532626801E0,-4.251009979E0,-6.577322388E-1,1.045823461E1
8.738606667E0,9.511371002E0,-4.405189362E0,-9.262738037E-1,1.052282542E1
8.748614667E0,9.642648010E0,-4.645439758E0,-1.386117554E0,1.079268702E1
8.758622667E0,9.731114044E0,-4.870721283E0,-1.997446289E0,1.106382836E1
8.768631667E0,9.716294861E0,-4.881049805E0,-2.751128998E0,1.121604849E1
8.778639667E0,9.718989258E0,-4.812642059E0,-3.510499878E0,1.139929319E1
8.788647667E0,9.586514740E0,-4.698429565E0,-4.112248535E0,1.144058973E1
8.798656667E0,9.359886017E0,-4.793930969E0,-4.488715668E0,1.143406353E1
8.808664667E0,9.346563721E0,-5.715714111E0,-4.452341309E0,1.182586083E1
8.818672667E0,9.450747070E0,-6.984924774E0,-4.026925964E0,1.242263768E1
8.828681667E0,9.589957581E0,-8.089777222E0,-3.436254272E0,1.300844439E1
8.838689667E0,9.584568787E0,-8.880433044E0,-2.688708801E0,1.333998519E1
8.848697667E0,9.580078125E0,-9.216035156E0,-1.567989349E0,1.338550677E1
8.858706667E0,9.385782166E0,-9.119934998E0,-5.318440247E-1,1.309767076E1
8.868714667E0,9.069340210E0,-8.840166779E0,2.516267395E-1,1.266747001E1
8.878722667E0,8.415948944E0,-8.735983429E0,6.001020813E-1,1.214519352E1
8.888730667E0,8.290060730E0,-8.415050812E0,8.467890930E-1,1.184294046E1
8.898739667E0,8.003556519E0,-8.034242706E0,8.836125183E-1,1.137482940E1
8.908747667E0,7.502548370E0,-7.573500824E0,4.785548401E-1,1.067123055E1
8.918755667E0,7.158114624E0,-7.098388824E0,1.124162292E-1,1.008158550E1
8.928764667E0,6.976242828E0,-6.640041962E0,7.738906860E-2,9.631412686E0
8.938772667E0,6.789431305E0,-6.298003235E0,2.561174011E-1,9.264276459E0
8.948780667E0,6.717580719E0,-6.112538910E0,4.691244507E-1,9.094454376E0
8.958789833E0,6.774312744E0,-6.063740387E0,6.801855469E-1,9.117176812E0
8.968797833E0,6.891668701E0,-6.160439301E0,8.684939575E-1,9.284416601E0
8.978805833E0,7.058571625E0,-6.325845337E0,1.026714935E0,9.533829040E0
8.988814833E0,7.229665833E0,-6.523584137E0,1.092877350E0,9.798959075E0
8.998822833E0,7.343728638E0,-6.752757568E0,1.063388672E0,1.003298961E1
9.008830833E0,7.310348053E0,-6.915319519E0,9.439370728E-1,1.010711877E1
9.018839833E0,7.156318359E0,-6.939718781E0,8.448431396E-1,1.000431653E1
9.028847833E0,6.935527496E0,-6.965764618E0,8.620573425E-1,9.867449581E0
9.038855833E0,6.700067139E0,-7.040758667E0,9.476792908E-1,9.765309944E0
9.048864833E0,6.514004059E0,-7.130272522E0,1.090033264E0,9.719115579E0
9.058872833E0,6.362519073E0,-7.090305634E0,1.306183777E0,9.615622653E0
9.068880833E0,6.246660004E0,-6.946454773E0,1.613494720E0,9.480367099E0
9.078888833E0,6.146817627E0,-6.803651733E0,1.821562042E0,9.348322423E0
9.088897833E0,6.078858948E0,-6.704707489E0,1.863175507E0,9.239970324E0
9.098905833E0,6.106251984E0,-6.656807098E0,1.564845886E0,9.167777085E0
9.108913833E0,6.259533234E0,-6.632707214E0,1.171164551E0,9.194900092E0
9.118922833E0,6.376440125E0,-6.655010834E0,9.181906128E-1,9.262355632E0
9.128930833E0,6.398594055E0,-6.710994415E0,7.635621643E-1,9.303895910E0
9.138938833E0,6.439010010E0,-6.703959045E0,8.035290527E-1,9.330036213E0
9.148947833E0,6.418652344E0,-6.699318695E0,9.440867615E-1,9.325838767E0
9.158955833E0,6.346652069E0,-6.716233521E0,1.034947815E0,9.298327923E0
9.168963833E0,6.313870239E0,-6.705156555E0,1.004561005E0,9.264622207E0
9.178972833E0,6.281387787E0,-6.712790680E0,9.294172668E-1,9.240195220E0
9.188980833E0,6.257886658E0,-6.711892548E0,8.584648132E-1,9.216702709E0
9.198988833E0,6.281986542E0,-6.699917450E0,8.036787415E-1,9.219444032E0
9.208996833E0,6.284980316E0,-6.699468384E0,7.128176880E-1,9.213683479E0
9.219005833E0,6.245612183E0,-6.750362549E0,6.451583862E-1,9.219072373E0
9.229013833E0,6.252198486E0,-6.843917999E0,5.804928589E-1,9.287958411E0
9.239021833E0,6.284381561E0,-7.035220184E0,5.191204834E-1,9.447606084E0
9.249030833E0,6.259982300E0,-7.060218201E0,4.287084961E-1,9.445520124E0
9.259038833E0,6.196514282E0,-7.020401001E0,3.493734741E-1,9.370425886E0
9.269046833E0,6.168372803E0,-6.973398743E0,3.155438232E-1,9.315400204E0
9.279055833E0,6.149661713E0,-7.017107849E0,3.526666260E-1,9.337157785E0
9.289063833E0,6.161337433E0,-7.047943726E0,4.087998962E-1,9.370309871E0
9.299071833E0,6.325246582E0,-7.125183105E0,4.881349182E-1,9.540191524E0
9.309080833E0,6.485114136E0,-7.219037933E0,5.694158936E-1,9.720876941E0
9.319088833E0,6.562952271E0,-7.277416534E0,6.216572571E-1,9.819347823E0
9.329096833E0,6.665339355E0,-7.196884003E0,5.730084229E-1,9.825997493E0
9.339105833E0,6.763535156E0,-7.073390808E0,4.773573303E-1,9.798272060E0
9.349113833E0,6.855294342E0,-7.015461273E0,3.980223083E-1,9.816831421E0
9.359121833E0,6.921905823E0,-6.989565125E0,3.390449524E-1,9.842852855E0
9.369130833E0,7.023993530E0,-6.928492126E0,3.264710999E-1,9.871528333E0
9.379138833E0,7.205416260E0,-6.893764343E0,3.415896606E-1,9.977910292E0
9.389146833E0,7.441625061E0,-6.928342438E0,3.263214111E-1,1.017281663E1
9.399154833E0,7.756719818E0,-7.063810730E0,2.772235107E-1,1.049480716E1
9.409163833E0,8.082891541E0,-7.236551514E0,2.020797729E-1,1.085088244E1
9.419171833E0,8.457263031E0,-7.512876892E0,1.022373962E-1,1.131278346E1
9.429179833E0,8.856931915E0,-7.838300171E0,-1.077758789E-2,1.182726971E1
9.439188833E0,9.294771423E0,-8.172854462E0,-7.319778442E-2,1.237714360E1
9.449196833E0,9.748477936E0,-8.493787079E0,-1.332229614E-2,1.292971069E1
9.459204833E0,1.024424698E1,-8.871900787E0,7.095245361E-2,1.355213098E1
9.469213833E0,1.050380722E1,-9.061556396E0,1.049317932E-1,1.387273517E1
9.479221833E0,1.046039749E1,-8.891210632E0,2.514770508E-2,1.372858968E1
9.489229833E0,1.020951920E1,-8.535250854E0,-2.345622253E-1,1.330938799E1
9.499238833E0,9.741292877E0,-8.016429749E0,-5.445675659E-1,1.262744973E1
9.509246833E0,9.213939514E0,-7.552095337E0,-7.731422424E-1,1.193853317E1
9.519254833E0,8.707692261E0,-7.201524353E0,-8.589138794E-1,1.133241327E1
9.529263833E0,8.232430573E0,-6.869963837E0,-7.945477295E-1,1.075177299E1
9.539271833E0,7.877967682E0,-6.661597137E0,-8.011340332E-1,1.034799821E1
9.549279833E0,7.699838104E0,-6.611900482E0,-7.342231750E-1,1.017564831E1
9.559287833E0,7.558531952E0,-6.629863129E0,-6.908134460E-1,1.007788240E1
9.569296833E0,7.380851440E0,-6.691834259E0,-7.387138367E-1,9.990160753E0
9.579304833E0,7.109615479E0,-6.683451691E0,-8.018824768E-1,9.790718782E0
9.589312833E0,6.771768036E0,-6.715634766E0,-8.345146179E-1,9.573557713E0
9.599321833E0,6.427933044E0,-6.771019592E0,-7.997868347E-1,9.370415600E0
9.609329833E0,6.137387238E0,-6.861730957E0,-6.719526672E-1,9.230514299E0
9.619337833E0,5.869294739E0,-7.006629639E0,-5.505551147E-1,9.156669185E0
9.629346833E0,5.708678741E0,-7.199578400E0,-4.938230896E-1,9.201456588E0
9.639354833E0,5.655988312E0,-7.414082336E0,-4.872367859E-1,9.337891644E0
9.649362833E0,5.676795044E0,-7.692503357E0,-4.799020386E-1,9.572403869E0
9.659371833E0,5.587580566E0,-8.015980682E0,-4.385879517E-1,9.781071632E0
9.669379833E0,5.315596161E0,-8.374185791E0,-2.276765442E-1,9.921410526E0
9.679387833E0,4.936284943E0,-8.586893463E0,4.430786133E-2,9.904726729E0
9.689396833E0,4.599485321E0,-8.605155487E0,2.276765442E-1,9.759907929E0
9.699404833E0,4.316723328E0,-8.460556183E0,3.746708679E-1,9.505550456E0
9.709412833E0,4.083657990E0,-8.326285400E0,3.776646423E-1,9.281482733E0
9.719421833E0,3.962410126E0,-8.163124695E0,3.055146790E-1,9.079132007E0
9.729429833E0,4.005969543E0,-8.047415314E0,1.616638184E-1,8.990818673E0
9.739437833E0,4.122277679E0,-7.854017487E0,-7.873626709E-2,8.870454517E0
9.749445833E0,4.185895386E0,-7.621999969E0,-2.775228882E-1,8.700208197E0
9.759454833E0,4.288282471E0,-7.457492065E0,-4.040098572E-1,8.612013610E0
9.769462833E0,4.353696442E0,-7.342680817E0,-5.080435181E-1,8.551476042E0
9.779470833E0,4.419559479E0,-7.334747314E0,-6.593788147E-1,8.588702147E0
9.789479833E0,4.439767456E0,-7.305258636E0,-7.611671448E-1,8.582407252E0
9.799487833E0,4.402494965E0,-7.249574432E0,-8.713380432E-1,8.526284147E0
9.809495833E0,4.534221039E0,-7.015461273E0,-1.094074860E0,8.424538985E0
9.819504833E0,4.733157349E0,-6.718478851E0,-1.414259033E0,8.339116570E0
9.829512833E0,4.972958679E0,-6.551725616E0,-1.631457367E0,8.385527993E0
9.839520833E0,5.175936584E0,-6.443051605E0,-1.543440399E0,8.407463457E0
9.849529833E0,5.355712738E0,-6.468648376E0,-1.327589264E0,8.502326976E0
9.859537833E0,5.481900330E0,-6.450386353E0,-1.055604858E0,8.530710225E0
9.869545833E0,5.725443878E0,-6.355932770E0,-7.629634094E-1,8.588405099E0
9.879554833E0,6.043981476E0,-6.211782532E0,-3.695814514E-1,8.674822462E0
9.889562833E0,6.321953430E0,-6.055357819E0,6.975494385E-2,8.754388570E0
9.899570833E0,6.559808807E0,-5.960904236E0,2.281256104E-1,8.866538907E0
9.909579833E0,6.687193909E0,-5.969885559E0,9.041198730E-2,8.964723659E0
9.919587833E0,6.854695587E0,-6.039939880E0,-2.847079468E-1,9.140502391E0
9.929595833E0,7.150779877E0,-6.091582489E0,-6.703060913E-1,9.417554901E0
9.939603833E0,7.528145142E0,-6.203998718E0,-7.861651611E-1,9.786757636E0
9.949612833E0,7.839198303E0,-6.291117554E0,-7.042854309E-1,1.007607106E1
9.959620292E0,8.083190918E0,-6.272256775E0,-6.475534058E-1,1.025175623E1
9.969628292E0,8.262817383E0,-6.097719727E0,-7.581733704E-1,1.029714348E1
9.979637292E0,8.408614197E0,-5.829178162E0,-1.051114197E0,1.028537563E1
9.989645292E0,8.525072021E0,-5.558840332E0,-1.410217438E0,1.027454486E1
9.999653292E0,8.709787903E0,-5.342091064E0,-1.803150330E0,1.037543702E1
1.000966229E1,8.886270905E0,-5.054539032E0,-2.297871552E0,1.047828178E1
1.001967029E1,9.156908112E0,-4.809947662E0,-2.925216980E0,1.074902121E1
1.002967829E1,9.418264618E0,-4.533023529E0,-3.612886963E0,1.105915742E1
1.003968729E1,9.635462952E0,-4.253554688E0,-4.064797211E0,1.128970549E1
1.004969529E1,9.642049255E0,-4.049528961E0,-3.973936157E0,1.118749155E1
1.005970329E1,9.506131897E0,-4.020040283E0,-3.407663727E0,1.086919682E1
1.006971229E1,9.350305939E0,-4.153263245E0,-2.616858215E0,1.056057591E1
1.007972029E1,9.253157959E0,-4.373155975E0,-1.735640717E0,1.038064902E1
1.008972829E1,9.212592316E0,-4.762496338E0,-1.036594391E0,1.042246403E1
1.009973729E1,9.343120880E0,-5.231770477E0,-7.372169495E-1,1.073353711E1
1.010974529E1,9.759554901E0,-5.646408234E0,-6.896159363E-1,1.129630063E1
1.011975329E1,1.041399399E1,-6.271957397E0,-7.738906860E-1,1.218144602E1
1.012976129E1,1.130509094E1,-7.245083771E0,-7.973918152E-1,1.345110233E1
1.013977029E1,1.215696945E1,-8.479566650E0,-5.593867493E-1,1.483266228E1
1.014977829E1,1.281155823E1,-9.722881165E0,-2.041754150E-1,1.608453077E1
1.015978629E1,1.293460236E1,-1.056952057E1,4.879852295E-2,1.670392422E1
1.016979529E1,1.226130249E1,-1.076785812E1,1.929487610E-1,1.631942207E1
1.017980329E1,1.087054459E1,-1.021071671E1,6.242019653E-2,1.491413328E1
1.018981129E1,9.466763763E0,-9.373208313E0,-2.041754150E-1,1.332360078E1
1.019982029E1,8.239316254E0,-8.911268921E0,-4.318519592E-1,1.214428023E1
1.020982829E1,7.055877228E0,-8.736881561E0,-4.504133606E-1,1.123927823E1
1.021983629E1,5.912704468E0,-8.413703613E0,-2.899470520E-1,1.028759213E1
1.022984529E1,4.790488129E0,-7.919132080E0,-5.583389282E-2,9.255514401E0
1.023985329E1,3.879183197E0,-7.425159302E0,1.865121460E-1,8.379489227E0
1.024986129E1,3.342698822E0,-7.113208008E0,2.917433167E-1,7.864888921E0
1.025987029E1,3.032843170E0,-6.911726990E0,2.314187622E-1,7.551401348E0
1.026987829E1,2.836900635E0,-6.760691071E0,1.703457642E-1,7.333755289E0
1.027988629E1,2.892135773E0,-6.743925934E0,6.346801758E-2,7.338188776E0
1.028989529E1,3.226839752E0,-6.764283600E0,8.382568359E-3,7.494537856E0
1.029990329E1,3.713477783E0,-6.619235229E0,1.317260742E-2,7.589754000E0
1.030991129E1,4.266128540E0,-6.613996124E0,4.565505981E-2,7.870634144E0
1.031991929E1,4.841831360E0,-6.798562317E0,1.622625732E-1,8.348060232E0
1.032992829E1,5.405259705E0,-7.007378082E0,3.478765869E-1,8.856703573E0
1.033993629E1,5.883066101E0,-7.157366180E0,4.511618042E-1,9.275877552E0
1.034994429E1,6.181545410E0,-7.270530853E0,5.005590820E-1,9.556290177E0
1.035995329E1,6.425538025E0,-7.328310699E0,4.659809875E-1,9.757500443E0
1.036996129E1,6.511159973E0,-7.322921906E0,4.004173279E-1,9.807177141E0
1.037996929E1,6.515500946E0,-7.245383148E0,2.905458069E-1,9.748422765E0
1.038997829E1,6.569089508E0,-7.155719604E0,1.685494995E-1,9.715228714E0
1.039998629E1,6.627318420E0,-7.061415710E0,5.284011841E-2,9.684406712E0
1.040999429E1,6.607260132E0,-6.939868469E0,1.451980591E-2,9.582164246E0
1.042000329E1,6.545887756E0,-6.817123718E0,3.876937866E-2,9.451101807E0
1.043001129E1,6.485862579E0,-6.756799164E0,-1.152603149E-2,9.365942621E0
1.044001929E1,6.480024719E0,-6.749614105E0,-1.254391479E-1,9.357550209E0
1.045002829E1,6.424490204E0,-6.665938110E0,-2.007325745E-1,9.260080930E0
1.046003629E1,6.407874756E0,-6.619085541E0,-2.278262329E-1,9.215479210E0
1.047004429E1,6.365363159E0,-6.576124878E0,-1.197509766E-1,9.153010808E0
1.048005229E1,6.308032379E0,-6.604116669E0,-1.466949463E-2,9.132680037E0
1.049006129E1,6.212231598E0,-6.640191650E0,7.484436035E-3,9.093075530E0
1.050006929E1,6.128705292E0,-6.653364258E0,4.490661621E-4,9.045898778E0
1.051007729E1,6.073769531E0,-6.689439240E0,-8.981323242E-4,9.035445449E0
1.052008629E1,5.987099762E0,-6.674620056E0,-7.259902954E-2,8.966670902E0
1.053009429E1,5.880671082E0,-6.604266357E0,-1.242416382E-1,8.843871464E0
1.054010229E1,5.780679016E0,-6.505621490E0,-5.927673340E-2,8.703038239E0
1.055011129E1,5.634882202E0,-6.464008026E0,4.251159668E-2,8.575377801E0
1.056011929E1,5.477409668E0,-6.363566895E0,8.217910767E-2,8.396651338E0
1.057012729E1,5.351072388E0,-6.374045105E0,1.020877075E-1,8.323031215E0
1.058013629E1,5.395230560E0,-6.484365692E0,6.062393188E-2,8.435590465E0
1.059014429E1,5.768105164E0,-6.631060638E0,-9.295669556E-2,8.789234513E0
1.060015229E1,5.935906219E0,-6.720574493E0,-2.071691895E-1,8.969059217E0
1.061016129E1,6.017636261E0,-6.841223602E0,-1.796264648E-1,9.112988106E0
1.062016929E1,6.255641327E0,-6.963070221E0,-1.950444031E-1,9.362448271E0
1.063017729E1,6.510860596E0,-7.028035126E0,-2.676434326E-1,9.584164879E0
1.064018629E1,6.803801422E0,-7.057673492E0,-2.326162720E-1,9.805946117E0
1.065019429E1,7.122339020E0,-7.047195282E0,-1.160087585E-1,1.002018625E1
1.066020229E1,7.506739655E0,-7.062164154E0,-3.173400879E-2,1.030661486E1
1.067021029E1,7.952512665E0,-7.079827423E0,-5.388793945E-3,1.064736789E1
1.068021929E1,8.343050537E0,-7.085814972E0,-5.538482666E-2,1.094615611E1
1.069022729E1,8.657995605E0,-7.132667542E0,-1.330732727E-1,1.121844653E1
1.070023529E1,8.968599701E0,-7.195387115E0,-2.383044434E-1,1.150070282E1
1.071024429E1,9.290879517E0,-7.328161011E0,-2.890489197E-1,1.183663530E1
1.072025229E1,9.723180542E0,-7.624544678E0,-3.409909058E-1,1.236083315E1
1.073026029E1,1.029783554E1,-8.061036987E0,-3.420387268E-1,1.308215290E1
1.074026929E1,1.098760117E1,-8.569230194E0,-3.603007507E-1,1.393875540E1
1.075027729E1,1.162781982E1,-8.948242035E0,-4.176315308E-1,1.467827120E1
1.076028529E1,1.191507248E1,-9.104816437E0,-4.409829712E-1,1.500203655E1
1.077029429E1,1.165820663E1,-8.754993896E0,-4.718188477E-1,1.458719689E1
1.078030229E1,1.106319397E1,-8.012388153E0,-6.490502930E-1,1.367530223E1
1.079031029E1,1.030142807E1,-7.047494659E0,-9.235794067E-1,1.251557430E1
1.080031929E1,9.646240540E0,-6.387367401E0,-1.072968750E0,1.161893630E1
1.081032729E1,9.195527802E0,-6.137686615E0,-1.198856964E0,1.112052996E1
1.082033529E1,8.783434753E0,-6.043831787E0,-1.246907043E0,1.073458923E1
1.083034429E1,8.528814240E0,-6.284231873E0,-1.115031281E0,1.065248972E1
1.084035229E1,8.141270142E0,-6.669530640E0,-1.054107971E0,1.057705356E1
1.085036029E1,7.757168884E0,-6.945556641E0,-1.231938171E0,1.048485087E1
1.086036829E1,7.444918213E0,-6.948400726E0,-1.068029022E0,1.023951981E1
1.087037729E1,7.127129059E0,-7.058122559E0,-7.176077271E-1,1.005624301E1
1.088038529E1,6.743776245E0,-6.933282166E0,-5.836363220E-1,9.689662068E0
1.089039329E1,6.326444092E0,-6.787036285E0,-5.201683044E-1,9.292918350E0
1.090040229E1,6.022276611E0,-6.885082397E0,-4.064048767E-1,9.156273266E0
1.091041029E1,5.898334351E0,-7.025041351E0,-3.635939026E-1,9.180073781E0
1.092041829E1,5.799689484E0,-7.164251862E0,-3.713777161E-1,9.225010799E0
1.093042729E1,5.681285706E0,-7.351811829E0,-2.683918762E-1,9.295062056E0
1.094043529E1,5.478158112E0,-7.603887634E0,-1.164578247E-1,9.372453568E0
1.095044329E1,5.208718414E0,-7.897277527E0,6.481521606E-2,9.460546542E0
1.096044883E1,4.888833618E0,-8.124055939E0,1.815724182E-1,9.483351074E0
1.097045683E1,4.652175751E0,-8.517886963E0,2.022294617E-1,9.707627634E0
1.098046483E1,4.508324890E0,-9.201814728E0,2.239343262E-1,1.024931872E1
1.099047383E1,4.190386047E0,-9.751471710E0,4.216731262E-1,1.062206872E1
1.100048183E1,3.730991364E0,-9.687704315E0,3.772155762E-1,1.038817612E1
1.101048983E1,3.481759644E0,-9.487271118E0,8.981323242E-2,1.010638560E1
1.102049783E1,3.534899139E0,-9.418713684E0,5.912704468E-2,1.006037650E1
1.103050683E1,3.639531555E0,-9.223070526E0,-2.170486450E-2,9.915225210E0
1.104051483E1,3.662284241E0,-8.895701294E0,-4.730163574E-1,9.631696208E0
1.105052283E1,3.676654358E0,-8.200846252E0,-1.058898010E0,9.049471339E0
1.106053183E1,3.637286224E0,-7.462581482E0,-1.363813934E0,8.413082782E0
1.107053983E1,3.723506927E0,-7.126081238E0,-1.503473511E0,8.179606974E0
1.108054783E1,3.889661407E0,-6.995552673E0,-1.558858337E0,8.154585360E0
1.109055683E1,4.004472656E0,-6.919510803E0,-1.564995575E0,8.146449666E0
1.110056483E1,4.047583008E0,-6.754703522E0,-1.684746552E0,8.052783296E0
1.111057283E1,3.980372772E0,-6.482419739E0,-1.826651459E0,7.823157203E0
1.112058183E1,4.065545654E0,-6.296206970E0,-1.824256439E0,7.713546217E0
1.113058983E1,4.447401581E0,-6.191424866E0,-1.791773987E0,7.830937154E0
1.114059783E1,5.023852844E0,-5.816753998E0,-1.560953979E0,7.842850362E0
1.115060683E1,5.571713562E0,-5.445675659E0,-1.151854706E0,7.875667887E0
1.116061483E1,5.776338043E0,-5.546865234E0,-5.197192383E-1,8.025204247E0
1.117062283E1,5.969286804E0,-5.949527893E0,2.421963501E-1,8.431365617E0
1.118063183E1,6.399941254E0,-6.043682098E0,7.719447327E-1,8.836358980E0
1.119063983E1,6.809489594E0,-5.909411316E0,9.747729492E-1,9.068653314E0
1.120064783E1,7.121141510E0,-5.800886993E0,8.387059021E-1,9.223034962E0
1.121065583E1,7.354356537E0,-5.803731079E0,4.836442566E-1,9.381032261E0
1.122066483E1,7.561675415E0,-5.763614502E0,2.564167786E-1,9.511253165E0
1.123067283E1,7.818092194E0,-5.763614502E0,1.451980591E-1,9.714056833E0
1.124068083E1,8.080346832E0,-5.827531586E0,1.149609375E-1,9.963199553E0
1.125068983E1,8.148455200E0,-5.690865784E0,1.248403931E-1,9.939761599E0
1.126069783E1,8.166268158E0,-5.440885620E0,9.026229858E-2,9.813221655E0
1.127070583E1,8.224497070E0,-5.157375183E0,-2.529739380E-2,9.707806693E0
1.128071483E1,8.286767578E0,-4.785698090E0,-9.729766846E-2,9.569894980E0
1.129072283E1,8.453820190E0,-4.630919952E0,-6.271957397E-2,9.639316841E0
1.130073083E1,8.673413544E0,-4.355343018E0,-6.137237549E-2,9.705713877E0
1.131073983E1,9.143885193E0,-3.811523895E0,-1.416055298E-1,9.907492263E0
1.132074783E1,9.948911133E0,-3.814966736E0,-3.382965088E-1,1.066064015E1
1.133075583E1,1.073612411E1,-4.142036591E0,-6.704557800E-1,1.152693971E1
1.134076483E1,1.138966507E1,-4.532724152E0,-1.164129181E0,1.231362073E1
1.135077283E1,1.208901077E1,-4.849615173E0,-2.002086639E0,1.317844072E1
1.136078083E1,1.295436127E1,-5.165308685E0,-3.259621582E0,1.432204673E1
1.137078983E1,1.394095963E1,-5.830525360E0,-4.817432098E0,1.586042349E1
1.138079783E1,1.477936615E1,-7.134314117E0,-5.969735870E0,1.746327140E1
1.139080583E1,1.433958069E1,-8.501720581E0,-5.835016022E0,1.766211310E1
1.140081383E1,1.316871552E1,-9.067094879E0,-4.262536011E0,1.654679700E1
1.141082283E1,1.196836166E1,-8.895701294E0,-2.588417358E0,1.513522669E1
1.142083083E1,1.090003326E1,-8.563392334E0,-1.711391144E0,1.396679180E1
1.143083883E1,1.023212219E1,-8.328231354E0,-1.705553284E0,1.330280700E1
1.144084783E1,9.636211395E0,-8.233328705E0,-1.803599396E0,1.280223584E1
1.145085583E1,8.835227051E0,-8.124804382E0,-1.829645233E0,1.214171672E1
1.146086383E1,7.980953522E0,-7.819289703E0,-1.733096008E0,1.130665876E1
1.147087283E1,7.193890228E0,-7.315287781E0,-1.279988251E0,1.033943238E1
1.148088083E1,6.470444641E0,-6.662345581E0,-5.535488892E-1,9.303758320E0
1.149088883E1,5.932762756E0,-6.060896301E0,4.191284180E-2,8.481385181E0
1.150089783E1,5.592819672E0,-5.651797028E0,3.379971313E-1,7.958434744E0
1.151090583E1,5.347330170E0,-5.636379089E0,4.692741394E-1,7.783503543E0
1.152091383E1,5.163063354E0,-5.837860107E0,4.474195862E-1,7.806280684E0
1.153092283E1,5.057083740E0,-6.120622101E0,4.507127380E-1,7.952311163E0
1.154093083E1,5.007985840E0,-6.482270050E0,4.490661621E-1,8.203743511E0
1.155093883E1,5.029541016E0,-6.800508270E0,3.989204407E-1,8.467723016E0
1.156094783E1,5.021607513E0,-7.235803070E0,4.188290405E-1,8.817528330E0
1.157095583E1,5.097350006E0,-7.530240784E0,6.319857788E-1,9.115202103E0
1.158096383E1,5.302872620E0,-7.659871216E0,1.077609100E0,9.378450108E0
1.159097183E1,5.416186981E0,-7.624394989E0,1.443298645E0,9.463064585E0
1.160098083E1,5.465135193E0,-7.675139465E0,1.474882965E0,9.536810172E0
1.161098883E1,5.472170563E0,-7.780969391E0,1.345402222E0,9.607197430E0
1.162099683E1,5.426515503E0,-7.792046356E0,1.202000427E0,9.571199609E0
1.163100583E1,5.443130951E0,-7.731721802E0,1.055305481E0,9.514245437E0
1.164101383E1,5.374872894E0,-7.698640594E0,9.351054382E-1,9.435716603E0
1.165102183E1,5.364394684E0,-7.524552612E0,9.075627136E-1,9.285434423E0
1.166103083E1,5.434449005E0,-7.306905212E0,8.596623230E-1,9.146754566E0
1.167103883E1,5.456303558E0,-7.203619995E0,8.144563293E-1,9.073407776E0
1.168104683E1,5.488935699E0,-7.150779877E0,8.800199890E-1,9.057400463E0
1.169105583E1,5.573210449E0,-7.047195282E0,1.005459137E0,9.040718120E0
1.170106383E1,5.671855316E0,-6.975494385E0,1.056652679E0,9.052291396E0
1.171107183E1,5.752537537E0,-6.952592010E0,9.949809265E-1,9.078557750E0
1.172108083E1,5.883664856E0,-6.900949402E0,8.533753967E-1,9.108724628E0
1.173108883E1,5.982908478E0,-6.812034302E0,7.011419678E-1,9.093437482E0
1.174109683E1,6.008355560E0,-6.751110992E0,5.620811462E-1,9.055041214E0
1.175110583E1,5.959856415E0,-6.738537140E0,3.930825806E-1,9.004570239E0
1.176111383E1,5.899082794E0,-6.684200134E0,2.046244812E-1,8.917375198E0
1.177112183E1,5.854924622E0,-6.564299469E0,2.380050659E-2,8.796063683E0
1.178113083E1,5.758525085E0,-6.383625183E0,-9.684860229E-2,8.597712561E0
1.179113883E1,5.640720062E0,-6.273603973E0,-1.431024170E-1,8.437790465E0
1.180114683E1,5.624853058E0,-6.259832611E0,-1.742376709E-1,8.417531408E0
1.181115483E1,5.666915588E0,-6.278244324E0,-1.263372803E-1,8.458501356E0
1.182116383E1,5.694907379E0,-6.341412964E0,-6.256988525E-2,8.523461939E0
1.183117183E1,5.740861816E0,-6.467899933E0,1.362167358E-2,8.648202674E0
1.184117983E1,5.803880768E0,-6.560856628E0,8.442443848E-2,8.759965705E0
1.185118883E1,5.956712952E0,-6.602470093E0,1.576222229E-1,8.893811628E0
1.186119683E1,6.133195953E0,-6.655908966E0,2.399510193E-1,9.053993222E0
1.187120483E1,6.340963898E0,-6.779551849E0,2.088157654E-1,9.285135995E0
1.188121383E1,6.645281067E0,-6.973398743E0,6.840774536E-2,9.632898323E0
1.189122183E1,6.984475708E0,-7.168892212E0,-1.219963074E-1,1.000953543E1
1.190122983E1,7.304360504E0,-7.266339569E0,-3.258723450E-1,1.030822807E1
1.191123883E1,7.551646271E0,-7.285050659E0,-4.698728943E-1,1.050333780E1
1.192124683E1,7.772886200E0,-7.268584900E0,-5.019062805E-1,1.065373156E1
1.193125483E1,8.016729126E0,-7.275320892E0,-4.483177185E-1,1.083509247E1
1.194126383E1,8.265661469E0,-7.322921906E0,-3.978726196E-1,1.105009717E1
1.195127183E1,8.497978363E0,-7.412884827E0,-3.531156921E-1,1.128233967E1
1.196128054E1,8.820407867E0,-7.572153625E0,-2.944377136E-1,1.162857683E1
1.197128854E1,9.270970917E0,-7.890092468E0,-2.888992310E-1,1.217735290E1
1.198129754E1,9.882149963E0,-8.364306335E0,-3.147953796E-1,1.295058317E1
1.199130554E1,1.059870987E1,-8.976383514E0,-3.372486877E-1,1.389323031E1
1.200131354E1,1.115779724E1,-9.489366760E0,-3.182382202E-1,1.465079508E1
1.201132254E1,1.135314102E1,-9.711504822E0,-2.740800476E-1,1.494263219E1
1.202133054E1,1.097412918E1,-9.394613800E0,-2.764750671E-1,1.444876182E1
1.203133854E1,1.008782227E1,-8.522976379E0,-4.546046448E-1,1.321408150E1
1.204134754E1,9.155560913E0,-7.605085144E0,-7.222480774E-1,1.192406214E1
1.205135554E1,8.440348206E0,-7.077881470E0,-8.807684326E-1,1.105041343E1
1.206136354E1,7.950117645E0,-6.925198975E0,-9.006770325E-1,1.058177540E1
1.207137254E1,7.522007904E0,-6.839876404E0,-8.276289368E-1,1.020046478E1
1.208138054E1,7.063062286E0,-6.660998383E0,-7.170089722E-1,9.734980749E0
1.209138854E1,6.607110443E0,-6.562952271E0,-6.303392029E-1,9.334001201E0
1.210139754E1,6.208190002E0,-6.501430206E0,-6.011499023E-1,9.009528236E0
1.211140554E1,5.938001862E0,-6.594237213E0,-5.978567505E-1,8.893889094E0
1.212141354E1,5.793103180E0,-6.878795471E0,-6.388714600E-1,9.015876459E0
1.213142254E1,5.734724579E0,-7.338339844E0,-6.707551575E-1,9.337462725E0
1.214143054E1,5.742209015E0,-7.879913635E0,-6.652166748E-1,9.772845875E0
1.215143854E1,5.714067535E0,-8.418343964E0,-6.032455444E-1,1.019230043E1
1.216144654E1,5.600753174E0,-8.847501526E0,-4.227209473E-1,1.047976204E1
1.217145554E1,5.373376007E0,-9.081614685E0,-1.875599670E-1,1.055386535E1
1.218146354E1,5.136718140E0,-9.457782440E0,-3.712280273E-2,1.076275523E1
1.219147154E1,4.941673737E0,-1.002734802E1,2.386038208E-1,1.118144800E1
1.220148054E1,4.561763763E0,-1.036369858E1,6.827302551E-1,1.134381142E1
1.221148854E1,4.188739471E0,-1.048808990E1,8.515791321E-1,1.132566798E1
1.222149654E1,3.885619812E0,-1.022239243E1,4.102967834E-1,1.094365988E1
1.223150554E1,3.821253662E0,-9.804012451E0,-4.135899353E-1,1.053051263E1
1.224151354E1,3.869453430E0,-8.942553864E0,-1.307381287E0,9.831133469E0
1.225152154E1,4.060306549E0,-7.546107788E0,-1.770368500E0,8.750087808E0
1.226153054E1,4.200415192E0,-6.566993866E0,-2.112706604E0,8.076659298E0
1.227153854E1,4.558769989E0,-6.308930511E0,-3.397335205E0,8.492754236E0
1.228154654E1,4.791386261E0,-6.398743744E0,-4.210594025E0,9.034954667E0
1.229155554E1,4.614753571E0,-6.572232971E0,-4.362977142E0,9.139243201E0
1.230156354E1,4.302203522E0,-6.683601379E0,-4.176914062E0,8.979203396E0
1.231157154E1,4.160597992E0,-6.740183716E0,-3.996838531E0,8.872168304E0
1.232158054E1,4.191733246E0,-6.580615540E0,-3.895050201E0,8.720466992E0
1.233158854E1,4.468058624E0,-6.129154358E0,-3.458258514E0,8.336044204E0
1.234159654E1,4.686005402E0,-5.730233917E0,-2.794538727E0,7.912248357E0
1.235160554E1,4.577181702E0,-6.045478363E0,-2.032323761E0,7.850397496E0
1.236161354E1,4.424948273E0,-6.605912933E0,-1.415905609E0,8.076078355E0
1.237162154E1,4.521347809E0,-6.742429047E0,-1.129700775E0,8.196289362E0
1.238162954E1,4.901407471E0,-6.582711182E0,-9.502239990E-1,8.261888848E0
1.239163854E1,5.497617645E0,-6.506669312E0,-8.524772644E-1,8.560798023E0
1.240164654E1,5.983357544E0,-6.507417755E0,-6.902146912E-1,8.866986504E0
1.241165454E1,6.306834869E0,-6.449188843E0,-5.520520020E-1,9.037309567E0
1.242166354E1,6.538702698E0,-6.322103119E0,-4.623884583E-1,9.106998622E0
1.243167154E1,6.722221069E0,-6.189628601E0,-3.665876770E-1,9.145170575E0
1.244167954E1,6.872807922E0,-6.027515717E0,-2.568658447E-1,9.145075971E0
1.245168854E1,6.993906097E0,-5.883814545E0,-2.052232361E-1,9.141997193E0
1.246169654E1,7.097490692E0,-5.727539520E0,-2.043251038E-1,9.122545250E0
1.247170454E1,7.229216766E0,-5.639821930E0,-1.374142456E-1,9.169953606E0
1.248171354E1,7.445067902E0,-5.609884186E0,-1.040336609E-1,9.322588677E0
1.249172154E1,7.661368103E0,-5.614524536E0,-7.125183105E-2,9.498659053E0
1.250172954E1,7.933951263E0,-5.713319092E0,-1.511856079E-2,9.777004974E0
1.251173854E1,8.172555084E0,-5.761518860E0,-5.987548828E-4,9.999287801E0
1.252174654E1,8.408015442E0,-5.851332092E0,1.945953369E-2,1.024369023E1
1.253175454E1,8.558452606E0,-5.875431976E0,1.348695374E-1,1.038200374E1
1.254176254E1,8.687484283E0,-5.838458862E0,2.008822632E-1,1.046901804E1
1.255177154E1,8.779393158E0,-5.651946716E0,1.489402771E-1,1.044243406E1
1.256177954E1,8.901090088E0,-5.449567566E0,1.257385254E-2,1.043682660E1
1.257178754E1,9.141340485E0,-5.438939667E0,-1.577719116E-1,1.063818887E1
1.258179654E1,9.569450226E0,-5.697601776E0,-3.237767029E-1,1.114189728E1
1.259180454E1,1.017494110E1,-6.167175293E0,-5.423222351E-1,1.191039844E1
1.260181254E1,1.084659439E1,-6.723568268E0,-8.214916992E-1,1.278787820E1
1.261182154E1,1.153995255E1,-7.403304749E0,-1.066532135E0,1.375197865E1
1.262182954E1,1.193827423E1,-7.972870331E0,-1.243913269E0,1.440959309E1
1.263183754E1,1.167212769E1,-8.070916443E0,-1.242715759E0,1.424509036E1
1.264184654E1,1.053105057E1,-7.551945648E0,-1.191222839E0,1.301360523E1
1.265185454E1,9.118288422E0,-6.757547607E0,-1.246008911E0,1.141753790E1
1.266186254E1,7.990383911E0,-6.102060699E0,-1.601669312E0,1.018070353E1
1.267187154E1,7.121889954E0,-5.782175903E0,-2.119891663E0,9.415349986E0
1.268187954E1,6.549180908E0,-5.772296448E0,-2.592009888E0,9.106574115E0
1.269188754E1,6.233487396E0,-6.036497040E0,-2.734363861E0,9.097934236E0
1.270189654E1,6.150559845E0,-6.658453674E0,-2.573598175E0,9.422727806E0
1.271190454E1,6.292315063E0,-7.476652222E0,-2.306254120E0,1.004053611E1
1.272191254E1,6.610852661E0,-8.272696838E0,-2.130818939E0,1.080191072E1
1.273192154E1,6.915918274E0,-8.965007172E0,-2.013912048E0,1.150030960E1
1.274192954E1,7.199877777E0,-9.599537659E0,-1.814826050E0,1.213601899E1
1.275193754E1,7.280260620E0,-1.018796402E1,-1.552421722E0,1.261771845E1
1.276194554E1,7.133565674E0,-1.065499283E1,-1.180894318E0,1.287676756E1
1.277195454E1,6.785988464E0,-1.098251175E1,-7.105723572E-1,1.292942833E1
1.278196254E1,6.160439301E0,-1.109268265E1,-3.885919189E-1,1.269447220E1
1.279197054E1,5.504653015E0,-1.087593338E1,-1.478924561E-1,1.219052927E1
1.280197954E1,4.944517822E0,-1.038211029E1,-2.784210205E-1,1.150278179E1
1.281198754E1,4.568799133E0,-1.021146515E1,8.397537231E-2,1.118726946E1
1.282199554E1,4.347858582E0,-9.562265167E0,4.040098572E-1,1.051208891E1
1.283200454E1,4.271966400E0,-8.955127716E0,3.281176758E-1,9.927319404E0
1.284201254E1,4.322112122E0,-8.371042328E0,-6.107299805E-2,9.421185316E0
1.285202054E1,4.326902161E0,-7.813751221E0,-4.845423889E-1,8.944918768E0
1.286202954E1,4.276906128E0,-7.377707977E0,-8.167016602E-1,8.566767338E0
1.287203754E1,4.213587799E0,-7.044051819E0,-9.964778137E-1,8.268370831E0
1.288204554E1,4.248315582E0,-6.783892822E0,-1.002465363E0,8.066865805E0
1.289205454E1,4.354594574E0,-6.725364532E0,-7.887098694E-1,8.050781655E0
1.290206254E1,4.449946289E0,-6.810088348E0,-4.778063965E-1,8.149087326E0
1.291207054E1,4.591551819E0,-6.937323761E0,-1.359173584E-1,8.320293420E0
1.292207954E1,4.783153381E0,-7.168293457E0,1.176553345E-1,8.618400671E0
1.293208754E1,4.932991791E0,-7.391479340E0,3.153941345E-1,8.892010363E0
1.294209554E1,5.115013275E0,-7.544910278E0,4.340972900E-1,9.125649148E0
1.295210354E1,5.351820831E0,-7.537575531E0,4.320016479E-1,9.254385799E0
1.296211533E1,5.698200531E0,-7.489525452E0,3.640429688E-1,9.417802720E0
1.297212333E1,6.035000153E0,-7.409741364E0,3.162922668E-1,9.561670080E0
1.298213133E1,6.308032379E0,-7.303911438E0,1.947450256E-1,9.652788220E0
1.299214033E1,6.525829468E0,-7.122039642E0,2.230361938E-2,9.659730657E0
1.300214833E1,6.690037994E0,-6.889573059E0,-9.026229858E-2,9.603695777E0
1.301215633E1,6.791077881E0,-6.679709473E0,-4.236190796E-2,9.525704801E0
1.302216533E1,6.853198700E0,-6.537954254E0,8.592132568E-2,9.471988214E0
1.303217333E1,7.013665009E0,-6.433022461E0,2.176473999E-1,9.519592703E0
1.304218133E1,7.223528595E0,-6.448590088E0,3.200344849E-1,9.688451969E0
1.305219033E1,7.399712219E0,-6.405629425E0,4.231700134E-1,9.796269806E0
1.306219833E1,7.510032806E0,-6.339167633E0,4.773573303E-1,9.839385603E0
1.307220633E1,7.561076660E0,-6.232738953E0,4.812492371E-1,9.810632800E0
1.308221533E1,7.446864166E0,-5.852978668E0,4.978646851E-1,9.484778039E0
1.309222333E1,7.330106964E0,-5.578898621E0,5.986051941E-1,9.231083691E0
1.310223133E1,7.319329376E0,-5.489384766E0,5.990542603E-1,9.168685491E0
1.311223933E1,7.403304749E0,-5.540428619E0,5.161267090E-1,9.261298897E0
1.312224833E1,7.539371796E0,-5.732179871E0,3.872447205E-1,9.478922492E0
1.313225633E1,7.652087402E0,-5.942342834E0,3.219804382E-1,9.693789320E0
1.314226433E1,7.681576080E0,-6.090534668E0,3.170407104E-1,9.808248489E0
1.315227333E1,7.696694641E0,-6.195616150E0,4.138893127E-1,9.889189665E0
1.316228133E1,7.674989777E0,-6.290219421E0,5.801934814E-1,9.940269258E0
1.317228933E1,7.741900635E0,-6.431226196E0,7.102729797E-1,1.008970681E1
1.318229833E1,7.884404297E0,-6.630312195E0,7.526348877E-1,1.032914954E1
1.319230633E1,8.044571228E0,-6.845265198E0,7.812254333E-1,1.059165214E1
1.320231433E1,8.188571777E0,-7.027286682E0,7.988887024E-1,1.082005957E1
1.321232333E1,8.344697113E0,-7.123386841E0,8.020321655E-1,1.100090294E1
1.322233133E1,8.513396301E0,-7.233707428E0,7.985893250E-1,1.120009753E1
1.323233933E1,8.743018799E0,-7.418572998E0,7.789801025E-1,1.149271130E1
1.324234833E1,8.966054993E0,-7.586673431E0,7.276368713E-1,1.176763406E1
1.325235633E1,9.144034882E0,-7.702981567E0,6.396199036E-1,1.197323735E1
1.326236433E1,9.166937256E0,-7.692054291E0,5.542973328E-1,1.197946925E1
1.327237333E1,8.953032074E0,-7.532486115E0,4.171824646E-1,1.170765440E1
1.328238133E1,8.628357239E0,-7.367379456E0,3.041674805E-1,1.134986108E1
1.329238933E1,8.283025360E0,-7.267537079E0,2.586621094E-1,1.102236410E1
1.330239833E1,7.886050873E0,-7.118147736E0,1.634600830E-1,1.062471387E1
1.331240633E1,7.421866150E0,-6.954687653E0,2.529739380E-2,1.017115615E1
1.332241433E1,6.914271698E0,-6.809788971E0,-8.367599487E-2,9.705018321E0
1.333242233E1,6.482419739E0,-6.727460175E0,-2.040257263E-1,9.344630146E0
1.334243133E1,6.129304047E0,-6.755601654E0,-3.246748352E-1,9.127537212E0
1.335243933E1,5.859714661E0,-6.956932983E0,-5.117857361E-1,9.110274259E0
1.336244733E1,5.755681000E0,-7.341333618E0,-5.858816528E-1,9.346994189E0
1.337245633E1,5.861361237E0,-7.863747253E0,-4.899311829E-1,9.820087015E0
1.338246433E1,5.981112213E0,-8.527167664E0,-3.082090759E-1,1.042023438E1
1.339247233E1,5.964646454E0,-9.280550995E0,-2.571652222E-1,1.103502461E1
1.340248133E1,5.822591858E0,-1.000923569E1,-2.643502808E-1,1.158262734E1
1.341248933E1,5.668412476E0,-1.057535843E1,-2.480342102E-1,1.200127605E1
1.342249733E1,5.520070953E0,-1.089958420E1,-4.364923096E-1,1.222549159E1
1.343250633E1,5.574707336E0,-1.055530014E1,-8.622070313E-1,1.196808773E1
1.344251433E1,6.149961090E0,-9.453291779E0,-1.687291260E0,1.140323194E1
1.345252233E1,6.605014801E0,-8.436456299E0,-2.762954407E0,1.106498678E1
1.346253133E1,6.492149506E0,-7.688461761E0,-3.736080780E0,1.073399968E1
1.347253933E1,6.266269226E0,-7.081174622E0,-4.312382355E0,1.039258416E1
1.348254733E1,6.156397705E0,-6.486461334E0,-4.404889984E0,9.968875018E0
1.349255633E1,6.072721710E0,-6.059249725E0,-4.641547852E0,9.753790169E0
1.350256433E1,5.717809753E0,-5.732628937E0,-4.376000061E0,9.203573189E0
1.351257233E1,5.246589661E0,-5.737718353E0,-3.768862610E0,8.640164370E0
1.352258033E1,4.907993774E0,-5.966891785E0,-3.009940796E0,8.291679206E0
1.353258933E1,4.784650269E0,-6.064638519E0,-2.251468048E0,8.046230604E0
1.354259733E1,4.734354858E0,-6.125112762E0,-1.716181183E0,7.929464051E0
1.355260533E1,4.650828552E0,-6.238876190E0,-1.385369110E0,7.903988228E0
1.356261433E1,4.563709717E0,-6.451284485E0,-1.164877625E0,7.987706665E0
1.357262233E1,4.659061432E0,-6.738387451E0,-9.834548950E-1,8.251054623E0
1.358263033E1,4.808151398E0,-6.992858276E0,-8.053253174E-1,8.524490343E0
1.359263933E1,5.038971405E0,-7.227270813E0,-6.405180359E-1,8.833738709E0
1.360264733E1,5.305267639E0,-7.441924438E0,-4.727169800E-1,9.151588136E0
1.361265533E1,5.623056793E0,-7.593110046E0,-3.528163147E-1,9.455081556E0
1.362266433E1,5.986650696E0,-7.653135223E0,-2.665956116E-1,9.720161445E0
1.363267233E1,6.373146973E0,-7.623347168E0,-1.574725342E-1,9.937666828E0
1.364268033E1,6.717580719E0,-7.477550354E0,-6.721023560E-2,1.005207278E1
1.365268933E1,7.050189056E0,-7.367229767E0,3.607498169E-2,1.019718302E1
1.366269733E1,7.343878326E0,-7.268584900E0,1.767823792E-1,1.033422118E1
1.367270533E1,7.571554871E0,-7.071145477E0,3.526666260E-1,1.036599804E1
1.368271433E1,7.700885925E0,-6.742578735E0,4.836442566E-1,1.024694705E1
1.369272233E1,7.818241882E0,-6.452032928E0,4.677772522E-1,1.014753421E1
1.370273033E1,7.928113403E0,-6.201603699E0,3.637435913E-1,1.007209908E1
1.371273933E1,8.102201385E0,-6.020779724E0,1.695973206E-1,1.009575252E1
1.372274733E1,8.198900299E0,-5.805677032E0,-5.388793945E-3,1.004628692E1
1.373275533E1,8.221952362E0,-5.620811462E0,-1.315763855E-1,9.960488667E0
1.374276333E1,8.230185242E0,-5.406008148E0,-2.177970886E-1,9.849279607E0
1.375277233E1,8.182434540E0,-5.264402618E0,-2.386038208E-1,9.732579397E0
1.376278033E1,8.146060181E0,-5.108277283E0,-2.676434326E-1,9.618961808E0
1.377278833E1,8.130642242E0,-4.894821167E0,-3.248245239E-1,9.495900616E0
1.378279733E1,8.212072906E0,-4.872068481E0,-3.806584167E-1,9.556154747E0
1.379280533E1,8.382418671E0,-4.944218445E0,-5.194198608E-1,9.745770149E0
1.380281333E1,8.569978638E0,-5.094805298E0,-7.274871826E-1,9.996540025E0
1.381282233E1,8.820258179E0,-5.386099548E0,-1.007405090E0,1.038373188E1
1.382283033E1,9.195527802E0,-5.851481781E0,-1.368903351E0,1.098505653E1
1.383283833E1,9.701625366E0,-6.447392578E0,-1.700763245E0,1.177212816E1
1.384284733E1,1.013078293E1,-7.125332794E0,-1.983674927E0,1.254344835E1
1.385285533E1,1.015862503E1,-7.772437134E0,-2.116448822E0,1.296486780E1
1.386286333E1,9.863887939E0,-8.142767029E0,-2.134411469E0,1.296752299E1
1.387287233E1,9.322613525E0,-8.298742676E0,-2.343676300E0,1.269933351E1
1.388288033E1,8.720565491E0,-8.328081665E0,-2.940634918E0,1.241179038E1
1.389288833E1,8.131240997E0,-8.141120453E0,-3.728446655E0,1.209529813E1
1.390289633E1,7.438182220E0,-7.850724335E0,-4.335284729E0,1.165139996E1
1.391290533E1,6.613696747E0,-7.446564789E0,-4.648882599E0,1.099110646E1
1.392291333E1,5.905070343E0,-7.103178864E0,-4.478387146E0,1.026552274E1
1.393292133E1,5.554948425E0,-6.614894257E0,-3.605552216E0,9.360250254E0
1.394293033E1,5.441334686E0,-5.980962524E0,-2.414329376E0,8.438543845E0
1.395293833E1,5.303471375E0,-5.484744415E0,-1.383273468E0,7.753881313E0
1.396294608E1,5.069058838E0,-5.258864136E0,-7.873626709E-1,7.346492325E0
1.397295508E1,4.863536224E0,-5.288801880E0,-6.243516541E-1,7.212158132E0
1.398296308E1,4.792583771E0,-5.538931732E0,-6.271957397E-1,7.351326304E0
1.399297108E1,5.016667786E0,-5.964646454E0,-6.358776855E-1,7.819738066E0
1.400298008E1,5.410648499E0,-6.592440948E0,-6.587800598E-1,8.553910568E0
1.401298808E1,5.745053101E0,-7.310048676E0,-5.641767883E-1,9.314544660E0
1.402299608E1,6.073170776E0,-7.938741302E0,-3.778143311E-1,1.000248771E1
1.403300508E1,6.325995026E0,-8.470884705E0,-2.091151428E-1,1.057439501E1
1.404301308E1,6.502478027E0,-8.883875885E0,-1.167572021E-2,1.100934183E1
1.405302108E1,6.652017059E0,-9.277257843E0,1.992356873E-1,1.141737881E1
1.406303008E1,6.659651184E0,-9.566905518E0,3.701802063E-1,1.166248981E1
1.407303808E1,6.487808533E0,-9.642947388E0,4.761598206E-1,1.163206010E1
1.408304608E1,6.205046539E0,-9.527687073E0,5.487588501E-1,1.138334572E1
1.409305508E1,5.881419525E0,-9.220974884E0,6.150709534E-1,1.095425879E1
1.410306308E1,5.632187805E0,-8.754993896E0,6.545887756E-1,1.043072117E1
1.411307108E1,5.475912781E0,-8.286917267E0,6.279441833E-1,9.952533972E0
1.412307908E1,5.434898071E0,-7.962242432E0,5.053491211E-1,9.653538176E0
1.413308808E1,5.531147919E0,-7.695048065E0,3.402424622E-1,9.482780550E0
1.414309608E1,5.650599518E0,-7.405999146E0,2.484832764E-1,9.318789739E0
1.415310408E1,5.838758240E0,-7.212152252E0,1.498384094E-1,9.280554371E0
1.416311308E1,6.046675873E0,-7.043453064E0,1.224453735E-1,9.283723016E0
1.417312108E1,6.214027863E0,-6.910529480E0,1.401086426E-1,9.294578549E0
1.418312908E1,6.371650085E0,-6.749913483E0,9.160949707E-2,9.282653130E0
1.419313808E1,6.425238647E0,-6.570287018E0,-1.257385254E-2,9.189805290E0
1.420314608E1,6.439758453E0,-6.364614716E0,-7.035369873E-2,9.054488338E0
1.421315408E1,6.512956238E0,-6.258335724E0,-1.178050232E-1,9.033229932E0
1.422316308E1,6.569388885E0,-6.236181793E0,-1.841171265E-1,9.059841765E0
1.423317108E1,6.576274567E0,-6.152505798E0,-2.257305908E-1,9.008422119E0
1.424317908E1,6.609954529E0,-6.070775757E0,-2.401007080E-1,8.977943279E0
1.425318808E1,6.687942352E0,-6.019881592E0,-2.612068176E-1,9.001987352E0
1.426319608E1,6.753506012E0,-6.028862915E0,-2.754272461E-1,9.057201095E0
1.427320408E1,6.832242279E0,-6.102360077E0,-2.857557678E-1,9.165150813E0
1.428321308E1,6.915169830E0,-6.140081635E0,-2.561174011E-1,9.251257881E0
1.429322108E1,6.959777069E0,-6.040538635E0,-2.893482971E-1,9.220104462E0
1.430322908E1,7.053033142E0,-5.965843964E0,-3.200344849E-1,9.243321523E0
1.431323708E1,7.121440887E0,-6.001918945E0,-3.218307495E-1,9.318880103E0
1.432324608E1,7.209308167E0,-6.013444977E0,-3.180885315E-1,9.393445856E0
1.433325408E1,7.293882294E0,-6.008505249E0,-3.496728516E-1,9.456485888E0
1.434326208E1,7.408693542E0,-6.053112488E0,-3.772155762E-1,9.574507945E0
1.435327108E1,7.594756622E0,-6.174360352E0,-3.751199341E-1,9.795089018E0
1.436327908E1,7.848928070E0,-6.389313354E0,-3.990701294E-1,1.012858598E1
1.437328708E1,8.086783447E0,-6.615792389E0,-4.123924255E-1,1.045633028E1
1.438329608E1,8.206235046E0,-6.722370758E0,-3.626957703E-1,1.061433514E1
1.439330408E1,8.260871429E0,-6.692732391E0,-3.014730835E-1,1.063604953E1
1.440331208E1,8.374335480E0,-6.665039978E0,-2.992277527E-1,1.070709064E1
1.441332108E1,8.504714355E0,-6.741979980E0,-3.351530457E-1,1.085802873E1
1.442332908E1,8.625962219E0,-6.845564575E0,-4.290078735E-1,1.102057287E1
1.443333708E1,8.727451172E0,-6.940616913E0,-4.978646851E-1,1.116191903E1
1.444334608E1,8.813222809E0,-7.011868744E0,-4.933740234E-1,1.127309263E1
1.445335408E1,8.908574524E0,-7.065157928E0,-4.927752686E-1,1.138077256E1
1.446336208E1,8.962163086E0,-7.125033417E0,-5.221142578E-1,1.146119853E1
1.447337108E1,9.119485931E0,-7.256310425E0,-6.072871399E-1,1.166995554E1
1.448337908E1,9.361532593E0,-7.472460938E0,-6.839277649E-1,1.199765486E1
1.449338708E1,9.691895599E0,-7.794441376E0,-7.479945374E-1,1.245976133E1
1.450339608E1,1.002046234E1,-8.080945587E0,-7.792794800E-1,1.289645779E1
1.451340408E1,1.022912842E1,-8.278534698E0,-7.393125916E-1,1.318012853E1
1.452341208E1,1.026879593E1,-8.226443024E0,-6.792874146E-1,1.317512679E1
1.453342008E1,1.008872040E1,-7.986791382E0,-6.747967529E-1,1.288512579E1
1.454342908E1,9.710606689E0,-7.603588257E0,-8.451425171E-1,1.236222887E1
1.455343708E1,9.303603058E0,-7.143744507E0,-1.092877350E0,1.178068319E1
1.456344508E1,9.019942932E0,-6.886579285E0,-1.272054749E0,1.141939000E1
1.457345408E1,8.737180939E0,-6.804250488E0,-1.303788757E0,1.115060629E1
1.458346208E1,8.531059570E0,-6.854545898E0,-1.301094360E0,1.102073606E1
1.459347008E1,8.275690613E0,-6.893464966E0,-1.250649261E0,1.084301793E1
1.460347908E1,7.842641144E0,-6.867119751E0,-1.148112488E0,1.048725493E1
1.461348708E1,7.362439728E0,-6.729256439E0,-1.022673340E0,1.002667800E1
1.462349508E1,6.889423370E0,-6.534062347E0,-9.303153992E-1,9.540629533E0
1.463350408E1,6.422993317E0,-6.380182343E0,-9.050180054E-1,9.098385981E0
1.464351208E1,6.018833771E0,-6.303092651E0,-9.183403015E-1,8.763485941E0
1.465352008E1,5.698200531E0,-6.328240356E0,-9.012757874E-1,8.563201116E0
1.466352908E1,5.485492859E0,-6.448739777E0,-8.339158630E-1,8.507190622E0
1.467353708E1,5.326972504E0,-6.566694489E0,-7.768844604E-1,8.491269753E0
1.468354508E1,5.212909698E0,-6.742578735E0,-7.881111145E-1,8.559083751E0
1.469355408E1,4.985831909E0,-7.113208008E0,-7.337741089E-1,8.717492325E0
1.470356208E1,4.851710815E0,-7.545958099E0,-6.692582703E-1,8.996026240E0
1.471357008E1,4.828509064E0,-8.028105469E0,-5.454656982E-1,9.384162724E0
1.472357908E1,4.693789215E0,-8.678952026E0,-2.179467773E-1,9.869314377E0
1.473358708E1,4.649331665E0,-9.468859406E0,5.029541016E-2,1.054884415E1
1.474359508E1,4.410578156E0,-1.000414627E1,3.983216858E-1,1.094051198E1
1.475360308E1,3.918401642E0,-1.007375153E1,5.168751526E-1,1.082134470E1
1.476361208E1,3.435505829E0,-9.792336731E0,3.787124634E-1,1.038441053E1
1.477362008E1,3.165467377E0,-9.389225006E0,2.647993469E-1,9.912005278E0
1.478362808E1,3.046614532E0,-9.060209198E0,3.240760803E-1,9.564218532E0
1.479363708E1,3.215164032E0,-9.126970367E0,3.622467041E-2,9.676785627E0
1.480364508E1,3.506308594E0,-8.864715729E0,-7.306306458E-1,9.560920774E0
1.481365308E1,3.837120667E0,-7.896678772E0,-1.381626892E0,8.887627552E0
1.482366208E1,4.157604218E0,-7.020251312E0,-1.783840485E0,8.351747613E0
1.483367008E1,4.448299713E0,-6.565796356E0,-1.982178040E0,8.174722130E0
1.484367808E1,4.501738586E0,-6.455176392E0,-1.950893097E0,8.108078467E0
1.485368708E1,4.444557495E0,-6.555617523E0,-1.780846710E0,8.117981735E0
1.486369508E1,4.543202362E0,-6.622977448E0,-1.623074799E0,8.193832423E0
1.487370308E1,4.649631042E0,-6.550228729E0,-1.494941254E0,8.170643462E0
1.488371208E1,4.849764862E0,-6.407725067E0,-1.374142456E0,8.152755807E0
1.489372008E1,5.306315460E0,-6.111640778E0,-1.400487671E0,8.214043004E0
1.490372808E1,5.944288788E0,-5.643713837E0,-1.459614716E0,8.325656141E0
1.491373708E1,6.218069458E0,-5.610932007E0,-1.438059540E0,8.497938633E0
1.492374508E1,6.277645569E0,-6.181695099E0,-1.403481445E0,8.921431968E0
1.493375308E1,6.652615814E0,-6.521189117E0,-1.351240082E0,9.413238254E0
1.494376108E1,7.039561157E0,-6.483766937E0,-1.181493073E0,9.643162389E0
1.495377008E1,7.352859650E0,-6.444548492E0,-9.922865295E-1,9.827582758E0
1.496377479E1,7.673792267E0,-6.325246582E0,-7.550299072E-1,9.973259359E0
1.497378279E1,7.872578888E0,-6.177653503E0,-4.818479919E-1,1.001863657E1
1.498379179E1,7.958200836E0,-6.052962799E0,-3.215313721E-1,1.000373438E1
1.499379979E1,8.083041229E0,-5.962999878E0,-2.351609802E-1,1.004729933E1
1.500380779E1,8.149203644E0,-5.815406799E0,-4.117936707E-1,1.001988275E1
1.501381679E1,8.112829285E0,-5.553152161E0,-6.321354675E-1,9.851654337E0
1.502382479E1,8.098010101E0,-5.379213867E0,-8.351133728E-1,9.757618755E0
1.503383279E1,8.215964813E0,-5.234165497E0,-9.253756714E-1,9.785442575E0
1.504384179E1,8.383316803E0,-5.002746735E0,-1.053509216E0,9.819234042E0
1.505384979E1,8.652906189E0,-4.746928711E0,-1.339564362E0,9.959947308E0
1.506385779E1,8.881031799E0,-4.552333374E0,-1.906734924E0,1.016032003E1
1.507386679E1,9.065747681E0,-4.488565979E0,-2.674188995E0,1.046356977E1
1.508387479E1,9.272018738E0,-4.536316681E0,-3.390599213E0,1.086483610E1
1.509388279E1,9.360784149E0,-4.619393921E0,-3.817661133E0,1.111474771E1
1.510389179E1,9.488318939E0,-4.617747345E0,-3.912264404E0,1.125422586E1
1.511389979E1,9.599837036E0,-4.698728943E0,-3.688629456E0,1.130667555E1
1.512390779E1,9.654922485E0,-4.806953888E0,-3.249742126E0,1.126433122E1
1.513391579E1,9.849517822E0,-4.953948212E0,-3.037932587E0,1.143606745E1
1.514392479E1,1.018003052E1,-5.189258881E0,-3.099604340E0,1.183929796E1
1.515393279E1,1.060364960E1,-5.675148468E0,-3.285667419E0,1.246757014E1
1.516394079E1,1.099418747E1,-6.530469818E0,-3.297343140E0,1.320574367E1
1.517394979E1,1.110615463E1,-7.666008453E0,-3.149001617E0,1.385750943E1
1.518395779E1,1.099388809E1,-8.772507477E0,-2.868784332E0,1.435452494E1
1.519396579E1,1.074405762E1,-9.649982758E0,-2.384691010E0,1.463706571E1
1.520397479E1,1.031040939E1,-1.001926483E1,-1.645378418E0,1.447057289E1
1.521398279E1,9.590855713E0,-9.836195526E0,-8.241860962E-1,1.376279544E1
1.522399079E1,8.716374207E0,-9.412875824E0,-3.629951477E-1,1.283390728E1
1.523399979E1,7.923023987E0,-8.855435028E0,-3.125500488E-1,1.188657756E1
1.524400779E1,7.209607544E0,-8.240962830E0,-3.508703613E-1,1.095513666E1
1.525401579E1,6.583759003E0,-7.581733704E0,-3.341052246E-1,1.004689976E1
1.526402479E1,6.050867157E0,-6.989265747E0,-2.357597351E-1,9.247616541E0
1.527403279E1,5.609435120E0,-6.557413788E0,-1.477427673E-1,8.630600551E0
1.528404079E1,5.316643982E0,-6.267616425E0,-1.541793823E-2,8.218878061E0
1.529404979E1,5.187612305E0,-6.224506073E0,9.999206543E-2,8.103443446E0
1.530405779E1,5.137765961E0,-6.355334015E0,1.306782532E-1,8.173370560E0
1.531406579E1,5.132227478E0,-6.531966705E0,2.496807861E-1,8.310757392E0
1.532407479E1,5.256618805E0,-6.691834259E0,5.828878784E-1,8.529504399E0
1.533408279E1,5.502257996E0,-6.805148621E0,9.725276184E-1,8.805151945E0
1.534409079E1,5.754932556E0,-6.970854034E0,1.206341400E0,9.119611520E0
1.535409879E1,6.030060425E0,-7.133565674E0,1.166374512E0,9.413278783E0
1.536410779E1,6.294710083E0,-7.299570465E0,9.924362183E-1,9.689790176E0
1.537411579E1,6.482569427E0,-7.324119415E0,7.917036438E-1,9.812911202E0
1.538412379E1,6.627318420E0,-7.191794586E0,7.349716187E-1,9.807315744E0
1.539413279E1,6.700067139E0,-7.032825165E0,8.327183533E-1,9.749099923E0
1.540414079E1,6.727160797E0,-6.928043060E0,9.854008484E-1,9.706878379E0
1.541414879E1,6.756649475E0,-6.837182007E0,1.067579956E0,9.671561243E0
1.542415779E1,6.809639282E0,-6.759044495E0,1.014590149E0,9.648070419E0
1.543416579E1,6.835834808E0,-6.708449707E0,8.649014282E-1,9.616651677E0
1.544417379E1,6.823560333E0,-6.679410095E0,7.262896729E-1,9.576167894E0
1.545418279E1,6.781497803E0,-6.724316711E0,5.766009521E-1,9.567529271E0
1.546419079E1,6.779252472E0,-6.761289825E0,4.779560852E-1,9.586539845E0
1.547419879E1,6.756649475E0,-6.716233521E0,3.363505554E-1,9.532745487E0
1.548420779E1,6.653364258E0,-6.694378967E0,2.333647156E-1,9.441208863E0
1.549421579E1,6.547085266E0,-6.620582428E0,1.832189941E-1,9.312894629E0
1.550422379E1,6.440506897E0,-6.611002350E0,1.749861145E-1,9.231256756E0
1.551423279E1,6.331383820E0,-6.726262665E0,1.410067749E-1,9.238447565E0
1.552424079E1,6.237528992E0,-6.759343872E0,2.634521484E-2,9.197618799E0
1.553424879E1,6.127058716E0,-6.763535156E0,-1.163081360E-1,9.126871529E0
1.554425779E1,6.023773499E0,-6.825655975E0,-2.673440552E-1,9.107518844E0
1.555426579E1,5.912105713E0,-6.705904999E0,-3.480262756E-1,8.946690902E0
1.556427379E1,5.883066101E0,-6.629114685E0,-3.445834351E-1,8.869857158E0
1.557428179E1,5.909561005E0,-6.628366241E0,-2.297721863E-1,8.883183301E0
1.558429079E1,5.937552795E0,-6.724017334E0,-7.020401001E-2,8.970611513E0
1.559429879E1,5.993536377E0,-6.845115509E0,4.176315308E-2,9.098342090E0
1.560430679E1,6.055208130E0,-6.954987030E0,1.435514832E-1,9.222689256E0
1.561431579E1,6.063890076E0,-7.092550964E0,1.987866211E-1,9.333517994E0
1.562432379E1,5.985752563E0,-7.127727814E0,2.438429260E-1,9.310918156E0
1.563433179E1,5.882018280E0,-7.061266022E0,2.505789185E-1,9.193606837E0
1.564434079E1,5.847889252E0,-6.936575317E0,2.082170105E-1,9.075088989E0
1.565434879E1,5.953868866E0,-6.913822632E0,1.032852173E-1,9.124700855E0
1.566435679E1,6.170169067E0,-7.049290924E0,-5.942642212E-2,9.368405433E0
1.567436579E1,6.417155457E0,-7.229067078E0,-2.275268555E-1,9.669077693E0
1.568437379E1,6.744225311E0,-7.408992920E0,-3.174897766E-1,1.002389899E1
1.569438179E1,7.076534271E0,-7.596702576E0,-3.016227722E-1,1.038644326E1
1.570439079E1,7.342231750E0,-7.714956665E0,-3.285667419E-1,1.065536858E1
1.571439879E1,7.494614868E0,-7.677833862E0,-4.492158508E-1,1.073872337E1
1.572440679E1,7.606132965E0,-7.575596466E0,-5.402265930E-1,1.074870994E1
1.573441579E1,7.708969116E0,-7.502398682E0,-5.242098999E-1,1.076981833E1
1.574442379E1,7.862100677E0,-7.510930939E0,-5.043013000E-1,1.088489919E1
1.575443179E1,8.200546875E0,-7.735164642E0,-5.176235962E-1,1.128493134E1
1.576444079E1,8.759334869E0,-8.194709015E0,-6.069877625E-1,1.201031379E1
1.577444879E1,9.488169250E0,-8.874595184E0,-6.944059753E-1,1.301022656E1
1.578445679E1,1.024424698E1,-9.632918243E0,-7.619155884E-1,1.408255039E1
1.579446479E1,1.080857346E1,-1.024724075E1,-7.189549255E-1,1.491134130E1
1.580447379E1,1.108010880E1,-1.053509216E1,-5.580395508E-1,1.529929364E1
1.581448179E1,1.090212891E1,-1.026670029E1,-3.535647583E-1,1.497953796E1
1.582448979E1,1.022149429E1,-9.332942047E0,-3.215313721E-1,1.384507621E1
1.583449879E1,9.316775665E0,-8.197553101E0,-5.272036743E-1,1.242095525E1
1.584450679E1,8.518036652E0,-7.259453888E0,-7.803273010E-1,1.121898078E1
1.585451479E1,7.863447876E0,-6.625372467E0,-1.001118164E0,1.033109919E1
1.586452379E1,7.411537628E0,-6.256539459E0,-1.157243500E0,9.768028897E0
1.587453179E1,7.044051819E0,-6.028862915E0,-1.221759338E0,9.351927606E0
1.588453979E1,6.683751068E0,-5.851930847E0,-1.260678406E0,8.972565576E0
1.589454879E1,6.276897125E0,-5.687273254E0,-1.305734711E0,8.570265908E0
1.590455679E1,5.868396606E0,-5.575306091E0,-1.261726227E0,8.192317731E0
1.591456479E1,5.488187256E0,-5.635480957E0,-1.107247467E0,7.943855608E0
1.592457379E1,5.157225494E0,-5.683231659E0,-9.129515076E-1,7.728491272E0
1.593458179E1,4.842280426E0,-5.709127808E0,-7.334747314E-1,7.521954881E0
1.594458979E1,4.629423065E0,-5.813161469E0,-6.707551575E-1,7.461522409E0
1.595459879E1,4.527784424E0,-5.955066376E0,-6.587800598E-1,7.509836116E0
1.596461104E1,4.543651428E0,-6.171366577E0,-6.840774536E-1,7.694055868E0
1.597461904E1,4.662204895E0,-6.488856354E0,-7.050338745E-1,8.021127354E0
1.598462704E1,4.854704590E0,-6.837780762E0,-6.547384644E-1,8.411425852E0
1.599463604E1,5.003495178E0,-7.142097931E0,-5.213658142E-1,8.735922914E0
1.600464404E1,5.112019501E0,-7.389084320E0,-3.784130859E-1,8.993025460E0
1.601465204E1,5.180277557E0,-7.674840088E0,-2.742297363E-1,9.263565615E0
1.602466104E1,5.240153046E0,-7.898175659E0,-2.089654541E-1,9.480719870E0
1.603466904E1,5.202730865E0,-8.027207336E0,-5.074447632E-2,9.565931271E0
1.604467704E1,5.050647125E0,-8.097111969E0,1.851649475E-1,9.544974839E0
1.605468604E1,4.934338989E0,-7.954907684E0,2.915936279E-1,9.365537057E0
1.606469404E1,4.952750702E0,-7.741601257E0,2.670446777E-1,9.194207002E0
1.607470204E1,5.023254089E0,-7.594606934E0,1.610650635E-1,9.106979635E0
1.608471104E1,5.087470551E0,-7.420818329E0,-7.409591675E-2,8.997576978E0
1.609471904E1,5.138065338E0,-7.197931824E0,-3.447331238E-1,8.850354732E0
1.610472704E1,5.218897247E0,-7.035968628E0,-4.715194702E-1,8.772917053E0
1.611473604E1,5.309458923E0,-6.815776520E0,-5.340893555E-1,8.656235618E0
1.612474404E1,5.391937408E0,-6.567442932E0,-5.616320801E-1,8.515851471E0
1.613475204E1,5.512586517E0,-6.337221680E0,-5.800437927E-1,8.419349116E0
1.614476104E1,5.576353912E0,-6.195466461E0,-5.519023132E-1,8.353689232E0
1.615476904E1,5.641169128E0,-6.152356110E0,-5.165757751E-1,8.363081093E0
1.616477704E1,5.737568665E0,-6.053860931E0,-5.953120422E-1,8.362016670E0
1.617478604E1,5.940696259E0,-5.884113922E0,-6.622229004E-1,8.387681912E0
1.618479404E1,6.071374512E0,-5.814209290E0,-7.415579224E-1,8.438988463E0
1.619480204E1,6.152954865E0,-5.789211273E0,-7.653584290E-1,8.482900109E0
1.620481004E1,6.258934479E0,-5.789959717E0,-7.869136047E-1,8.562542108E0
1.621481904E1,6.463409271E0,-5.865402832E0,-7.565267944E-1,8.760761530E0
1.622482704E1,6.763834534E0,-6.022725677E0,-5.927673340E-1,9.076015387E0
1.623483504E1,7.116800537E0,-6.093678131E0,-3.074606323E-1,9.374235707E0
1.624484404E1,7.387138367E0,-6.114335175E0,-7.679031372E-2,9.589619629E0
1.625485204E1,7.588619385E0,-6.028114471E0,-6.406677246E-2,9.691718774E0
1.626486004E1,7.791447601E0,-5.852679291E0,-2.254312134E-1,9.747375536E0
1.627486904E1,7.933202820E0,-5.709127808E0,-5.409750366E-1,9.788896837E0
1.628487704E1,8.083939362E0,-5.541326752E0,-8.231382751E-1,9.835341092E0
1.629488504E1,8.305179291E0,-5.342689819E0,-1.107846222E0,9.937185759E0
1.630489404E1,8.605155487E0,-5.134173431E0,-1.502425690E0,1.013240942E1
1.631490204E1,8.970395966E0,-4.860392761E0,-2.167941742E0,1.043031126E1
1.632491004E1,9.507030029E0,-4.566703491E0,-3.154540100E0,1.100861136E1
1.633491904E1,9.995763702E0,-4.237537994E0,-4.389621735E0,1.171071301E1
1.634492704E1,1.044797333E1,-4.014352112E0,-5.677543488E0,1.255028564E1
1.635493504E1,1.060484711E1,-3.907025299E0,-6.337071991E0,1.295708726E1
1.636494404E1,1.057281372E1,-3.946243744E0,-6.027515717E0,1.279406798E1
1.637495204E1,1.058059753E1,-4.176015930E0,-5.103038177E0,1.246712284E1
1.638496004E1,1.060499680E1,-4.657863922E0,-3.958967285E0,1.224071384E1
1.639496904E1,1.080647781E1,-5.536985779E0,-2.824027405E0,1.246648728E1
1.640497704E1,1.111393845E1,-6.851252747E0,-2.010618896E0,1.320991598E1
1.641498504E1,1.160895905E1,-8.327033844E0,-1.704804840E0,1.438797353E1
1.642499304E1,1.221639587E1,-9.488618317E0,-1.414259033E0,1.553300790E1
1.643500204E1,1.233854187E1,-1.011970596E1,-1.222807159E0,1.600447817E1
1.644501004E1,1.172167465E1,-1.005653732E1,-1.151255951E0,1.548731706E1
1.645501804E1,1.080647781E1,-9.501192169E0,-8.922944641E-1,1.441696240E1
1.646502704E1,9.783654785E0,-8.771609344E0,-6.831793213E-1,1.315780245E1
1.647503504E1,8.857830048E0,-8.133935394E0,-6.083349609E-1,1.204126777E1
1.648504304E1,7.990383911E0,-7.383246460E0,-4.625381470E-1,1.088910028E1
1.649505204E1,7.181915131E0,-6.616840210E0,-2.158511353E-1,9.767756704E0
1.650506004E1,6.578819275E0,-6.069578247E0,1.199006653E-1,8.951816537E0
1.651506804E1,6.222560120E0,-5.816155243E0,4.842430115E-1,8.531260607E0
1.652507704E1,5.973777466E0,-5.776787109E0,7.306306458E-1,8.342128485E0
1.653508504E1,5.724845123E0,-5.876180420E0,9.110055542E-1,8.254288530E0
1.654509304E1,5.603148193E0,-6.164181519E0,1.202150116E0,8.416505710E0
1.655510204E1,5.509143677E0,-6.571334839E0,1.382974091E0,8.685949744E0
1.656511004E1,5.456303558E0,-6.976392517E0,1.472937012E0,8.978354221E0
1.657511804E1,5.475164337E0,-7.474257202E0,1.652264099E0,9.411265690E0
