"Time (s)","Acceleration x (m/s^2)","Acceleration y (m/s^2)","Acceleration z (m/s^2)","Absolute acceleration (m/s^2)"
-2.916669473E-6,-1.175206146E0,4.090543671E0,8.737031250E0,9.718506679E0
1.007708337E-2,-1.140927429E0,4.039350128E0,8.880732422E0,9.822701930E0
2.015708340E-2,-1.146914978E0,4.022135925E0,8.889863434E0,9.824594813E0
3.023708332E-2,-1.208886108E0,4.062252502E0,8.764124908E0,9.735152101E0
4.031708336E-2,-1.255439301E0,4.115242310E0,8.661438446E0,9.671187262E0
5.039708340E-2,-1.282383270E0,4.133953400E0,8.623417511E0,9.648699764E0
6.047708332E-2,-1.355281677E0,4.109853516E0,8.709338837E0,9.725238677E0
7.055708335E-2,-1.351838837E0,4.075275421E0,8.812324677E0,9.802673319E0
8.063708339E-2,-1.351090393E0,4.070784760E0,8.879684601E0,9.861314944E0
9.071708343E-2,-1.347797241E0,4.054618378E0,8.926836548E0,9.896711491E0
1.007970833E-1,-1.314566345E0,4.049528961E0,8.997789001E0,9.954244140E0
1.108770834E-1,-1.314266968E0,4.047732697E0,9.080716553E0,1.002850192E1
1.209570834E-1,-1.272653503E0,4.008065186E0,9.196875000E0,1.011270207E1
1.310370833E-1,-1.272354126E0,4.002377014E0,9.318272552E0,1.022096425E1
1.411170834E-1,-1.296004944E0,3.986210632E0,9.389075317E0,1.028222930E1
1.511970834E-1,-1.322350159E0,3.998485107E0,9.332043915E0,1.023833662E1
1.612770833E-1,-1.342258759E0,4.045038300E0,9.124275970E0,1.007057126E1
1.713560834E-1,-1.343306580E0,4.064647522E0,8.946445770E0,9.917899171E0
1.814360834E-1,-1.329385529E0,4.077820129E0,8.850644989E0,9.835130889E0
1.915160833E-1,-1.375938721E0,4.067042542E0,8.784781952E0,9.777854383E0
2.015960834E-1,-1.465153198E0,4.067641296E0,8.834478607E0,9.835669366E0
2.116760834E-1,-1.475332031E0,4.065695343E0,8.948391724E0,9.938822750E0
2.217560834E-1,-1.432970123E0,4.022435303E0,9.005872192E0,9.966901378E0
2.318360833E-1,-1.373244324E0,3.966601410E0,8.947044525E0,9.882779591E0
2.419160834E-1,-1.300645294E0,3.999233551E0,8.793763275E0,9.747605845E0
2.519960834E-1,-1.261127472E0,3.983665924E0,8.619226227E0,9.578679316E0
2.620760833E-1,-1.271306305E0,3.950135651E0,8.443791046E0,9.408368541E0
2.721560834E-1,-1.312171326E0,3.875740356E0,8.306825867E0,9.259941300E0
2.822360834E-1,-1.380579071E0,3.779041443E0,8.211025085E0,9.143745718E0
2.923160833E-1,-1.467847595E0,3.698508911E0,8.116122437E0,9.039081155E0
3.023960834E-1,-1.514400787E0,3.604803772E0,7.921826477E0,8.834215003E0
3.124760834E-1,-1.570534058E0,3.528761902E0,7.615862732E0,8.539326843E0
3.225560833E-1,-1.661844177E0,3.383863220E0,7.236102448E0,8.159254561E0
3.326360834E-1,-1.626068573E0,3.151546326E0,6.853049011E0,7.716257124E0
3.427160834E-1,-1.787283325E0,2.914738770E0,6.340664520E0,7.203756682E0
3.527960833E-1,-1.798509979E0,2.604733429E0,5.649252319E0,6.475594656E0
3.628760834E-1,-1.796264648E0,2.077529755E0,4.862189026E0,5.584225881E0
3.729560834E-1,-1.769170990E0,1.481169891E0,4.188589783E0,4.782061753E0
3.830360833E-1,-1.476978607E0,1.009351044E0,3.565585327E0,3.989192156E0
3.931160833E-1,-1.246158600E0,4.331991577E-1,2.831362152E0,3.123649212E0
4.031950834E-1,-1.171763306E0,-1.425036621E-1,1.971999207E0,2.298285754E0
4.132750834E-1,-1.114731903E0,-6.194119263E-1,1.148112488E0,1.715943074E0
4.233550833E-1,-1.191073151E0,-1.043180695E0,4.701722717E-1,1.651648624E0
4.334350834E-1,-1.369202728E0,-1.472338257E0,-8.906478882E-2,2.012567661E0
4.435150834E-1,-1.612446899E0,-1.883982239E0,-4.607418823E-1,2.522232575E0
4.535950833E-1,-1.946252747E0,-2.232756958E0,-5.001100159E-1,3.003866411E0
4.636750834E-1,-2.528092804E0,-2.393223267E0,-1.683998108E-1,3.485273207E0
4.737550834E-1,-3.146756287E0,-2.367027740E0,3.683839417E-1,3.954820120E0
4.838350833E-1,-3.467838593E0,-2.455493774E0,9.246272278E-1,4.348596290E0
4.939150834E-1,-3.608096924E0,-2.572250977E0,1.255289612E0,4.605495685E0
5.039950834E-1,-3.708238678E0,-2.525248718E0,1.313668213E0,4.674787627E0
5.140750834E-1,-3.988905029E0,-2.456990662E0,1.155896301E0,4.825376949E0
5.241550833E-1,-4.559069366E0,-2.302511902E0,1.339414673E0,5.280218387E0
5.342350834E-1,-5.057383118E0,-1.827250214E0,1.787882080E0,5.666788303E0
5.443150834E-1,-5.714965668E0,-1.411265259E0,2.511627045E0,6.400060361E0
5.543950833E-1,-6.896159363E0,-1.257085876E0,3.708538055E0,7.930355185E0
5.644750834E-1,-8.275989990E0,-8.256829834E-1,5.458698578E0,9.948424643E0
5.745550834E-1,-9.539961548E0,-2.245330811E-3,7.210805054E0,1.195853590E1
5.846344167E-1,-9.767787781E0,7.125183105E-1,8.136629791E0,1.273271789E1
5.947144167E-1,-9.546398163E0,1.027313690E0,8.242759094E0,1.265433399E1
6.047944167E-1,-8.979077911E0,1.103355560E0,8.140222321E0,1.216981730E1
6.148744167E-1,-8.542435913E0,1.269659729E0,8.269852753E0,1.195724516E1
6.249544166E-1,-8.488997040E0,1.558259583E0,8.678952026E0,1.223991225E1
6.350344167E-1,-8.748257904E0,2.215542755E0,9.240284729E0,1.291601749E1
6.451134167E-1,-9.468110962E0,3.135080566E0,1.060469742E1,1.455793470E1
6.551934168E-1,-1.051533325E1,4.216132507E0,1.291184967E1,1.717742322E1
6.652734167E-1,-1.216849548E1,5.430706787E0,1.529803757E1,2.028779958E1
6.753534167E-1,-1.403271881E1,6.393804016E0,1.714519638E1,2.305982840E1
6.854334167E-1,-1.579605194E1,7.009623413E0,1.849823273E1,2.531471294E1
6.955134167E-1,-1.719653961E1,8.041278076E0,1.907363617E1,2.691071765E1
7.055934167E-1,-1.879237106E1,9.153614960E0,1.945788712E1,2.855785790E1
7.156734167E-1,-2.052382050E1,1.037567368E1,2.010723679E1,3.054804058E1
7.257534167E-1,-2.203852066E1,1.143561951E1,2.201576797E1,3.318378860E1
7.358334167E-1,-2.284354660E1,1.176942535E1,2.528586777E1,3.605165881E1
7.459134167E-1,-2.239463013E1,1.141586060E1,2.793550781E1,3.757970102E1
7.559934166E-1,-2.157224030E1,1.035890854E1,2.880415146E1,3.744793290E1
7.660734167E-1,-2.070913513E1,9.026379547E0,2.811229019E1,3.606445155E1
7.761534167E-1,-2.014241364E1,7.960595856E0,2.681538712E1,3.446959384E1
7.862334168E-1,-1.994153137E1,6.961573334E0,2.569870926E1,3.326487388E1
7.963134167E-1,-1.991982651E1,5.957611084E0,2.462394424E1,3.222780241E1
8.063934167E-1,-2.014765274E1,5.029990082E0,2.318723190E1,3.112678002E1
8.164734168E-1,-1.979783020E1,4.016896820E0,2.128079636E1,2.934215115E1
8.265534167E-1,-1.871573044E1,2.944826202E0,1.901870041E1,2.684513983E1
8.366334167E-1,-1.714429825E1,2.064357147E0,1.683085007E1,2.411360709E1
8.467134167E-1,-1.528965500E1,1.369352417E0,1.465317856E1,2.122178875E1
8.567934167E-1,-1.345147751E1,1.006057892E0,1.281410294E1,1.860525823E1
8.668734167E-1,-1.191896439E1,8.915460205E-1,1.150148254E1,1.658736468E1
8.769534167E-1,-1.063044388E1,8.292755127E-1,1.060694275E1,1.503998901E1
8.870324166E-1,-9.565857697E0,7.201524353E-1,9.928852844E0,1.380602665E1
8.971124167E-1,-8.504564667E0,5.111869812E-1,9.140891418E0,1.249579242E1
9.071924167E-1,-7.532935181E0,5.643264771E-2,8.097561035E0,1.105978263E1
9.172724168E-1,-6.730603638E0,-7.547305298E-1,6.855294342E0,9.636685323E0
9.273524167E-1,-6.138285370E0,-1.784738617E0,5.431604919E0,8.388454638E0
9.374324167E-1,-5.270689545E0,-2.787952423E0,3.778742065E0,7.059159907E0
9.475124168E-1,-3.980073395E0,-3.394341431E0,1.782493286E0,5.526284492E0
9.575924167E-1,-2.617906036E0,-3.708238678E0,-2.743794250E-1,4.547499332E0
9.676724167E-1,-1.367855530E0,-3.917653198E0,-1.992805939E0,4.603293478E0
9.777524167E-1,-4.293072510E-1,-4.022584991E0,-3.294349365E0,5.217109590E0
9.878324167E-1,2.939886475E-1,-3.998335419E0,-4.141737213E0,5.764295498E0
9.979124167E-1,6.125262451E-1,-3.979175262E0,-4.557123413E0,6.080822146E0
1.007992417E0,6.993457031E-1,-3.921245728E0,-4.584815826E0,6.073367158E0
1.018072417E0,6.450086975E-1,-3.765120392E0,-4.339925079E0,5.781618932E0
1.028152417E0,5.490582275E-1,-3.421435089E0,-3.959416351E0,5.261621504E0
1.038232417E0,3.403921509E-1,-3.156635742E0,-3.606300659E0,4.804749782E0
1.048312417E0,4.011657715E-2,-3.052153015E0,-3.289409637E0,4.487478482E0
1.058392417E0,9.011260986E-2,-3.023113403E0,-3.117566986E0,4.343565223E0
1.068472417E0,3.302133179E-1,-2.959495697E0,-3.120111694E0,4.313090841E0
1.078552417E0,8.181985474E-1,-2.943628693E0,-3.215313721E0,4.435385109E0
1.088632417E0,1.384770355E0,-2.890040131E0,-3.271896057E0,4.579871691E0
1.098712417E0,1.791773987E0,-2.804268494E0,-3.126847687E0,4.566349993E0
1.108792417E0,1.961371307E0,-2.730022888E0,-2.891237640E0,4.433876122E0
1.118871417E0,2.011816406E0,-2.592458954E0,-2.598296814E0,4.185617638E0
1.128951417E0,1.915117493E0,-2.340532837E0,-2.199526062E0,3.739476416E0
1.139031417E0,1.834135895E0,-2.048639832E0,-1.848506012E0,3.313299581E0
1.149111417E0,1.644330597E0,-1.791624298E0,-1.634451141E0,2.930046292E0
1.159191417E0,1.193318481E0,-1.594035187E0,-1.400936737E0,2.434662382E0
1.169271417E0,6.569837952E-1,-1.326990509E0,-1.206341400E0,1.909919132E0
1.179351417E0,2.974314880E-1,-1.008752289E0,-1.070873108E0,1.500938334E0
1.189431417E0,1.465452576E-1,-8.030799866E-1,-1.116827545E0,1.383371513E0
1.199511417E0,-1.219963074E-1,-6.836283875E-1,-1.156794434E0,1.349223567E0
1.209591417E0,-3.471281433E-1,-4.722679138E-1,-1.058149567E0,1.209634422E0
1.219671417E0,-5.322930908E-1,-1.936972046E-1,-8.943901062E-1,1.058672850E0
1.229751417E0,-7.360194397E-1,1.097218323E-1,-6.987469482E-1,1.020789299E0
1.239831417E0,-9.533674622E-1,3.888912964E-1,-3.734733582E-1,1.095275448E0
1.249911417E0,-1.318907318E0,7.622149658E-1,-1.281335449E-1,1.528694336E0
1.259991417E0,-2.106419678E0,1.193767548E0,7.439529419E-2,2.422316964E0
1.270071417E0,-2.885399780E0,1.414857788E0,5.209167480E-2,3.214042314E0
1.280151417E0,-3.498973846E0,2.162552948E0,-7.747888184E-1,4.185660156E0
1.290231417E0,-4.916376343E0,2.900967407E0,-1.494641876E0,5.900874730E0
1.300311417E0,-7.115004272E0,3.687282257E0,-1.211730194E0,8.104790331E0
1.310391417E0,-9.744586029E0,5.420827332E0,7.291337585E-1,1.117470187E1
1.320471417E0,-1.352781876E1,7.840695190E0,5.920188904E0,1.671906152E1
1.330551417E0,-1.867097351E1,9.502090302E0,1.467009338E1,2.557550805E1
1.340631417E0,-2.322285782E1,1.013198044E1,2.484757919E1,3.548746743E1
1.350710417E0,-2.530921921E1,9.525741119E0,3.129811523E1,4.136264423E1
1.360790417E0,-2.419613388E1,8.522227936E0,3.023592407E1,3.965214204E1
1.370870417E0,-1.957988342E1,8.322243805E0,2.443773148E1,3.240114653E1
1.380950417E0,-1.475781097E1,8.007448425E0,1.809197754E1,2.468262276E1
1.391030417E0,-1.169922134E1,7.011120300E0,1.367705841E1,1.931552522E1
1.401110417E0,-9.484427032E0,6.242768097E0,1.136511612E1,1.606525363E1
1.411190417E0,-8.406219177E0,6.062393188E0,1.007824219E1,1.445642064E1
1.421270417E0,-8.888216858E0,5.932014313E0,1.004067032E1,1.466302333E1
1.431350417E0,-9.827214203E0,5.521118774E0,1.177107193E1,1.629770002E1
1.441430417E0,-1.035381912E1,5.404660950E0,1.363050522E1,1.795000287E1
1.451510417E0,-1.040112076E1,5.359904022E0,1.444900314E1,1.859262155E1
1.461590417E0,-9.735305328E0,5.192402344E0,1.377196106E1,1.764664624E1
1.471670417E0,-8.898096313E0,5.002447357E0,1.227043350E1,1.596133252E1
1.481750417E0,-8.208779755E0,4.869074707E0,1.046982788E1,1.416718919E1
1.491830417E0,-7.077731781E0,4.827311554E0,8.619974670E0,1.215323773E1
1.501910417E0,-5.556445312E0,4.715494080E0,6.748117218E0,9.932122377E0
1.511990417E0,-4.460873566E0,4.384682007E0,4.977149963E0,7.993550590E0
1.522070417E0,-3.889062653E0,4.221970367E0,3.766018524E0,6.865328661E0
1.532150417E0,-3.740721130E0,4.014801178E0,3.371289368E0,6.440280667E0
1.542230417E0,-3.904630280E0,3.627556458E0,3.704346771E0,6.490569195E0
1.552310417E0,-4.011508026E0,3.197800140E0,4.192332001E0,6.625237353E0
1.562390417E0,-3.868704987E0,2.686463470E0,4.411476288E0,6.453300496E0
1.572469417E0,-3.645369415E0,2.195185089E0,4.217629395E0,5.991323181E0
1.582550042E0,-3.371439056E0,1.771865387E0,3.841311951E0,5.409416398E0
1.592630042E0,-3.219355316E0,1.408570862E0,3.313210144E0,4.829666860E0
1.602710042E0,-3.253334656E0,1.001417542E0,2.743794250E0,4.372119665E0
1.612790042E0,-3.427272949E0,4.613406372E-1,2.323767700E0,4.166405090E0
1.622870042E0,-3.532653809E0,-2.380050659E-2,2.120041351E0,4.120046690E0
1.632950042E0,-3.690425720E0,-5.758525085E-1,2.169738007E0,4.319561451E0
1.643030042E0,-4.147724762E0,-1.135538635E0,2.486030273E0,4.967234161E0
1.653110042E0,-4.542902985E0,-1.594633942E0,2.918331299E0,5.630051732E0
1.663190042E0,-4.803511047E0,-2.020198975E0,3.416794739E0,6.231324784E0
1.673270042E0,-4.975204010E0,-2.276915131E0,3.994593201E0,6.774494246E0
1.683350042E0,-5.627098389E0,-2.373464355E0,4.497397614E0,7.584467985E0
1.693430042E0,-6.330934753E0,-2.334844666E0,4.928800507E0,8.356153954E0
1.703510042E0,-6.407126312E0,-2.279759216E0,5.024152222E0,8.455215858E0
1.713590042E0,-6.187083893E0,-2.251468048E0,4.680915985E0,8.078371737E0
1.723670042E0,-6.247258759E0,-2.162253571E0,4.194427643E0,7.829227660E0
1.733750042E0,-6.265071716E0,-1.934127960E0,3.847598877E0,7.602367506E0
1.743830042E0,-6.170318756E0,-1.793869629E0,3.869303741E0,7.500820838E0
1.753910042E0,-6.287225647E0,-1.685794373E0,4.116739197E0,7.701860205E0
1.763990042E0,-6.530469818E0,-1.555265808E0,4.521048431E0,8.093563288E0
1.774070042E0,-6.677763519E0,-1.332229614E0,4.931644592E0,8.407644126E0
1.784150042E0,-6.945257263E0,-1.096320190E0,5.220992889E0,8.757698508E0
1.794229042E0,-7.047644348E0,-8.909472656E-1,5.336851959E0,8.885103642E0
1.804309042E0,-7.140301666E0,-4.731660461E-1,5.193001099E0,8.841665816E0
1.814389042E0,-7.284601593E0,6.526428223E-2,4.979994049E0,8.824399159E0
1.824469042E0,-7.026238861E0,5.086422729E-1,5.094655609E0,8.693806144E0
1.834549042E0,-6.311924286E0,6.617738342E-1,5.091362457E0,8.136356953E0
1.844629042E0,-5.843847656E0,5.857319641E-1,4.738546143E0,7.546353882E0
1.854709042E0,-5.659580841E0,5.188211060E-1,4.327351227E0,7.143248510E0
1.864789042E0,-5.771398315E0,4.465214539E-1,4.112697601E0,7.100894414E0
1.874869042E0,-6.009553070E0,3.866459656E-1,4.083657990E0,7.276021288E0
1.884949042E0,-6.642586670E0,3.921844482E-1,3.966751099E0,7.746798086E0
1.895029042E0,-7.542365570E0,6.014492798E-1,3.751798096E0,8.445413464E0
1.905109042E0,-8.137677612E0,5.357359314E-1,3.699107666E0,8.955010186E0
1.915189042E0,-8.926387482E0,2.392025757E-1,3.718267822E0,9.672803469E0
1.925269042E0,-1.024379791E1,1.477427673E-1,3.847000122E0,1.094333740E1
1.935349042E0,-1.200024536E1,2.899470520E-1,4.201612701E0,1.271784209E1
1.945429042E0,-1.426728104E1,6.797364807E-1,5.012326813E0,1.513739641E1
1.955509042E0,-1.685914124E1,1.386267242E0,6.293811951E0,1.804894592E1
1.965589042E0,-1.951985825E1,2.139201508E0,7.795938263E0,2.112765255E1
1.975669042E0,-2.269789948E1,2.498304749E0,9.662107544E0,2.479500936E1
1.985749042E0,-2.606993729E1,2.614912262E0,1.178289734E1,2.872831471E1
1.995829042E0,-2.850327713E1,2.593057709E0,1.345267502E1,3.162491455E1
2.005908042E0,-2.990391449E1,2.333946533E0,1.403631134E1,3.311660376E1
2.015988042E0,-3.044249451E1,1.893562317E0,1.423569672E1,3.365985905E1
2.026068042E0,-3.101146133E1,1.440753937E0,1.485915024E1,3.441774036E1
2.036148042E0,-3.183160583E1,9.195378113E-1,1.555595123E1,3.544127958E1
2.046228042E0,-3.221465927E1,4.502636719E-1,1.611908020E1,3.602515449E1
2.056308042E0,-3.219220596E1,-9.804611206E-2,1.663984726E1,3.623854653E1
2.066388042E0,-3.247107605E1,-7.864645386E-1,1.711810272E1,3.671537481E1
2.076468042E0,-3.245401154E1,-1.420995026E0,1.709175751E1,3.670708741E1
2.086548042E0,-3.129467239E1,-1.833986206E0,1.612117584E1,3.525070689E1
2.096628042E0,-2.939123062E1,-1.739532623E0,1.512335083E1,3.309963975E1
2.106708042E0,-2.728406250E1,-1.741478577E0,1.415486481E1,3.078657194E1
2.116788042E0,-2.535128174E1,-1.896556091E0,1.314401688E1,2.861904244E1
2.126868042E0,-2.277409103E1,-1.594334564E0,1.218810471E1,2.587954832E1
2.136948042E0,-1.958138031E1,-1.043480072E0,1.084449875E1,2.240808913E1
2.147028042E0,-1.649015854E1,-7.213499451E-1,9.255253601E0,1.892367284E1
2.157108042E0,-1.371837250E1,-9.080117798E-1,7.657476196E0,1.573706361E1
2.167188042E0,-1.121243362E1,-1.473685455E0,6.058501282E0,1.282949159E1
2.177268042E0,-9.035061493E0,-2.191592560E0,4.223167877E0,1.021129576E1
2.187348042E0,-7.306905212E0,-3.167862396E0,2.130669250E0,8.244147463E0
2.197428042E0,-5.843847656E0,-4.002077637E0,1.317260742E-2,7.082891666E0
2.207508042E0,-4.421505432E0,-4.541555786E0,-1.717977448E0,6.567106346E0
2.217587042E0,-3.340303802E0,-4.805906067E0,-2.823428650E0,6.498162198E0
2.227667042E0,-2.828667755E0,-4.778213654E0,-3.224594421E0,6.421113312E0
2.237747042E0,-2.518812103E0,-4.641847229E0,-3.047063599E0,6.097192525E0
2.247827042E0,-2.361938324E0,-4.854554901E0,-2.712209930E0,6.041650324E0
2.257907042E0,-1.987866211E0,-5.066514130E0,-2.356399841E0,5.930750181E0
2.267987042E0,-1.688488770E0,-5.404361572E0,-1.874851227E0,5.964326068E0
2.278067042E0,-1.271006927E0,-5.991590424E0,-1.564845886E0,6.321657778E0
2.288147042E0,-3.032693481E-1,-6.550827484E0,-1.904040527E0,6.828666294E0
2.298227042E0,1.056203613E0,-7.175478516E0,-3.061882782E0,7.872622446E0
2.308307042E0,2.263443146E0,-8.000413055E0,-4.172872467E0,9.302830137E0
2.318387042E0,3.492986298E0,-8.495733032E0,-4.852758636E0,1.038882570E1
2.328467042E0,4.537813568E0,-8.784332886E0,-5.525459747E0,1.132638343E1
2.338547042E0,5.321134644E0,-9.120533752E0,-6.352489929E0,1.232285430E1
2.348627042E0,5.795947266E0,-9.377100220E0,-6.885681152E0,1.299752354E1
2.358707042E0,6.207291870E0,-9.362430725E0,-7.039710846E0,1.325681373E1
2.368787042E0,6.300398254E0,-9.156309357E0,-6.808142395E0,1.303394883E1
2.378867042E0,5.825286255E0,-9.073232117E0,-6.275549927E0,1.247557726E1
2.388947042E0,5.385800171E0,-9.043444061E0,-5.696254578E0,1.196820956E1
2.399027042E0,5.324876862E0,-8.726403351E0,-4.920867004E0,1.134545553E1
2.409107042E0,5.282215576E0,-8.289761353E0,-4.134402466E0,1.066373426E1
2.419187042E0,5.137167206E0,-7.957153015E0,-3.553759918E0,1.011612478E1
2.429266042E0,5.031636658E0,-7.586972809E0,-3.098855896E0,9.616778656E0
2.439346042E0,4.728816376E0,-7.156917114E0,-2.727927246E0,9.001375115E0
2.449426042E0,4.298610992E0,-6.751709747E0,-2.630030823E0,8.425004635E0
2.459506042E0,3.598666534E0,-6.388864288E0,-2.591411133E0,7.777107392E0
2.469586042E0,2.936443634E0,-6.030958557E0,-2.313139801E0,7.095475888E0
2.479666042E0,2.130070496E0,-5.540578308E0,-1.985770569E0,6.259272566E0
2.489746042E0,1.330732727E0,-5.003794556E0,-1.644480286E0,5.432598361E0
2.499826042E0,8.051756287E-1,-4.408482513E0,-1.533860321E0,4.736639457E0
2.509906042E0,1.534309387E-1,-4.016447754E0,-1.882036285E0,4.438181406E0
2.519986042E0,-5.432203674E-1,-3.740571442E0,-2.173330536E0,4.360083565E0
2.530066042E0,-1.645228729E0,-3.093616791E0,-2.141746216E0,4.106618959E0
2.540146042E0,-4.426445160E0,-1.831591187E0,-1.087937622E0,4.912407892E0
2.550226042E0,-9.711205444E0,-2.773731995E-1,1.591939545E0,9.844730498E0
2.560306042E0,-1.675091629E1,1.841021576E0,5.887856140E0,1.785075368E1
2.570386042E0,-2.480312164E1,5.810317383E0,1.052730835E1,2.756408628E1
2.580466042E0,-3.462045639E1,1.026460464E1,1.550760178E1,3.929915803E1
2.590546167E0,-4.308625168E1,1.357886261E1,1.833537140E1,4.875445044E1
2.600626167E0,-4.702126877E1,1.584380264E1,1.870630005E1,5.302783665E1
2.610706167E0,-4.561973328E1,1.580787735E1,1.719414459E1,5.125122105E1
2.620786167E0,-3.956721954E1,1.518831573E1,1.356583969E1,4.450035734E1
2.630865167E0,-3.299977661E1,1.407882294E1,1.003917343E1,3.725565078E1
2.640945167E0,-2.778267563E1,1.272713379E1,8.683442688E0,3.176883971E1
2.651025167E0,-2.348032242E1,1.192525131E1,9.100176086E0,2.786306452E1
2.661105167E0,-2.068847809E1,1.129416367E1,9.887838135E0,2.556052819E1
2.671185167E0,-1.878428787E1,1.009321106E1,1.024649231E1,2.365825406E1
2.681265167E0,-1.662832123E1,8.948391724E0,1.014515305E1,2.143592572E1
2.691345167E0,-1.417282745E1,8.359965363E0,9.859097900E0,1.918228011E1
2.701425167E0,-1.168814438E1,7.875123596E0,8.943601685E0,1.669186334E1
2.711505167E0,-9.666149139E0,7.232360229E0,7.639812927E0,1.428664465E1
2.721585167E0,-8.282725983E0,6.548881531E0,6.713539124E0,1.251251400E1
2.731665167E0,-7.312743073E0,6.071823578E0,6.024971008E0,1.125360069E1
2.741745167E0,-6.625372467E0,5.625601501E0,5.314099274E0,1.018737472E1
2.751825167E0,-5.565875702E0,5.144801331E0,4.478836212E0,8.803858636E0
2.761905167E0,-4.440515900E0,4.638703766E0,3.529809723E0,7.327708425E0
2.771985167E0,-3.577859802E0,4.225413208E0,2.692900085E0,6.156858648E0
2.782065167E0,-2.910098419E0,3.857328644E0,2.127076721E0,5.279404555E0
2.792145167E0,-2.523751831E0,3.575015717E0,1.717378693E0,4.701005238E0
2.802225167E0,-2.599494324E0,3.295995941E0,1.535955963E0,4.469912830E0
2.812304167E0,-2.803220673E0,2.973865814E0,1.488205261E0,4.349330859E0
2.822384167E0,-3.022814026E0,2.708318024E0,1.390009460E0,4.290048654E0
2.832464167E0,-3.348836060E0,2.517165527E0,1.118923187E0,4.336221206E0
2.842544167E0,-3.815715179E0,2.247127075E0,9.880952454E-1,4.537135069E0
2.852624167E0,-4.469256134E0,1.916165314E0,1.115480347E0,4.989011556E0
2.862704167E0,-4.770280151E0,1.609303436E0,1.168919220E0,5.168346197E0
2.872784167E0,-4.881498871E0,1.197958832E0,1.060095520E0,5.136919223E0
2.882864167E0,-5.006488953E0,7.430548096E-1,8.991801453E-1,5.140582362E0
2.892944167E0,-5.312153320E0,3.206332397E-1,8.631051636E-1,5.391356888E0
2.903024167E0,-5.737718353E0,-6.122268677E-2,1.025517426E0,5.828966127E0
2.913104167E0,-6.133794708E0,-2.450404358E-1,1.358574829E0,6.287225772E0
2.923184167E0,-6.465055847E0,-3.121009827E-1,1.858684845E0,6.734171329E0
2.933264167E0,-6.676715698E0,-3.817062378E-1,2.465822296E0,7.127728373E0
2.943344167E0,-6.882986755E0,-6.170169067E-1,3.001857605E0,7.534412095E0
2.953424167E0,-7.077731781E0,-1.055754547E0,3.253334656E0,7.860858173E0
2.963504167E0,-7.253616028E0,-1.470242615E0,3.331621857E0,8.116419347E0
2.973584167E0,-7.149133301E0,-1.760638733E0,3.322191467E0,8.077556056E0
2.983664167E0,-6.789131927E0,-2.019749908E0,3.170706482E0,7.760482048E0
2.993744167E0,-6.475234680E0,-2.391576691E0,2.896177368E0,7.485729529E0
3.003824167E0,-6.083349609E0,-2.747237091E0,2.624492340E0,7.172336729E0
3.013903167E0,-5.746699677E0,-2.907104645E0,2.464026031E0,6.895450592E0
3.023983167E0,-5.490881653E0,-3.105442200E0,2.290686493E0,6.711244087E0
3.034063167E0,-5.530249786E0,-3.321293335E0,2.220033417E0,6.822257727E0
3.044143167E0,-5.677992554E0,-3.413052521E0,2.267484741E0,7.002143529E0
3.054223167E0,-5.915398865E0,-3.465443573E0,2.340532837E0,7.244262340E0
3.064303167E0,-6.291566620E0,-3.506308594E0,2.445165253E0,7.606368621E0
3.074383167E0,-6.384822693E0,-3.528911591E0,2.578537903E0,7.737443735E0
3.084463167E0,-6.204298096E0,-3.619473267E0,2.536175995E0,7.617485823E0
3.094543167E0,-5.977369995E0,-3.767216034E0,2.309547272E0,7.433362449E0
3.104623167E0,-5.766458588E0,-3.836521912E0,2.161505127E0,7.255553007E0
3.114703167E0,-5.628295898E0,-3.773652649E0,2.241289215E0,7.137334683E0
3.124783167E0,-5.487438812E0,-3.664978638E0,2.478994904E0,7.049075745E0
3.134863167E0,-5.582790527E0,-3.432512054E0,2.903661804E0,7.168050010E0
3.144943167E0,-5.838309174E0,-3.104693756E0,3.382815399E0,7.427544503E0
3.155023167E0,-6.054459686E0,-2.765948181E0,3.894750824E0,7.712070760E0
3.165103167E0,-6.183042297E0,-2.427801361E0,4.265829163E0,7.894398644E0
3.175183167E0,-6.352040863E0,-2.368225250E0,4.401297455E0,8.082594463E0
3.185263167E0,-6.477480011E0,-2.536625061E0,4.251608734E0,8.152814902E0
3.195343167E0,-6.347101135E0,-2.594404907E0,3.880680084E0,7.878851919E0
3.205422167E0,-6.232439575E0,-2.570903778E0,3.366798706E0,7.535793443E0
3.215502167E0,-6.609505463E0,-2.844983826E0,2.955005035E0,7.778917032E0
3.225582167E0,-7.596103821E0,-2.921923828E0,2.789748688E0,8.603553327E0
3.235662167E0,-8.808732147E0,-3.059936829E0,3.014880524E0,9.800330607E0
3.245742167E0,-1.079465240E1,-3.292852478E0,3.756887512E0,1.189460389E1
3.255822167E0,-1.308399170E1,-3.338208160E0,4.593797150E0,1.426314989E1
3.265902167E0,-1.545985107E1,-3.061882782E0,5.145549774E0,1.657886618E1
3.275982167E0,-1.835812408E1,-2.343227234E0,5.423521729E0,1.928538363E1
3.286062167E0,-2.196113159E1,-1.508862305E0,6.020630035E0,2.282139243E1
3.296142167E0,-2.608849869E1,-7.785310364E-1,7.726333008E0,2.721970051E1
3.306222167E0,-3.034295151E1,9.639953613E-2,1.020263351E1,3.201246210E1
3.316302167E0,-3.456806534E1,8.306227112E-1,1.296918045E1,3.693021415E1
3.326382167E0,-3.882341629E1,1.192270660E0,1.533216660E1,4.175828653E1
3.336462167E0,-4.243839890E1,2.944377136E-1,1.679657135E1,4.564240576E1
3.346542167E0,-4.229918839E1,-1.207389221E0,1.650273239E1,4.542047229E1
3.356622167E0,-3.861564835E1,-2.329755249E0,1.511900986E1,4.153529241E1
3.366702167E0,-3.425371902E1,-3.638932800E0,1.396266449E1,3.716873819E1
3.376782167E0,-3.058619568E1,-4.986280975E0,1.381791550E1,3.393100577E1
3.386861167E0,-2.796095490E1,-5.414690094E0,1.402942566E1,3.174836455E1
3.396941167E0,-2.666195618E1,-5.066214752E0,1.387150406E1,3.047860010E1
3.407021167E0,-2.605496841E1,-4.418212280E0,1.291184967E1,2.941254564E1
3.417101167E0,-2.611888550E1,-3.860472107E0,1.111633347E1,2.864737849E1
3.427181167E0,-2.550890396E1,-3.533851318E0,9.285490723E0,2.737540181E1
3.437261167E0,-2.327509918E1,-3.485352173E0,7.404053192E0,2.467180426E1
3.447341167E0,-2.057681030E1,-3.304228821E0,5.851930847E0,2.164643493E1
3.457421167E0,-1.824211533E1,-2.490520935E0,5.134472809E0,1.911387656E1
3.467501167E0,-1.660272446E1,-1.556613007E0,5.432053986E0,1.753797919E1
3.477581167E0,-1.483549942E1,-1.234782257E0,6.206693115E0,1.612884899E1
3.487661167E0,-1.305989182E1,-1.619182892E0,6.883435822E0,1.485140452E1
3.497741167E0,-1.195279404E1,-2.130968628E0,7.078330536E0,1.405393453E1
3.507821167E0,-1.152288803E1,-2.747087402E0,6.401438141E0,1.346483747E1
3.517901167E0,-1.021999741E1,-3.731739807E0,4.943170624E0,1.195027886E1
3.527981167E0,-8.496481476E0,-5.026397552E0,3.193309479E0,1.037555277E1
3.538061167E0,-6.731052704E0,-6.350993042E0,1.632954254E0,9.397272089E0
3.548141167E0,-5.154381409E0,-7.751780090E0,2.796185303E-1,9.313212593E0
3.558221167E0,-3.489992523E0,-9.074878693E0,-1.038540344E0,9.778140782E0
3.568301167E0,-1.928888855E0,-9.873767395E0,-2.455493774E0,1.035573969E1
3.578380167E0,-6.249504089E-1,-1.007255402E1,-3.834875336E0,1.079597963E1
3.588459458E0,5.096900940E-1,-9.958042145E0,-4.775519257E0,1.105567599E1
3.598539458E0,1.380878448E0,-9.817035370E0,-5.276228027E0,1.123029790E1
3.608619458E0,1.774410095E0,-1.028331573E1,-5.568420410E0,1.182803532E1
3.618699458E0,2.061812439E0,-1.124776016E1,-6.037395172E0,1.293109894E1
3.628779458E0,3.028352509E0,-1.228899490E1,-6.668931885E0,1.430611642E1
3.638859458E0,4.890180817E0,-1.357781479E1,-7.675289154E0,1.634567180E1
3.648939458E0,7.447013855E0,-1.426817917E1,-8.510402527E0,1.820620508E1
3.659019458E0,9.634415131E0,-1.463297058E1,-8.777896271E0,1.959584767E1
3.669099458E0,1.079046112E1,-1.493788651E1,-8.331374817E0,2.022340997E1
3.679179458E0,1.095526840E1,-1.461815140E1,-6.777306519E0,1.948435628E1
3.689259458E0,1.022628433E1,-1.392808640E1,-4.578379211E0,1.787540316E1
3.699339458E0,8.810378723E0,-1.342273727E1,-2.643053741E0,1.627201224E1
3.709419458E0,7.258406067E0,-1.264091309E1,-1.142424316E0,1.462129528E1
3.719499458E0,5.748795319E0,-1.163635208E1,-2.649490356E-1,1.298166150E1
3.729579458E0,4.204157410E0,-1.060050613E1,8.981323242E-3,1.140376037E1
3.739659458E0,2.806962891E0,-9.491761780E0,3.951782227E-2,9.898188926E0
3.749739458E0,1.480122070E0,-8.397088165E0,-7.364685059E-2,8.526856095E0
3.759819458E0,3.243754578E-1,-7.374564514E0,-9.610015869E-2,7.382320533E0
3.769898458E0,-3.857478333E-1,-6.515650635E0,-4.041595459E-3,6.527060665E0
3.779978458E0,-5.167254639E-1,-5.641318817E0,-1.871109009E-2,5.664965429E0
3.790058458E0,-7.084767151E-1,-4.995112610E0,-1.987866211E-1,5.049020238E0
3.800138458E0,-1.628613281E0,-4.382286987E0,-3.652404785E-1,4.689373206E0
3.810218458E0,-2.837948456E0,-3.632945251E0,-4.969665527E-1,4.636724964E0
3.820298458E0,-3.383713531E0,-3.006797333E0,-4.087998962E-1,4.545048385E0
3.830378458E0,-4.316873016E0,-2.031725006E0,-3.079096985E-1,4.781015323E0
3.840458458E0,-7.466922455E0,-6.282435608E-1,-2.050735474E-1,7.496110730E0
3.850538458E0,-1.227148132E1,7.952961731E-1,8.750802612E-1,1.232832168E1
3.860618458E0,-1.893936539E1,3.000809784E0,3.506158905E0,1.949352638E1
3.870698458E0,-2.553614731E1,5.857469330E0,6.667734375E0,2.703448627E1
3.880778458E0,-3.263857773E1,8.310867462E0,8.680149536E0,3.478063067E1
3.890858458E0,-3.787858109E1,1.008722351E1,1.014979340E1,4.049144711E1
3.900938458E0,-3.745660858E1,1.061622345E1,1.114552277E1,4.049598010E1
3.911018458E0,-3.270114761E1,1.079510147E1,1.126422592E1,3.623233441E1
3.921098458E0,-2.762161057E1,1.074959610E1,1.196417038E1,3.196323762E1
3.931178458E0,-2.431798050E1,1.031519943E1,1.327499451E1,2.956337251E1
3.941257458E0,-2.367985748E1,1.029918274E1,1.514610352E1,2.993682126E1
3.951337458E0,-2.438189758E1,9.842781830E0,1.622595795E1,3.089723281E1
3.961417458E0,-2.799972427E1,1.006402176E1,1.633074005E1,3.394056812E1
3.971497458E0,-3.267959244E1,1.037133270E1,1.567450470E1,3.769894430E1
3.981577458E0,-3.200284973E1,9.926158447E0,1.333966003E1,3.606463007E1
3.991657458E0,-2.617516846E1,9.490414581E0,9.851912842E0,2.953417680E1
4.001737458E0,-1.969349716E1,8.699010315E0,6.148763580E0,2.239004030E1
4.011817458E0,-1.515762955E1,7.598349152E0,3.019221497E0,1.722220490E1
4.021897458E0,-1.237207214E1,6.701114960E0,1.302591248E0,1.413045841E1
4.031977458E0,-1.032283356E1,6.076912994E0,7.381150818E-1,1.200144067E1
4.042057458E0,-8.575367432E0,5.600004730E0,5.248086548E-1,1.025535975E1
4.052137458E0,-7.108567657E0,5.011728058E0,4.837939453E-1,8.711096880E0
4.062217458E0,-5.844296722E0,4.335584106E0,5.007087708E-1,7.294093706E0
4.072297458E0,-4.983586578E0,3.732488251E0,5.120851135E-1,6.247386245E0
4.082377458E0,-4.695136414E0,3.261717224E0,3.011737061E-1,5.724841552E0
4.092457458E0,-4.569846954E0,2.919528809E0,-4.805007935E-2,5.423048816E0
4.102537458E0,-4.493356018E0,2.755469971E0,-4.540058899E-1,5.290461645E0
4.112616458E0,-4.352798309E0,2.707569580E0,-8.550219727E-1,5.197003822E0
4.122696458E0,-3.986210632E0,2.494712219E0,-1.136287079E0,4.837831393E0
4.132776458E0,-3.498075714E0,2.171534271E0,-1.268462219E0,4.308258487E0
4.142856458E0,-3.134930878E0,1.879042511E0,-1.364712067E0,3.901414025E0
4.152936458E0,-3.193159790E0,1.442999268E0,-1.312620392E0,3.741856307E0
4.163016458E0,-3.496878204E0,9.413923645E-1,-1.059197388E0,3.773098974E0
4.173096458E0,-3.894002380E0,4.050576782E-1,-8.409512329E-1,4.004313329E0
4.183176458E0,-4.410578156E0,-3.532653809E-1,-8.569679260E-1,4.506926904E0
4.193256458E0,-4.963378601E0,-1.159488831E0,-9.318122864E-1,5.181487781E0
4.203336458E0,-5.617817688E0,-1.909878387E0,-1.057700500E0,6.027125466E0
4.213416458E0,-6.496490479E0,-2.521207123E0,-1.214574280E0,7.073617503E0
4.223496458E0,-7.580087128E0,-2.793939972E0,-1.276096344E0,8.178767836E0
4.233576458E0,-8.662336578E0,-2.562221832E0,-1.102906494E0,9.100409796E0
4.243656458E0,-9.606273651E0,-1.922302551E0,-4.891827393E-1,9.808926563E0
4.253736458E0,-1.033136581E1,-1.367705841E0,5.707630920E-1,1.043712170E1
4.263816458E0,-1.071980804E1,-1.234931946E0,1.733844452E0,1.092911515E1
4.273896458E0,-1.095736404E1,-1.404229889E0,2.805615692E0,1.139768256E1
4.283975458E0,-1.089778793E1,-1.664837952E0,3.526067505E0,1.157439499E1
4.294055458E0,-1.036923706E1,-2.022144928E0,3.715423737E0,1.119886248E1
4.304135458E0,-9.365424500E0,-2.441722412E0,3.473077698E0,1.028277458E1
4.314215458E0,-8.157436523E0,-2.797233124E0,3.199446716E0,9.198083663E0
4.324295458E0,-6.918612671E0,-3.069666595E0,3.078198853E0,8.171007433E0
4.334375458E0,-5.883964233E0,-3.321293335E0,3.041824493E0,7.409771978E0
4.344455458E0,-5.143454132E0,-3.570824432E0,2.992277527E0,6.939714139E0
4.354535458E0,-4.745132446E0,-3.879632263E0,2.803819427E0,6.740121053E0
4.364615458E0,-4.514162750E0,-4.207300873E0,2.443219299E0,6.636894343E0
4.374695458E0,-4.474644928E0,-4.575834503E0,2.017803955E0,6.710606637E0
4.384775458E0,-4.535418549E0,-4.912185059E0,1.670975189E0,6.891425219E0
4.394855458E0,-4.621788940E0,-5.119653625E0,1.349593506E0,7.028028805E0
4.404935458E0,-4.747826843E0,-5.316943359E0,1.053060150E0,7.205600745E0
4.415015458E0,-4.756808167E0,-5.547613678E0,8.755293274E-1,7.360013115E0
4.425095458E0,-4.752467194E0,-5.699398041E0,9.455836487E-1,7.480856294E0
4.435175458E0,-4.935386810E0,-5.560337219E0,1.338965607E0,7.554351187E0
4.445255458E0,-5.103337555E0,-5.288801880E0,1.929786987E0,7.598654969E0
4.455334458E0,-5.376519470E0,-4.966671753E0,2.417323151E0,7.708322848E0
4.465414458E0,-5.819298706E0,-4.553231506E0,2.826721802E0,7.911163677E0
4.475494458E0,-6.338568878E0,-3.943399658E0,3.060834961E0,8.068244353E0
4.485574458E0,-6.948849792E0,-3.284320221E0,3.184477844E0,8.319505508E0
4.495654458E0,-7.435936890E0,-2.622247009E0,3.245700531E0,8.526658709E0
4.505734458E0,-7.559879150E0,-2.016905823E0,3.254532166E0,8.474176154E0
4.515814458E0,-7.301366730E0,-1.793719940E0,3.081492004E0,8.125452622E0
4.525894458E0,-6.793472900E0,-2.029629364E0,2.661764832E0,7.573352060E0
4.535974458E0,-6.503525848E0,-2.622696075E0,2.260898438E0,7.367906413E0
4.546054458E0,-7.019353180E0,-3.263214111E0,1.931433563E0,7.978115129E0
4.556134458E0,-8.320297852E0,-3.471880188E0,1.688039703E0,9.172283599E0
4.566214458E0,-9.886341248E0,-3.576063538E0,1.346150665E0,1.059906106E1
4.576294458E0,-1.171793243E1,-3.846551056E0,1.085991669E0,1.238084300E1
4.586377667E0,-1.415830765E1,-4.058210907E0,1.200503540E0,1.477727850E1
4.596457667E0,-1.680480423E1,-4.062851257E0,1.864672394E0,1.738922680E1
4.606537667E0,-1.969200027E1,-3.865112457E0,3.041674805E0,2.029693954E1
4.616617667E0,-2.320609268E1,-3.161575470E0,4.804558868E0,2.390820116E1
4.626697667E0,-2.746578461E1,-2.476300507E0,6.559808807E0,2.834664848E1
4.636776667E0,-3.148851929E1,-2.443069611E0,7.778125305E0,3.252682999E1
4.646856667E0,-3.417273743E1,-2.724933472E0,8.452323303E0,3.530783220E1
4.656936667E0,-3.529465439E1,-3.237168274E0,8.767268372E0,3.651105150E1
4.667016667E0,-3.528687057E1,-4.173171844E0,8.884923706E0,3.662677255E1
4.677096667E0,-3.482523056E1,-5.558241577E0,8.774902496E0,3.634129396E1
4.687176667E0,-3.412708237E1,-7.105274506E0,8.677754517E0,3.592277968E1
4.697256667E0,-3.271087738E1,-8.391100616E0,8.802145844E0,3.489827847E1
4.707336667E0,-3.071597580E1,-9.326655121E0,8.902886353E0,3.331244588E1
4.717416667E0,-2.870760223E1,-9.834249573E0,8.759035492E0,3.158416682E1
4.727496667E0,-2.703542953E1,-1.003602997E1,8.488997040E0,3.006159374E1
4.737576667E0,-2.519785080E1,-9.609267426E0,8.154742126E0,2.817391568E1
4.747656667E0,-2.290192520E1,-8.538993073E0,7.596852264E0,2.559540476E1
4.757736667E0,-2.019181091E1,-6.826105042E0,6.951244812E0,2.241929398E1
4.767816667E0,-1.784663773E1,-4.775818634E0,6.426735535E0,1.956051767E1
4.777896667E0,-1.600426895E1,-3.174149323E0,6.280938721E0,1.748319307E1
4.787976667E0,-1.421863220E1,-2.354902954E0,6.472240906E0,1.579889148E1
4.798056667E0,-1.277892609E1,-1.847308502E0,6.200855255E0,1.432355077E1
4.808135667E0,-1.175924652E1,-2.197879486E0,5.622458038E0,1.321826718E1
4.818215667E0,-1.073477692E1,-2.749781799E0,4.114493866E0,1.182056662E1
4.828295667E0,-9.936337280E0,-3.090922394E0,2.978506165E0,1.082386709E1
4.838375667E0,-9.178762665E0,-3.126548309E0,2.328258362E0,9.972250267E0
4.848455667E0,-8.175698547E0,-3.250789948E0,1.574276276E0,8.938010283E0
4.858535667E0,-7.425907745E0,-3.762725372E0,8.449928284E-1,8.367569596E0
4.868615667E0,-6.875053253E0,-4.408931580E0,2.642005920E-1,8.171587169E0
4.878695667E0,-6.319408722E0,-5.105882263E0,1.047821045E-3,8.124343751E0
4.888775667E0,-5.370382233E0,-5.800737305E0,-1.067280579E-1,7.905754201E0
4.898855667E0,-3.974235535E0,-6.509663086E0,-4.403842163E-1,7.639646578E0
4.908935667E0,-2.353555756E0,-7.257957001E0,-8.878038025E-1,7.681494653E0
4.919015667E0,-3.981719971E-1,-7.914641418E0,-1.441652069E0,8.054716035E0
4.929095667E0,1.653162231E0,-8.355474701E0,-2.520009613E0,8.882418099E0
4.939175667E0,3.632645874E0,-8.380472717E0,-4.198918304E0,1.005282816E1
4.949255667E0,5.156177673E0,-8.144712982E0,-5.838009796E0,1.126964401E1
4.959335667E0,5.879024506E0,-7.820487213E0,-6.614295502E0,1.180982025E1
4.969415667E0,5.949378204E0,-7.506739655E0,-6.384223938E0,1.151106236E1
4.979494667E0,5.566025391E0,-7.396419067E0,-5.508095856E0,1.077157248E1
4.989574667E0,4.786745911E0,-7.687114563E0,-4.335434418E0,1.003995310E1
4.999654667E0,4.621190186E0,-7.842491455E0,-3.198249207E0,9.648257301E0
5.009734667E0,5.132227478E0,-7.649692383E0,-2.257605286E0,9.484425869E0
5.019814667E0,5.367238770E0,-7.476053467E0,-1.458866272E0,9.318096278E0
5.029894667E0,5.338648224E0,-7.397317200E0,-8.843609619E-1,9.165345652E0
5.039974667E0,5.294789429E0,-7.232509918E0,-5.379812622E-1,8.979611275E0
5.050054667E0,5.022505646E0,-6.829398193E0,-1.969903564E-1,8.479684419E0
5.060134667E0,4.521198120E0,-6.592141571E0,1.658551025E-1,7.995315557E0
5.070214667E0,3.925886078E0,-6.469696198E0,4.417314148E-1,7.580545958E0
5.080294667E0,3.437152405E0,-6.170767822E0,6.914122009E-1,7.097213749E0
5.090374667E0,2.922223206E0,-5.734275513E0,9.605525208E-1,6.507224083E0
5.100454667E0,2.062710571E0,-5.188959503E0,1.249152374E0,5.721927759E0
5.110534667E0,1.194515991E0,-4.825515289E0,1.418600006E0,5.169612388E0
5.120614667E0,4.537065125E-1,-4.701722717E0,1.353186035E0,4.913568821E0
5.130694667E0,2.324665833E-1,-4.648732910E0,9.244775391E-1,4.745462791E0
5.140773667E0,1.625619507E-1,-4.709057465E0,1.987866211E-1,4.716053935E0
5.150853667E0,3.517684937E-2,-4.957091675E0,-6.262976074E-1,4.996623257E0
5.160933667E0,-1.501377869E-1,-5.291645966E0,-1.386416931E0,5.472313066E0
5.171013667E0,-5.942642212E-1,-5.537734222E0,-2.051034851E0,5.935182747E0
5.181093667E0,-1.759590912E0,-5.372926941E0,-2.380200348E0,6.134318038E0
5.191173667E0,-4.929249573E0,-4.988077240E0,-1.964814148E0,7.282781786E0
5.201253667E0,-9.740245056E0,-4.027375031E0,-3.399430847E-1,1.054550543E1
5.211333667E0,-1.513008682E1,-2.468965759E0,2.853216705E0,1.559346545E1
5.221413667E0,-2.160472275E1,-1.169817352E0,6.666536865E0,2.264012437E1
5.231493667E0,-2.865895340E1,-7.963439941E-2,9.650282135E0,3.024020332E1
5.241573667E0,-3.290008392E1,3.086581421E-1,1.122515717E1,3.476370155E1
5.251653667E0,-3.233411087E1,-5.676196289E-1,1.116228790E1,3.421130791E1
5.261733667E0,-2.883977737E1,-1.168470154E0,1.056502991E1,3.073626422E1
5.271813667E0,-2.458876740E1,-1.038839722E0,1.022673340E1,2.665094268E1
5.281893667E0,-2.198238739E1,3.366499329E-1,9.359586639E0,2.389436232E1
5.291973667E0,-2.305760147E1,2.045945435E0,8.336763611E0,2.460366854E1
5.302052667E0,-2.671779007E1,2.627336426E0,8.275241547E0,2.809310993E1
5.312132667E0,-3.172862000E1,3.754941559E0,8.666078796E0,3.310446850E1
5.322212667E0,-3.608441208E1,5.223387909E0,8.967252502E0,3.754703975E1
5.332292667E0,-3.615177200E1,6.856342163E0,8.797056427E0,3.783316334E1
5.342372667E0,-3.316263794E1,9.314081268E0,8.566535797E0,3.549504473E1
5.352452667E0,-2.978880386E1,9.378597107E0,8.854087830E0,3.246114278E1
5.362532667E0,-2.547432587E1,8.483757935E0,9.011859741E0,2.832188276E1
5.372612667E0,-2.091989685E1,7.881709900E0,8.525820465E0,2.392599109E1
5.382692667E0,-1.657907364E1,7.532935181E0,7.223977661E0,1.959072863E1
5.392772667E0,-1.292412415E1,6.783892822E0,5.636678467E0,1.564692720E1
5.402852667E0,-1.042013123E1,5.696404266E0,4.112098846E0,1.256731925E1
5.412932667E0,-8.575367432E0,4.846771088E0,2.695893860E0,1.021253936E1
5.423012667E0,-7.017107849E0,4.314777374E0,1.440304871E0,8.362510656E0
5.433092667E0,-5.989345093E0,3.857628021E0,5.533992004E-1,7.145613988E0
5.443172667E0,-5.116959229E0,3.324736176E0,1.845661926E-1,6.105014911E0
5.453252667E0,-4.527185669E0,2.850821686E0,-5.957611084E-2,5.350340520E0
5.463332667E0,-4.347110138E0,2.495161285E0,-7.514373779E-2,5.012867739E0
5.473411667E0,-4.388873291E0,2.210902405E0,1.675016785E-1,4.917149074E0
5.483491667E0,-4.593647461E0,1.765877838E0,4.948709106E-1,4.946192349E0
5.493571667E0,-5.190905457E0,1.128652954E0,1.085692291E0,5.422000065E0
5.503651667E0,-6.020480347E0,1.971400452E-1,1.701362000E0,6.259367417E0
5.513731667E0,-6.592740326E0,-8.461903381E-1,2.089654541E0,6.967561926E0
5.523811667E0,-7.192543030E0,-1.634750519E0,2.016905823E0,7.646763602E0
5.533891667E0,-7.560178528E0,-1.726360016E0,1.841770020E0,7.970491521E0
5.543971667E0,-7.620054016E0,-1.744472351E0,2.111658783E0,8.097376724E0
5.554051667E0,-8.093669128E0,-2.285896454E0,2.164498901E0,8.684345574E0
5.564131667E0,-9.030870209E0,-3.093766479E0,1.813478851E0,9.716826298E0
5.574211667E0,-9.623338165E0,-3.695515137E0,1.345701599E0,1.039597914E1
5.584291667E0,-9.710307312E0,-3.776047668E0,9.581575012E-1,1.046263207E1
5.594368458E0,-9.535470886E0,-3.068618774E0,1.008003845E0,1.006765603E1
5.604448458E0,-9.398954773E0,-2.368374939E0,1.869013367E0,9.871310027E0
5.614528458E0,-9.559121704E0,-2.060764618E0,3.094065857E0,1.025654923E1
5.624607458E0,-9.719887390E0,-2.054926758E0,3.925437012E0,1.068213418E1
5.634687458E0,-9.781259766E0,-2.467618561E0,4.769681396E0,1.115849652E1
5.644767458E0,-9.659413147E0,-2.780318298E0,5.638624420E0,1.152512549E1
5.654847458E0,-9.669741669E0,-2.866988068E0,6.200555878E0,1.183935884E1
5.664927458E0,-9.650880890E0,-2.973267059E0,6.388864288E0,1.194978685E1
5.675007458E0,-9.171427917E0,-3.001707916E0,6.294261017E0,1.152141754E1
5.685087458E0,-8.122109985E0,-2.858006744E0,6.037844238E0,1.051629384E1
5.695167458E0,-7.110513611E0,-2.553689575E0,5.254523163E0,9.202757626E0
5.705247458E0,-6.477629700E0,-2.193538513E0,3.837420044E0,7.842008055E0
5.715327458E0,-6.000571747E0,-2.098785553E0,2.636317749E0,6.882000680E0
5.725407458E0,-5.389243011E0,-2.039209442E0,1.847907257E0,6.051204559E0
5.735487458E0,-4.715045013E0,-1.938169556E0,1.296304321E0,5.260090836E0
5.745567458E0,-4.189338226E0,-1.965712280E0,7.547305298E-1,4.688730928E0
5.755647458E0,-3.830833740E0,-2.042203217E0,1.284329224E-1,4.343083713E0
5.765727458E0,-3.365601196E0,-2.308649139E0,-3.686833191E-1,4.097933583E0
5.775807458E0,-2.677332458E0,-2.767145691E0,-7.641609192E-1,3.925448545E0
5.785886458E0,-1.983375549E0,-3.216660919E0,-1.089733887E0,3.932964020E0
5.795966458E0,-1.450334015E0,-3.679199066E0,-1.443448334E0,4.209930833E0
5.806046458E0,-1.052461395E0,-4.165238342E0,-1.734742584E0,4.633164930E0
5.816126458E0,-6.837780762E-1,-4.520898743E0,-1.887275391E0,4.946502431E0
5.826206458E0,-5.575904846E-1,-4.725523224E0,-1.757794647E0,5.072604746E0
5.836286458E0,-6.312373352E-1,-4.830155640E0,-1.267414398E0,5.033408719E0
5.846366458E0,-8.039781189E-1,-4.828359375E0,-6.225553894E-1,4.934268971E0
5.856446458E0,-9.704319763E-1,-5.072501678E0,-1.655557251E-1,5.167148169E0
5.866526458E0,-1.016536102E0,-5.378764801E0,5.269042969E-2,5.474233527E0
5.876606458E0,-1.178050232E0,-5.655838623E0,1.306782532E-1,5.778701384E0
5.886686458E0,-1.410816193E0,-6.094576263E0,2.272274780E-1,6.259863775E0
5.896766458E0,-1.703906708E0,-6.626420288E0,2.203417969E-1,6.845530981E0
5.906846458E0,-2.284848633E0,-7.252119141E0,2.125579834E-2,7.603566079E0
5.916926458E0,-3.468137970E0,-7.833061066E0,-2.543211365E-1,8.570268717E0
5.927006458E0,-5.014572144E0,-8.652307434E0,-1.113684082E-1,1.000103798E1
5.937086458E0,-6.593937836E0,-9.228159943E0,2.766247559E-1,1.134528419E1
5.947165458E0,-8.575966187E0,-9.571096802E0,6.942562866E-1,1.286992936E1
5.957245458E0,-1.100077377E1,-9.925709381E0,1.547481995E0,1.489736322E1
5.967325458E0,-1.396461044E1,-1.014799713E1,2.823129272E0,1.749177662E1
5.977405458E0,-1.781086212E1,-1.025382706E1,4.527185669E0,2.104431488E1
5.987485458E0,-2.262964142E1,-1.030097900E1,6.557264099E0,2.571397580E1
5.997565458E0,-2.727957184E1,-9.747579803E0,8.637787628E0,3.022915359E1
6.007645458E0,-3.127072220E1,-8.304281158E0,1.003528152E1,3.387515354E1
6.017725458E0,-3.501503586E1,-6.794820099E0,1.035037628E1,3.713963658E1
6.027805458E0,-3.827735184E1,-5.183870087E0,9.769284668E0,3.984303070E1
6.037885458E0,-4.065261246E1,-3.756887512E0,8.681796112E0,4.173874324E1
6.047965458E0,-4.220862671E1,-2.618055725E0,7.806266785E0,4.300418800E1
6.058045458E0,-4.224559982E1,-1.912423096E0,7.497908020E0,4.294841896E1
6.068125458E0,-3.988440994E1,-1.896855469E0,6.849306793E0,4.051267975E1
6.078205458E0,-3.646252579E1,-2.884351959E0,5.791157227E0,3.703205065E1
6.088285458E0,-3.317446335E1,-4.169279938E0,4.990172882E0,3.380576488E1
6.098365458E0,-3.008159500E1,-4.977748718E0,4.860542450E0,3.087564110E1
6.108444458E0,-2.724738876E1,-4.856500854E0,5.359155579E0,2.819089114E1
6.118524458E0,-2.527434174E1,-4.025578766E0,6.141279144E0,2.631944042E1
6.128604458E0,-2.409344742E1,-3.129093018E0,6.622229004E0,2.518212359E1
6.138684458E0,-2.309038330E1,-2.128274231E0,6.592740326E0,2.410725155E1
6.148764458E0,-2.195140182E1,-1.127305756E0,6.361171875E0,2.288229377E1
6.158844458E0,-2.016980667E1,-5.140310669E-1,6.234385529E0,2.111759674E1
6.168924458E0,-1.803988586E1,-5.056484985E-1,6.175857239E0,1.907444298E1
6.179004458E0,-1.592388611E1,-8.990304565E-1,6.092181244E0,1.707316833E1
6.189084458E0,-1.476050537E1,-8.882528687E-1,5.370980988E0,1.573241713E1
6.199164458E0,-1.380519196E1,-1.873653717E0,4.468657379E0,1.463088521E1
6.209244458E0,-1.213182175E1,-2.725232849E0,3.956721954E0,1.304851109E1
6.219324458E0,-1.042746597E1,-3.602558441E0,3.574716339E0,1.159694231E1
6.229404458E0,-9.075028381E0,-4.999154205E0,3.255130920E0,1.086018233E1
6.239484458E0,-7.260352020E0,-5.965694275E0,2.825374603E0,9.812490066E0
6.249564458E0,-5.585634613E0,-6.427783356E0,2.276765442E0,8.814724827E0
6.259643458E0,-4.571942596E0,-7.340285797E0,1.519190826E0,8.780113636E0
6.269723458E0,-3.524420929E0,-8.269852753E0,4.233197021E-1,8.999511487E0
6.279803458E0,-2.164498901E0,-8.745114441E0,-7.470964050E-1,9.039924508E0
6.289883458E0,-6.313870239E-1,-9.170380096E0,-1.855691071E0,9.377532193E0
6.299963458E0,9.175918579E-1,-9.731563110E0,-2.798580322E0,1.016746513E1
6.310043458E0,2.594704285E0,-9.961035919E0,-3.798051910E0,1.097177858E1
6.320123458E0,4.074227600E0,-1.009261230E1,-4.684508514E0,1.184925203E1
6.330203458E0,5.271138611E0,-1.012329849E1,-5.108726349E0,1.250460553E1
6.340283458E0,6.313870239E0,-9.651779022E0,-4.839286652E0,1.250761732E1
6.350363458E0,6.516848145E0,-9.339228973E0,-4.190984802E0,1.213486140E1
6.360443458E0,5.914500732E0,-9.627529449E0,-3.271746368E0,1.176328893E1
6.370523458E0,5.600902863E0,-9.698481903E0,-2.144739990E0,1.140309492E1
6.380603458E0,5.260061646E0,-9.513915710E0,-1.069974976E0,1.092372130E1
6.390683458E0,4.750371552E0,-9.491013336E0,-4.312532043E-1,1.062220991E1
6.400763458E0,4.801714783E0,-9.411828003E0,-2.460882568E-1,1.056879987E1
6.410843458E0,5.176535339E0,-9.438472595E0,-2.212399292E-1,1.076709014E1
6.420922458E0,5.509143677E0,-9.337283020E0,-2.070195007E-1,1.084335628E1
6.431002458E0,5.700445862E0,-8.987011414E0,-2.251318359E-1,1.064481759E1
6.441082458E0,5.712420959E0,-8.525670776E0,-2.766247559E-1,1.026622310E1
6.451162458E0,5.303171997E0,-7.948920135E0,-2.481838989E-1,9.558794893E0
6.461242458E0,4.480183411E0,-7.450307007E0,-7.439529419E-2,8.693943441E0
6.471322458E0,3.791166229E0,-7.047045593E0,-3.592529297E-3,8.002112588E0
6.481402458E0,3.090473328E0,-6.513854370E0,7.304809570E-2,7.210177541E0
6.491482458E0,2.175725555E0,-6.173761597E0,2.986289978E-1,6.552731737E0
6.501562458E0,1.295406189E0,-5.835614777E0,1.845661926E-1,5.980513498E0
6.511642458E0,2.951861572E-1,-5.642815704E0,-4.092489624E-1,5.665332175E0
6.521722458E0,7.918533325E-2,-5.419629822E0,-1.255888367E0,5.563803853E0
6.531802458E0,-4.852908325E-1,-5.024002533E0,-1.823208618E0,5.366581622E0
6.541882458E0,-1.091530151E0,-4.915478210E0,-1.497336273E0,5.253130498E0
6.551962458E0,4.700225830E-2,-5.357059937E0,-1.698667603E0,5.620122063E0
6.562042458E0,-3.401376801E0,-4.771178284E0,-1.572779388E0,6.066888936E0
6.572121458E0,-8.096064148E0,-4.277355194E0,-3.610491943E-1,9.163644399E0
6.582201458E0,-1.518996231E1,-2.780467987E0,2.003284149E0,1.557174058E1
6.592281833E0,-2.388478134E1,-2.365081787E-2,6.558162231E0,2.476878743E1
6.602361833E0,-3.079411331E1,2.407743073E0,8.823850708E0,3.212374484E1
6.612441833E0,-3.407963104E1,3.319796448E0,8.804540863E0,3.535480505E1
6.622521833E0,-3.291684906E1,3.851041718E0,5.927972717E0,3.366734820E1
6.632601833E0,-3.010988617E1,3.311862946E0,2.505489807E0,3.039491998E1
6.642681833E0,-2.793925003E1,1.469793549E0,1.556014252E0,2.802111999E1
6.652761833E0,-2.555351120E1,1.100960541E0,4.035607910E0,2.589363203E1
6.662841833E0,-2.522419601E1,2.458038483E0,7.669600983E0,2.647876124E1
6.672921833E0,-2.789284653E1,3.916605377E0,1.036130356E1,3.001178596E1
6.683001833E0,-3.125994461E1,4.797074432E0,1.192629913E1,3.379989159E1
6.693081833E0,-3.309752335E1,5.762416992E0,1.237895782E1,3.580349282E1
6.703161833E0,-3.376004562E1,6.819668427E0,1.147214355E1,3.630232273E1
6.713241833E0,-3.212304977E1,6.971901855E0,9.761051788E0,3.428958842E1
6.723320833E0,-2.851255783E1,6.819518738E0,8.503816223E0,3.052518108E1
6.733400833E0,-2.352612717E1,7.206613770E0,7.099286957E0,2.560886208E1
6.743480833E0,-1.812640594E1,7.714956665E0,4.944068756E0,2.031085830E1
6.753560833E0,-1.441801758E1,7.635022888E0,2.367626495E0,1.648570473E1
6.763640833E0,-1.194830338E1,7.016658783E0,1.586700439E-1,1.385715087E1
6.773720833E0,-1.019904099E1,6.015690308E0,-7.867639160E-1,1.186709587E1
6.783800833E0,-8.881929932E0,5.425018616E0,-5.460644531E-1,1.042198123E1
6.793880833E0,-7.861352234E0,5.182223511E0,8.292755127E-2,9.416112597E0
6.803960833E0,-7.201674042E0,4.655768280E0,7.017407227E-1,8.604227294E0
6.814040833E0,-6.606362000E0,4.215234375E0,9.873468018E-1,7.898548817E0
6.824120833E0,-5.963149567E0,3.791615295E0,1.005010071E0,7.137614766E0
6.834200833E0,-5.253175964E0,3.443139954E0,9.394464111E-1,6.350876318E0
6.844280833E0,-4.535268860E0,3.259471893E0,8.018824768E-1,5.642325421E0
6.854360833E0,-3.986060944E0,2.925366669E0,6.288423157E-1,4.984164388E0
6.864440833E0,-3.810775452E0,2.692001953E0,3.802093506E-1,4.681179681E0
6.874519833E0,-4.167333984E0,2.625091095E0,1.986369324E-1,4.929222294E0
6.884599833E0,-4.949607239E0,2.402054901E0,1.134640503E-1,5.502849594E0
6.894679833E0,-5.814957733E0,2.102378082E0,3.347039795E-1,6.192394835E0
6.904759833E0,-6.642886047E0,1.618584137E0,6.460565186E-1,6.867688015E0
6.914839833E0,-7.747588806E0,1.062340851E0,9.990225220E-1,7.883637891E0
6.924919833E0,-8.762029266E0,4.499642944E-1,1.430275726E0,8.889393308E0
6.934999833E0,-9.827513580E0,-2.116598511E-1,1.610051880E0,9.960777586E0
6.945079833E0,-1.050111282E1,-6.096821594E-1,1.720671844E0,1.065860190E1
6.955159833E0,-1.082488953E1,-7.756869507E-1,1.863624573E0,1.101149491E1
6.965239833E0,-1.147274231E1,-1.234033813E0,1.965712280E0,1.170515614E1
6.975319833E0,-1.195788345E1,-1.347497864E0,2.309696960E0,1.225322110E1
6.985399833E0,-1.238419693E1,-1.261726227E0,2.796334991E0,1.275851778E1
6.995479833E0,-1.264151184E1,-1.220262451E0,3.349285126E0,1.313448031E1
7.005559833E0,-1.270303391E1,-1.133442993E0,3.711082764E0,1.328246584E1
7.015639833E0,-1.246607666E1,-1.060245209E0,3.669469299E0,1.303810539E1
7.025718833E0,-1.182331329E1,-1.135838013E0,3.233875122E0,1.231011022E1
7.035798833E0,-1.063538361E1,-1.371148682E0,2.604583740E0,1.103518417E1
7.045878833E0,-9.460177460E0,-1.722019043E0,2.118694153E0,9.846277066E0
7.055958833E0,-8.376730499E0,-1.988015900E0,1.882185974E0,8.812743337E0
7.066038833E0,-7.300019531E0,-2.213447113E0,1.800605621E0,7.837844977E0
7.076118833E0,-6.358178101E0,-2.580483856E0,1.884281616E0,7.115886656E0
7.086198833E0,-5.527854767E0,-2.916984100E0,2.165995789E0,6.614946131E0
7.096278833E0,-4.826413422E0,-3.133883057E0,2.324965210E0,6.206525015E0
7.106358833E0,-4.192332001E0,-3.372037811E0,2.141596527E0,5.790744537E0
7.116438833E0,-3.613036652E0,-3.661835175E0,1.720821533E0,5.424416783E0
7.126518833E0,-3.077300720E0,-3.840563507E0,1.203497314E0,5.066370847E0
7.136598833E0,-2.587519226E0,-4.006119232E0,6.132746887E-1,4.808362808E0
7.146678833E0,-2.160606995E0,-4.198768616E0,5.463638306E-2,4.722379232E0
7.156758833E0,-1.966161346E0,-4.390819244E0,-3.788621521E-1,4.825828489E0
7.166837833E0,-1.904938660E0,-4.606969757E0,-7.194039917E-1,5.036914109E0
7.176917833E0,-2.232457581E0,-4.777614899E0,-9.583071899E-1,5.359834292E0
7.186997833E0,-2.995121613E0,-4.946912842E0,-1.076710968E0,5.882347036E0
7.197077833E0,-3.484154663E0,-5.274581451E0,3.212319946E-1,6.329591867E0
7.207157833E0,-3.780238953E0,-4.798571320E0,1.247655487E0,6.234832593E0
7.217237833E0,-4.175267487E0,-4.873116302E0,5.456153870E-1,6.440327417E0
7.227317833E0,-4.300107880E0,-5.388943634E0,1.944456482E-1,6.897060996E0
7.237397833E0,-4.357288971E0,-5.149291992E0,4.725672913E-1,6.761988986E0
7.247477833E0,-3.990551605E0,-4.609364777E0,8.686436462E-1,6.158351041E0
7.257557833E0,-3.965553589E0,-4.617897034E0,1.285826111E0,6.221248835E0
7.267637833E0,-4.346810760E0,-4.842729492E0,1.544488220E0,6.688216248E0
7.277717833E0,-4.748126221E0,-4.906197510E0,1.714684296E0,7.039575189E0
7.287797833E0,-5.292843475E0,-4.791086884E0,1.973496094E0,7.406982679E0
7.297877833E0,-6.059249725E0,-4.653972015E0,2.226619720E0,7.958127803E0
7.307957833E0,-6.718329163E0,-4.452341309E0,2.426753540E0,8.417150504E0
7.318036833E0,-7.077432404E0,-4.122127991E0,2.494113464E0,8.561693207E0
7.328116833E0,-7.764803009E0,-3.405568085E0,2.315834198E0,8.789376985E0
7.338196833E0,-9.322463837E0,-2.574196930E0,1.933229828E0,9.862666951E0
7.348276833E0,-1.147528702E1,-2.059118042E0,2.082319794E0,1.184306696E1
7.358356833E0,-1.377764923E1,-1.122665405E0,3.078049164E0,1.416186367E1
7.368436833E0,-1.615320923E1,6.589297485E-1,4.298461304E0,1.672833304E1
7.378516833E0,-1.870719818E1,2.303110657E0,5.198539581E0,1.955219671E1
7.388596833E0,-2.161400345E1,3.444636841E0,5.705984344E0,2.261833162E1
7.398676833E0,-2.468860977E1,4.325704651E0,5.856870575E0,2.573989328E1
7.408756833E0,-2.769181458E1,5.144951019E0,5.764063568E0,2.874946163E1
7.418836833E0,-3.038396622E1,5.752387848E0,5.669310608E0,3.143909114E1
7.428916833E0,-3.234024811E1,6.020330658E0,6.042334900E0,3.344616331E1
7.438996833E0,-3.319003098E1,6.210285645E0,6.767726440E0,3.443759465E1
7.449076833E0,-3.322655502E1,5.838309174E0,7.403604126E0,3.453843029E1
7.459156833E0,-3.296370163E1,4.468058624E0,8.328381042E0,3.429185186E1
7.469235833E0,-3.271087738E1,2.560575256E0,9.742191010E0,3.422671954E1
7.479315833E0,-3.229698807E1,7.685018921E-1,1.145612686E1,3.427723554E1
7.489395833E0,-3.136427765E1,-5.604345703E-1,1.296573761E1,3.394322246E1
7.499475833E0,-3.021332108E1,-1.473685455E0,1.410666504E1,3.337685602E1
7.509555833E0,-2.929887268E1,-2.366878052E0,1.470796463E1,3.286868229E1
7.519635833E0,-2.865281616E1,-3.343297577E0,1.491109222E1,3.247309939E1
7.529715833E0,-2.798954544E1,-4.403243408E0,1.494686783E1,3.203454486E1
7.539795833E0,-2.687107132E1,-5.343438263E0,1.480810638E1,3.114300597E1
7.549875833E0,-2.525952255E1,-5.889652405E0,1.414947601E1,2.954554377E1
7.559955833E0,-2.334380630E1,-6.324797516E0,1.300929703E1,2.746230445E1
7.570035833E0,-2.121807678E1,-6.560706940E0,1.171329208E1,2.510878072E1
7.580115833E0,-1.909324539E1,-6.541097717E0,1.062475571E1,2.280840662E1
7.590195583E0,-1.710972015E1,-6.310277710E0,9.840237122E0,2.072178552E1
7.600275583E0,-1.539054520E1,-6.064488831E0,9.278605042E0,1.896679777E1
7.610354583E0,-1.380758698E1,-5.917045441E0,8.690927124E0,1.735491570E1
7.620434583E0,-1.234961884E1,-5.726342010E0,7.961044922E0,1.576966437E1
7.630514583E0,-1.111588440E1,-5.657634888E0,6.921307068E0,1.426450876E1
7.640594583E0,-9.894574127E0,-5.772745514E0,5.378465424E0,1.265523916E1
7.650674583E0,-8.558602295E0,-5.979765015E0,3.335663452E0,1.096056173E1
7.660754583E0,-7.183861084E0,-6.252198486E0,1.412013702E0,9.627649177E0
7.670834583E0,-5.846092987E0,-6.521338806E0,-1.612147522E-1,8.759603486E0
7.680914583E0,-4.547243958E0,-6.801705780E0,-1.612446899E0,8.339101518E0
7.690994583E0,-3.245251465E0,-7.094945984E0,-2.904859314E0,8.325150042E0
7.701074583E0,-2.068997498E0,-7.075785828E0,-3.813918915E0,8.300209227E0
7.711154583E0,-1.297651520E0,-6.888076172E0,-4.453538818E0,8.304426580E0
7.721234583E0,-8.529263306E-1,-7.048841858E0,-5.100942535E0,8.742612288E0
7.731314583E0,-1.154100037E-1,-7.318131866E0,-5.463189240E0,9.133170871E0
7.741394583E0,8.493338013E-1,-6.993606720E0,-5.572462006E0,8.982440407E0
7.751474583E0,1.330133972E0,-6.783892822E0,-5.893544312E0,9.084289887E0
7.761553583E0,1.506766663E0,-7.010671234E0,-6.525380402E0,9.695382732E0
7.771633583E0,1.663790131E0,-6.973698120E0,-7.438780975E0,1.033131770E1
7.781713583E0,1.582958221E0,-6.960974579E0,-8.285420380E0,1.093659521E1
7.791793583E0,1.500330048E0,-7.047943726E0,-8.723110199E0,1.131446652E1
7.801873583E0,1.755848694E0,-6.841522980E0,-9.045689392E0,1.147666929E1
7.811953583E0,1.879790955E0,-6.594386902E0,-9.178463287E0,1.145703893E1
7.822033583E0,1.810784454E0,-6.511309662E0,-8.946146393E0,1.121203055E1
7.832113583E0,1.819915466E0,-6.174360352E0,-8.357869720E0,1.054935090E1
7.842193583E0,1.716330872E0,-5.655838623E0,-7.581434326E0,9.613139374E0
7.852273583E0,1.559307404E0,-5.294639740E0,-6.721921692E0,8.697636506E0
7.862353583E0,1.360071716E0,-4.945715332E0,-5.771248627E0,7.721217905E0
7.872433583E0,1.109792175E0,-4.521647186E0,-4.831802216E0,6.709936259E0
7.882513583E0,1.037193146E0,-4.199966125E0,-3.968697052E0,5.870778600E0
7.892593583E0,8.940907288E-1,-3.868555298E0,-3.104993134E0,5.040446477E0
7.902673583E0,4.406835938E-1,-3.393143921E0,-2.286046143E0,4.115049777E0
7.912752583E0,-4.580474854E-2,-2.906954956E0,-1.357976074E0,3.208829103E0
7.922832583E0,-4.099974060E-1,-2.325114899E0,-3.088078308E-1,2.381096269E0
7.932912583E0,-6.532415771E-1,-1.553768921E0,4.180805969E-1,1.736581067E0
7.942992583E0,-9.219328308E-1,-1.008153534E0,1.127904510E0,1.771581857E0
7.953072583E0,-1.189127197E0,-6.069877625E-1,1.987866211E0,2.394591762E0
7.963152583E0,-1.699416046E0,2.188449097E-1,2.435136108E0,2.977548632E0
7.973232583E0,-2.477198639E0,1.179846497E0,2.809507599E0,3.927070639E0
7.983312583E0,-3.507506104E0,1.933678894E0,3.540437622E0,5.345690946E0
7.993392583E0,-4.586761780E0,2.312091980E0,4.380790100E0,6.750961032E0
8.003472583E0,-5.930068359E0,2.145338745E0,5.618715820E0,8.446191837E0
8.013552583E0,-8.501570892E0,2.300565948E0,8.153843994E0,1.200226992E1
8.023632583E0,-1.041653870E1,2.927462311E0,1.238868759E1,1.644852255E1
8.033712583E0,-1.208377167E1,2.995271301E0,1.807147018E1,2.194463995E1
8.043791583E0,-1.381357452E1,2.844983826E0,2.362552048E1,2.751497759E1
8.053871583E0,-1.405981247E1,2.171085205E0,2.683275101E1,3.037084892E1
8.063951583E0,-1.328232925E1,1.653012543E0,2.628758469E1,2.949898014E1
8.074031583E0,-1.226324844E1,1.578467560E0,2.309981369E1,2.620076745E1
8.084111583E0,-1.175745026E1,1.660796356E0,2.060764618E1,2.378383825E1
8.094191583E0,-1.275722122E1,2.518961792E0,2.095956436E1,2.466566845E1
8.104271583E0,-1.408945084E1,3.141816559E0,2.295775909E1,2.711904015E1
8.114351583E0,-1.443388458E1,2.952310638E0,2.479937943E1,2.884549154E1
8.124431583E0,-1.280721725E1,2.499651947E0,2.542447952E1,2.857756520E1
8.134511583E0,-1.002195923E1,2.124082947E0,2.413970123E1,2.622358806E1
8.144591583E0,-7.813302155E0,2.162552948E0,2.191562622E1,2.336704942E1
8.154671583E0,-6.575825500E0,2.711611176E0,1.964634521E1,2.089433408E1
8.164751583E0,-5.975723419E0,3.270099792E0,1.781505341E1,1.907299009E1
8.174831583E0,-5.800288239E0,3.578159180E0,1.642594208E1,1.778364810E1
8.184911583E0,-5.909710693E0,3.760480042E0,1.506721756E1,1.661586397E1
8.194990583E0,-5.733826447E0,3.775748291E0,1.348470840E1,1.513176796E1
8.205070583E0,-5.125341797E0,3.586242371E0,1.188797882E1,1.343332808E1
8.215150583E0,-4.633464661E0,3.466341705E0,1.035322037E1,1.186059406E1
8.225230583E0,-4.117787018E0,3.328927460E0,8.926237793E0,1.037861499E1
8.235310583E0,-3.595972137E0,3.150648193E0,8.015082550E0,9.332692427E0
8.245390583E0,-2.917133789E0,2.972817993E0,7.245532837E0,8.357335847E0
8.255470583E0,-2.413131866E0,2.728376312E0,6.508764954E0,7.458636868E0
8.265550583E0,-2.012864227E0,2.452500000E0,5.941744080E0,6.735777710E0
8.275630583E0,-1.877695312E0,2.168540497E0,5.777834930E0,6.450711903E0
8.285710583E0,-1.870959320E0,1.899549866E0,5.733976135E0,6.323548117E0
8.295790583E0,-1.956132202E0,1.590292969E0,5.723198547E0,6.253837744E0
8.305870583E0,-2.005828857E0,1.231489105E0,5.793402557E0,6.253273384E0
8.315950583E0,-2.137554932E0,8.152047729E-1,5.687422943E0,6.130291970E0
8.326030583E0,-2.645299072E0,3.667373657E-1,5.407954102E0,6.031423633E0
8.336109583E0,-3.315904541E0,1.781295776E-2,5.133724365E0,6.111519131E0
8.346189583E0,-3.983516235E0,-2.992277527E-1,5.031786346E0,6.424703315E0
8.356269583E0,-4.666994934E0,-4.810995483E-1,5.242847443E0,7.035605716E0
8.366349583E0,-5.297334137E0,-3.736230469E-1,5.646108856E0,7.751121748E0
8.376429583E0,-5.675747223E0,-2.231858826E-1,6.138135681E0,8.363051364E0
8.386509583E0,-5.931565247E0,-2.308200073E-1,6.766528931E0,9.001258685E0
8.396589583E0,-6.226452026E0,-4.293072510E-1,7.482190704E0,9.743520272E0
8.406669583E0,-6.494095459E0,-7.825726318E-1,8.222700806E0,1.050706925E1
8.416749583E0,-6.760840759E0,-1.071621552E0,9.018745422E0,1.132232792E1
8.426829583E0,-6.641688538E0,-1.282832336E0,9.200617218E0,1.141967787E1
8.436909583E0,-6.116580505E0,-1.390757904E0,8.585695953E0,1.063301179E1
8.446989583E0,-5.580545197E0,-1.346749420E0,7.547454987E0,9.482631252E0
8.457069583E0,-5.133724365E0,-1.273701324E0,6.688990173E0,8.527604028E0
8.467149583E0,-4.875211945E0,-1.419348450E0,6.129154358E0,7.959194348E0
8.477228583E0,-4.648882599E0,-1.642085266E0,5.567073212E0,7.436454638E0
8.487308583E0,-4.316573639E0,-1.996997223E0,4.851261749E0,6.793787342E0
8.497388583E0,-4.004173279E0,-2.361788635E0,4.059558105E0,6.171828029E0
8.507468583E0,-3.634891205E0,-2.685116272E0,3.218457184E0,5.548040204E0
8.517548583E0,-3.260370026E0,-3.012186127E0,2.520758057E0,5.104654655E0
8.527628583E0,-3.072660370E0,-3.359763336E0,1.916015625E0,4.939672793E0
8.537708583E0,-3.159928894E0,-3.785777435E0,1.488205261E0,5.150923830E0
8.547788583E0,-3.206482086E0,-4.319866791E0,1.284927979E0,5.531167722E0
8.557868583E0,-3.167113953E0,-4.759203186E0,1.335223389E0,5.870557661E0
8.567948583E0,-3.263064423E0,-5.108576660E0,1.537003784E0,6.253601007E0
8.578028583E0,-3.433709564E0,-5.481301575E0,1.665736084E0,6.679049710E0
8.588108583E0,-3.665278015E0,-5.768554230E0,1.681303711E0,7.038271308E0
8.598188917E0,-4.126319275E0,-5.984854431E0,1.679357758E0,7.460913872E0
8.608268917E0,-4.896767120E0,-6.154451752E0,1.845661926E0,8.078494448E0
8.618347917E0,-5.992039490E0,-6.112089844E0,2.205812988E0,8.838992615E0
8.628427917E0,-6.891519012E0,-5.728437653E0,2.484533386E0,9.299512804E0
8.638507917E0,-7.163353729E0,-5.130730591E0,2.553988953E0,9.173924603E0
8.648587917E0,-7.812553711E0,-5.188809814E0,2.843337250E0,9.800219870E0
8.658667917E0,-8.471633148E0,-5.234913940E0,3.420387268E0,1.052957460E1
8.668747917E0,-8.628207550E0,-4.844376068E0,4.002377014E0,1.067393867E1
8.678827917E0,-8.610993347E0,-3.947590942E0,4.122277679E0,1.033082058E1
8.688907917E0,-8.564589844E0,-3.138224030E0,3.863765259E0,9.906024996E0
8.698987917E0,-8.935668182E0,-2.595452728E0,3.509452057E0,9.944787301E0
8.709067917E0,-9.191486206E0,-1.940115509E0,3.309018860E0,9.959772722E0
8.719147917E0,-9.538464661E0,-1.203347626E0,3.281625824E0,1.015871161E1
8.729227917E0,-1.038285873E1,-5.619314575E-1,3.478616180E0,1.096450149E1
8.739307917E0,-1.165326691E1,2.671943665E-1,3.910917206E0,1.229492968E1
8.749387917E0,-1.298205368E1,1.219064941E0,4.373006287E0,1.375292773E1
8.759466917E0,-1.413750092E1,2.180665283E0,4.379742279E0,1.496015961E1
8.769546917E0,-1.538051605E1,2.784958649E0,4.013453979E0,1.613766035E1
8.779626917E0,-1.671618851E1,3.115621033E0,3.958967285E0,1.745885090E1
8.789706917E0,-1.803823929E1,3.186573486E0,4.112847290E0,1.877359422E1
8.799786917E0,-1.937945023E1,3.278332672E0,4.165388031E0,2.009131687E1
8.809866917E0,-2.086526047E1,3.508553925E0,4.268224182E0,2.158441064E1
8.819946917E0,-2.236394394E1,3.911515961E0,4.699178009E0,2.318465483E1
8.830026917E0,-2.374332550E1,4.432881775E0,5.522016907E0,2.477677577E1
8.840106917E0,-2.541819260E1,4.981940002E0,6.072721710E0,2.660417618E1
8.850186917E0,-2.715039047E1,4.918172607E0,6.311624908E0,2.830492419E1
8.860266917E0,-2.891896271E1,3.949985962E0,7.187303925E0,3.005937675E1
8.870346917E0,-3.045836151E1,2.630928955E0,8.782835999E0,3.180836024E1
8.880426917E0,-3.176095276E1,1.118623810E0,1.053718781E1,3.348196180E1
8.890506917E0,-3.260714310E1,-6.164181519E-1,1.231519043E1,3.486071812E1
8.900585917E0,-3.263543427E1,-2.376009064E0,1.322574692E1,3.529358823E1
8.910665917E0,-3.246598663E1,-3.993844757E0,1.361463821E1,3.543091105E1
8.920745917E0,-3.248065613E1,-5.561834106E0,1.410935944E1,3.584691123E1
8.930825917E0,-3.269980042E1,-6.885531464E0,1.426294006E1,3.633344121E1
8.940905917E0,-3.241299683E1,-7.831115112E0,1.404095169E1,3.618116985E1
8.950985917E0,-3.099170242E1,-8.367300110E0,1.368050125E1,3.489489138E1
8.961065917E0,-2.884157364E1,-8.583300934E0,1.289658142E1,3.273883378E1
8.971145917E0,-2.687885513E1,-8.824748840E0,1.200308945E1,3.073146924E1
8.981225917E0,-2.511058228E1,-9.028475189E0,1.099972595E1,2.886258265E1
8.991305917E0,-2.279370026E1,-8.891959076E0,9.416468353E0,2.621620842E1
9.001385917E0,-1.980037491E1,-8.395890656E0,7.488777008E0,2.277339692E1
9.011465917E0,-1.686782318E1,-7.826624451E0,5.659281464E0,1.943725742E1
9.021545917E0,-1.432042053E1,-7.371720428E0,4.147874451E0,1.663194423E1
9.031625917E0,-1.190489365E1,-6.977889404E0,3.083288269E0,1.413945189E1
9.041704917E0,-1.001881577E1,-6.917115784E0,2.503094788E0,1.242934607E1
9.051784917E0,-8.704698486E0,-7.485932922E0,1.990111542E0,1.165210330E1
9.061864917E0,-7.373217316E0,-8.209827576E0,8.065228271E-1,1.106418011E1
9.071944917E0,-5.895190887E0,-8.924142151E0,-9.460327148E-1,1.073725135E1
9.082024917E0,-3.929179230E0,-9.205107880E0,-2.588117981E0,1.033783416E1
9.092104917E0,-1.862277374E0,-8.759634247E0,-3.878734131E0,9.759295447E0
9.102184917E0,-3.754193115E-1,-8.389004974E0,-4.899910583E0,9.722420884E0
9.112264917E0,7.143145752E-1,-8.295599213E0,-5.128185883E0,9.778829278E0
9.122344917E0,1.251248016E0,-7.968080292E0,-4.640500031E0,9.305383693E0
9.132424917E0,1.187929688E0,-7.831414490E0,-4.174818420E0,8.953844911E0
9.142504917E0,1.184187469E0,-7.738757172E0,-4.148922272E0,8.860260636E0
9.152584917E0,1.308578796E0,-7.461982727E0,-4.359085236E0,8.740434130E0
9.162664917E0,1.491199036E0,-7.405101013E0,-4.633314972E0,8.861535037E0
9.172744917E0,1.999092865E0,-7.629783783E0,-5.010231171E0,9.344109869E0
9.182823917E0,2.898722076E0,-8.078849945E0,-5.166356506E0,1.001806596E1
9.192903917E0,4.109703827E0,-8.195307770E0,-4.985831909E0,1.043605552E1
9.202983917E0,5.298980713E0,-7.938441925E0,-4.958438873E0,1.075565771E1
9.213063917E0,6.167175293E0,-7.797734528E0,-5.166805573E0,1.120422218E1
9.223143917E0,6.785389709E0,-7.750582581E0,-5.321434021E0,1.159442555E1
9.233223917E0,7.249424744E0,-7.521109772E0,-5.015769653E0,1.158789008E1
9.243303917E0,7.206613770E0,-7.241191864E0,-4.222120056E0,1.105424983E1
9.253383917E0,6.737489319E0,-6.963219910E0,-3.367247772E0,1.025760944E1
9.263463917E0,6.099665680E0,-6.561156006E0,-2.615361328E0,9.332459720E0
9.273543917E0,5.234614563E0,-6.261030121E0,-2.021845551E0,8.407707608E0
9.283623917E0,4.462969208E0,-5.972879333E0,-1.466799774E0,7.599005413E0
9.293703917E0,3.982767792E0,-5.465135193E0,-9.337582397E-1,6.826569154E0
9.303783917E0,3.506308594E0,-5.035378876E0,-6.258485413E-1,6.167732709E0
9.313863917E0,3.080144806E0,-4.846920776E0,-4.076023865E-1,5.757262608E0
9.323942917E0,2.816842346E0,-4.660857697E0,-3.143463135E-2,5.446024551E0
9.334022917E0,2.608176270E0,-4.340523834E0,4.572990417E-1,5.084471754E0
9.344102917E0,2.293680267E0,-4.095333710E0,8.752299500E-1,4.774804166E0
9.354182917E0,1.598226471E0,-3.784430237E0,1.055604858E0,4.241525868E0
9.364262917E0,4.435276794E-1,-3.487597504E0,1.025667114E0,3.662246057E0
9.374342917E0,-9.162446594E-1,-3.604654083E0,1.375190277E0,3.965373076E0
9.384422917E0,-2.069147186E0,-3.776047668E0,2.024090881E0,4.757819876E0
9.394502917E0,-3.068469086E0,-3.900888062E0,2.333347778E0,5.484244894E0
9.404582917E0,-4.481979675E0,-4.491709442E0,2.194885712E0,6.714247449E0
9.414662917E0,-6.722670135E0,-4.932542725E0,1.061442719E0,8.405410884E0
9.424742917E0,-1.036594391E1,-3.971092072E0,-4.363426208E-1,1.110912959E1
9.434822917E0,-1.537108566E1,-2.988684998E0,2.386038208E-1,1.566076129E1
9.444902917E0,-1.976205460E1,-2.362387390E0,3.513493652E0,2.021050008E1
9.454981917E0,-2.389855270E1,-2.357297974E0,8.103997650E0,2.534506763E1
9.465061917E0,-2.841825394E1,-3.738475800E0,1.380983231E1,3.181642385E1
9.475141917E0,-3.174523544E1,-4.500092010E0,1.988135651E1,3.772637192E1
9.485221917E0,-3.548685471E1,-6.307733002E0,2.266242325E1,4.257569471E1
9.495301917E0,-3.821448257E1,-8.417595520E0,2.231828888E1,4.504784802E1
9.505381917E0,-3.390689026E1,-6.377787323E0,2.044134201E1,4.010239197E1
9.515461917E0,-2.755155624E1,-3.511398010E0,1.796129929E1,3.307607050E1
9.525541917E0,-2.379466873E1,-2.745889893E0,1.531704803E1,2.843128790E1
9.535621917E0,-2.203762253E1,-2.592458954E0,1.460677505E1,2.656568327E1
9.545701917E0,-2.107347748E1,-2.531835022E0,1.563783096E1,2.636367575E1
9.555781917E0,-1.985067032E1,-2.758463745E0,1.667622162E1,2.607210390E1
9.565861917E0,-1.796593964E1,-2.710563354E0,1.666245026E1,2.465277650E1
9.575941917E0,-1.570174805E1,-2.089055786E0,1.599902985E1,2.251395127E1
9.586021917E0,-1.382135834E1,-1.166075134E0,1.494222748E1,2.038773748E1
9.596100542E0,-1.277593231E1,-1.056802368E-1,1.382016083E1,1.882106426E1
9.606180542E0,-1.234318222E1,1.152453461E0,1.286110519E1,1.786309948E1
9.616260542E0,-1.156989029E1,2.081271973E0,1.211430817E1,1.688047738E1
9.626340542E0,-1.009560608E1,2.214045868E0,1.130988098E1,1.532111840E1
9.636420542E0,-8.165819092E0,1.927841034E0,1.035845947E1,1.333022337E1
9.646500542E0,-6.460415497E0,1.797761536E0,9.338779907E0,1.149703114E1
9.656580542E0,-5.364694061E0,1.705553284E0,8.125103760E0,9.884642911E0
9.666660542E0,-4.602628784E0,1.499581604E0,6.787036285E0,8.336473970E0
9.676740542E0,-3.884422302E0,1.279090118E0,5.572911072E0,6.912463090E0
9.686820542E0,-3.260968781E0,9.310638428E-1,4.687801666E0,5.785869142E0
9.696900542E0,-2.827021179E0,5.078938293E-1,4.125570831E0,5.026961266E0
9.706980542E0,-2.609673157E0,4.236190796E-2,3.692521362E0,4.521825132E0
9.717060542E0,-2.644850006E0,-3.423381042E-1,3.360661469E0,4.290276499E0
9.727140542E0,-2.818488922E0,-5.313949585E-1,3.157982941E0,4.266042271E0
9.737219542E0,-3.172802124E0,-6.397695923E-1,3.250490570E0,4.587119728E0
9.747299542E0,-3.645070038E0,-9.608518982E-1,3.511547699E0,5.151770491E0
9.757379542E0,-4.292024689E0,-1.573228455E0,3.801045685E0,5.945121697E0
9.767459542E0,-4.974605255E0,-2.382295990E0,4.093238068E0,6.868524551E0
9.777539542E0,-5.621709595E0,-3.335214386E0,4.435276794E0,7.899300856E0
9.787619542E0,-6.205944672E0,-4.246219940E0,4.884342957E0,8.966657079E0
9.797699542E0,-6.729256439E0,-5.088368683E0,5.025050354E0,9.819649644E0
9.807779542E0,-7.167395325E0,-5.840105438E0,4.989125061E0,1.050570113E1
9.817859542E0,-7.548502808E0,-6.221362610E0,5.220094757E0,1.108758931E1
9.827939542E0,-7.802674255E0,-6.155200195E0,5.472919006E0,1.134553028E1
9.838019542E0,-8.190517731E0,-5.775140533E0,5.733377380E0,1.154592764E1
9.848099542E0,-8.600664825E0,-5.198389893E0,6.219716034E0,1.181861077E1
9.858179542E0,-8.879385223E0,-4.615801392E0,6.734495544E0,1.206244315E1
9.868258542E0,-9.000782776E0,-4.055516510E0,7.112908630E0,1.216777605E1
9.878338542E0,-8.939111023E0,-3.723057861E0,7.343878326E0,1.215324708E1
9.888418542E0,-8.660091248E0,-3.583697662E0,7.275620270E0,1.186485228E1
9.898498542E0,-7.945626984E0,-3.516786804E0,6.805447998E0,1.103697876E1
9.908578542E0,-7.016958160E0,-3.448678436E0,6.182892609E0,9.967910804E0
9.918658542E0,-6.154002686E0,-3.292403412E0,5.540428619E0,8.911117695E0
9.928738542E0,-5.574407959E0,-3.056643677E0,4.942272491E0,8.052524576E0
9.938818542E0,-5.271887054E0,-2.729573822E0,4.498295746E0,7.448357603E0
9.948898542E0,-5.142256622E0,-2.378404083E0,4.289929047E0,7.106553340E0
9.958978542E0,-5.233566742E0,-2.072440338E0,4.229155426E0,7.040666546E0
9.969058542E0,-5.344486084E0,-1.822460175E0,4.116290131E0,6.987756223E0
9.979138542E0,-5.478906555E0,-1.723515930E0,4.004023590E0,7.001509060E0
9.989218542E0,-5.460195465E0,-1.792522430E0,3.846850433E0,6.915571519E0