"Time (s)","Acceleration x (m/s^2)","Acceleration y (m/s^2)","Acceleration z (m/s^2)","Absolute acceleration (m/s^2)"
7.195416656E-4,8.878487091E0,-7.761060791E0,2.781216431E-1,1.179571741E1
1.072754167E-2,9.020691376E0,-7.670499115E0,3.914360046E-1,1.184747449E1
2.073554167E-2,9.218430176E0,-7.511380005E0,5.355862427E-1,1.190324061E1
3.074354167E-2,9.280700684E0,-7.214397583E0,6.893165588E-1,1.177514734E1
4.075154167E-2,9.376501465E0,-6.845414886E0,7.966433716E-1,1.163671454E1
5.075954167E-2,9.544452209E0,-6.530769196E0,7.764353943E-1,1.159096054E1
6.076754167E-2,9.695039063E0,-6.199358368E0,7.523355103E-1,1.153220861E1
7.077654167E-2,9.888586578E0,-5.896538086E0,7.345225525E-1,1.153658655E1
8.078454167E-2,1.008258316E1,-5.643115082E0,6.336323547E-1,1.157172074E1
9.079254167E-2,1.035950729E1,-5.480104065E0,5.309458923E-1,1.173170216E1
1.008005417E-1,1.065439407E1,-5.352419586E0,4.872367859E-1,1.193322707E1
1.108085417E-1,1.097502731E1,-5.211861877E0,3.947291565E-1,1.215609065E1
1.208165417E-1,1.121123611E1,-5.092559967E0,2.875520325E-1,1.231700728E1
1.308245417E-1,1.144445114E1,-4.970563660E0,2.493814087E-1,1.247974984E1
1.408335417E-1,1.167362457E1,-4.724625092E0,2.420466614E-1,1.259580007E1
1.508415417E-1,1.181687668E1,-4.224964142E0,3.698808289E-1,1.255490774E1
1.608495417E-1,1.205667801E1,-3.552861786E0,6.867718506E-1,1.258800886E1
1.708575417E-1,1.241623032E1,-2.944676514E0,1.174906769E0,1.281461279E1
1.808655417E-1,1.284209473E1,-2.580334167E0,1.636397095E0,1.320058017E1
1.908735417E-1,1.347946930E1,-2.435285797E0,1.956880646E0,1.383676593E1
2.008825417E-1,1.412866928E1,-2.280357971E0,2.306703186E0,1.449621356E1
2.108905417E-1,1.461620544E1,-1.990111542E0,2.788551178E0,1.501232904E1
2.208985417E-1,1.491962448E1,-1.772613831E0,3.201242981E0,1.536181340E1
2.309065417E-1,1.476484634E1,-1.669178925E0,3.429069214E0,1.524943807E1
2.409145417E-1,1.413286057E1,-1.454225922E0,3.452720032E0,1.462100531E1
2.509225417E-1,1.343740677E1,-1.340163116E0,3.717070312E0,1.400630392E1
2.609315417E-1,1.277233978E1,-1.356628876E0,3.931274872E0,1.343235004E1
2.709395417E-1,1.221415054E1,-1.359023895E0,4.003724213E0,1.292525539E1
2.809475417E-1,1.161659317E1,-1.307830353E0,4.125870209E0,1.239671175E1
2.909555417E-1,1.099269058E1,-1.191372528E0,4.300407257E0,1.186389975E1
3.009635417E-1,1.040546173E1,-1.073866882E0,4.496499481E0,1.138619039E1
3.109715417E-1,9.869426422E0,-1.046324158E0,4.602778473E0,1.094010703E1
3.209795417E-1,9.489666138E0,-1.092128906E0,4.673880615E0,1.063445668E1
3.309885417E-1,9.209299164E0,-1.263821869E0,4.710853729E0,1.042116019E1
3.409965417E-1,8.760831757E0,-1.541045380E0,4.717889099E0,1.006903528E1
3.510045417E-1,8.335715790E0,-1.718426514E0,4.728966064E0,9.736542890E0
3.610125417E-1,8.098459167E0,-1.911974030E0,4.584815826E0,9.500590599E0
3.710205417E-1,8.077053680E0,-2.203118591E0,4.497397614E0,9.503636829E0
3.810285417E-1,7.994126129E0,-2.317929840E0,4.389472046E0,9.409905215E0
3.910375417E-1,7.833360443E0,-2.259700928E0,4.146826630E0,9.146800272E0
4.010455417E-1,7.717501373E0,-2.236199799E0,3.844904480E0,8.907508487E0
4.110535417E-1,7.646399231E0,-2.155667267E0,3.604953461E0,8.724105227E0
4.210617917E-1,7.701784058E0,-2.034419403E0,3.603456573E0,8.743068069E0
4.310697917E-1,7.818990326E0,-2.056872711E0,3.732488251E0,8.904987569E0
4.410777917E-1,8.021968231E0,-2.149979095E0,4.067341919E0,9.247575612E0
4.510857917E-1,8.160879364E0,-2.334694977E0,4.706063690E0,9.705554497E0
4.610947917E-1,8.285121002E0,-2.674787750E0,5.314847717E0,1.020026106E1
4.711027917E-1,8.418044586E0,-3.081192627E0,5.723647614E0,1.063566475E1
4.811107917E-1,8.534652100E0,-3.401676178E0,6.136189728E0,1.104828094E1
4.911187917E-1,8.465645599E0,-3.635340271E0,6.393804016E0,1.121443641E1
5.011267917E-1,8.252339172E0,-3.686833191E0,6.435118103E0,1.109525060E1
5.111347917E-1,8.031997375E0,-3.603606262E0,6.387367401E0,1.087646184E1
5.211427917E-1,7.864795074E0,-3.574566650E0,6.224206696E0,1.064768882E1
5.311517917E-1,7.863896942E0,-3.718866577E0,6.003116455E0,1.056921241E1
5.411597917E-1,8.074359283E0,-4.055965576E0,5.697751465E0,1.068225193E1
5.511677917E-1,8.461304626E0,-4.527035980E0,5.405559082E0,1.101398201E1
5.611757917E-1,8.823251953E0,-5.009482727E0,5.087470551E0,1.135020039E1
5.711837917E-1,9.038953400E0,-5.291196899E0,4.851710815E0,1.154290003E1
5.811917917E-1,9.160650330E0,-5.239853668E0,4.898413696E0,1.163477708E1
5.912007917E-1,9.330846405E0,-4.978646851E0,5.164560242E0,1.176963473E1
6.012087917E-1,9.678722992E0,-4.782105560E0,5.498964844E0,1.211547881E1
6.112167917E-1,1.003243744E1,-4.530478821E0,5.874533844E0,1.247738703E1
6.212247917E-1,1.035172348E1,-4.165986786E0,6.214327240E0,1.277229376E1
6.312327917E-1,1.072444839E1,-3.928879852E0,6.656956787E0,1.321987004E1
6.412407917E-1,1.093760513E1,-3.727847900E0,6.940167847E0,1.347939115E1
6.512487917E-1,1.111304031E1,-3.916755066E0,6.912026367E0,1.366077391E1
6.612577917E-1,1.099613342E1,-4.020339661E0,6.690936127E0,1.348505497E1
6.712657917E-1,1.051907547E1,-3.690425720E0,6.334676971E0,1.282179095E1
6.812737917E-1,9.828711090E0,-3.394940186E0,5.781427460E0,1.189765036E1
6.912817917E-1,9.188043365E0,-3.386258240E0,5.120551758E0,1.105020072E1
7.012897917E-1,8.543633423E0,-3.303181000E0,4.478536835E0,1.019617423E1
7.112977917E-1,7.859106903E0,-3.153043213E0,3.997287598E0,9.364056330E0
7.213067917E-1,7.233258362E0,-3.060984650E0,3.689078522E0,8.677496983E0
7.313147917E-1,6.692433014E0,-3.004552002E0,3.474424896E0,8.117118992E0
7.413227917E-1,6.251300354E0,-2.939886475E0,3.308869171E0,7.659654287E0
7.513307917E-1,5.902226257E0,-2.878214722E0,3.214265900E0,7.311080635E0
7.613387917E-1,5.592669983E0,-2.772384796E0,3.156336365E0,6.994750478E0
7.713467917E-1,5.324278107E0,-2.659369812E0,3.084485779E0,6.703300506E0
7.813547917E-1,5.111869812E0,-2.567760315E0,2.982547760E0,6.451371726E0
7.913637917E-1,4.945865021E0,-2.472408600E0,2.845881958E0,6.218796444E0
8.013717917E-1,4.837191010E0,-2.369422760E0,2.699636078E0,6.024999256E0
8.113797917E-1,4.816384277E0,-2.290985870E0,2.528841248E0,5.902644477E0
8.213877917E-1,4.816084900E0,-2.273472290E0,2.346370697E0,5.819691183E0
8.313957917E-1,4.873116302E0,-2.309247894E0,2.129471741E0,5.797804604E0
8.414037917E-1,4.969665527E0,-2.317480774E0,1.973645782E0,5.827827234E0
8.514127917E-1,5.081632690E0,-2.352507935E0,1.907333679E0,5.915674615E0
8.614207917E-1,5.262456665E0,-2.443518677E0,1.830543365E0,6.084005481E0
8.714287917E-1,5.495222626E0,-2.530038757E0,1.755998383E0,6.299372837E0
8.814367917E-1,5.701942749E0,-2.592009888E0,1.710043945E0,6.492681778E0
8.914447917E-1,5.958359528E0,-2.663710785E0,1.710792389E0,6.747163404E0
9.014527917E-1,6.187682648E0,-2.729573822E0,1.683399353E0,6.969348835E0
9.114607917E-1,6.403683472E0,-2.785557404E0,1.654060364E0,7.176517801E0
9.214697917E-1,6.631360016E0,-2.837050323E0,1.614093475E0,7.391149298E0
9.314777917E-1,6.828649750E0,-2.893632660E0,1.602268066E0,7.587544420E0
9.414857917E-1,7.008575592E0,-2.931054840E0,1.627116394E0,7.769087595E0
9.514937917E-1,7.184310150E0,-3.009641418E0,1.678908691E0,7.968123254E0
9.615017917E-1,7.254813538E0,-3.157533875E0,1.732946320E0,8.099718673E0
9.715097917E-1,7.267537079E0,-3.317850494E0,1.795665894E0,8.188384645E0
9.815187917E-1,7.363038483E0,-3.536695404E0,1.810335388E0,8.366592155E0
9.915267917E-1,7.541168060E0,-3.811074829E0,1.772015076E0,8.633281213E0
1.001534792E0,7.692802734E0,-4.099524994E0,1.756297760E0,8.892125781E0
1.011542792E0,7.794141998E0,-4.427193604E0,1.732497253E0,9.129635230E0
1.021550792E0,7.939639435E0,-4.799619141E0,1.682351532E0,9.428919606E0
1.031558792E0,8.142317963E0,-5.180576935E0,1.663790131E0,9.793054517E0
1.041566792E0,8.386909332E0,-5.603896637E0,1.673968964E0,1.022477764E1
1.051575792E0,8.634344788E0,-6.053112488E0,1.681603088E0,1.067800869E1
1.061583792E0,8.839867401E0,-6.465504913E0,1.709145813E0,1.108454730E1
1.071591792E0,8.994645538E0,-6.801705780E0,1.695823517E0,1.140362518E1
1.081599792E0,9.103469238E0,-7.063511353E0,1.730850677E0,1.165170326E1
1.091607792E0,9.237141266E0,-7.300767975E0,1.819167023E0,1.191366276E1
1.101615792E0,9.477092285E0,-7.635621643E0,1.927990723E0,1.232214041E1
1.111624792E0,9.857151947E0,-8.173752594E0,2.008523254E0,1.296178389E1
1.121632792E0,1.039109161E1,-8.896300049E0,2.067500610E0,1.383450390E1
1.131640792E0,1.093101883E1,-9.588311005E0,2.088606720E0,1.468962759E1
1.141648792E0,1.136481674E1,-9.977801056E0,2.105820923E0,1.526925195E1
1.151656792E0,1.146435974E1,-1.022568558E1,1.929786987E0,1.548290243E1
1.161664792E0,1.138816818E1,-1.034603531E1,1.796713715E0,1.549061010E1
1.171673792E0,1.111408813E1,-9.749226379E0,1.958078156E0,1.491323037E1
1.181681792E0,1.068148773E1,-8.779842224E0,2.264341278E0,1.401096182E1
1.191689792E0,1.028675858E1,-8.248596954E0,2.258952484E0,1.337757900E1
1.201697792E0,1.011401779E1,-7.682174835E0,2.344424744E0,1.291532011E1
1.211705792E0,1.008243347E1,-7.175179138E0,2.459235992E0,1.261691333E1
1.221713792E0,1.013347733E1,-6.755152588E0,2.500400391E0,1.243267676E1
1.231721792E0,1.013198044E1,-6.288572845E0,2.496209106E0,1.218335898E1
1.241730792E0,1.019829254E1,-5.957311707E0,2.300865326E0,1.203281824E1
1.251738792E0,1.038675064E1,-5.714666290E0,1.987267456E0,1.202045056E1
1.261746792E0,1.051458481E1,-5.483247528E0,1.657054138E0,1.197365130E1
1.271754792E0,1.059332108E1,-5.291795654E0,1.315913544E0,1.191441065E1
1.281762792E0,1.064735870E1,-5.121300201E0,9.710307312E-1,1.185482449E1
1.291770792E0,1.059541672E1,-4.956941986E0,6.885681152E-1,1.171786053E1
1.301779792E0,1.043899200E1,-4.760251007E0,5.230123901E-1,1.148503747E1
1.311787792E0,1.023661285E1,-4.525239716E0,3.370989990E-1,1.119730650E1
1.321795792E0,1.005309448E1,-4.331542511E0,1.282832336E-1,1.094730221E1
1.331803792E0,9.781259766E0,-4.152365112E0,2.395019531E-2,1.062618239E1
1.341811792E0,9.535919952E0,-3.960464172E0,-1.901046753E-2,1.032566740E1
1.351819792E0,9.270222473E0,-3.865112457E0,-7.484436035E-2,1.004398928E1
1.361828792E0,8.994046783E0,-3.849993896E0,-4.071533203E-2,9.783505930E0
1.371836792E0,8.723858643E0,-3.928580475E0,-7.035369873E-3,9.567627901E0
1.381844792E0,8.294252014E0,-4.075724487E0,9.415420532E-2,9.242024215E0
1.391852792E0,7.732320557E0,-4.227808228E0,2.502795410E-1,8.816222743E0
1.401860792E0,7.276967468E0,-4.330943756E0,3.894900513E-1,8.477206607E0
1.411868792E0,6.966363373E0,-4.431983643E0,5.810916138E-1,8.277098834E0
1.421876667E0,6.665189667E0,-4.569697266E0,7.625143433E-1,8.117161728E0
1.431885667E0,6.400689697E0,-4.715793457E0,8.548722839E-1,7.996145518E0
1.441893667E0,6.155499573E0,-4.762196960E0,9.298663330E-1,7.837942732E0
1.451901667E0,5.908213806E0,-4.760550385E0,1.027613068E0,7.656749895E0
1.461909667E0,5.709277496E0,-4.780458984E0,1.075363770E0,7.523632425E0
1.471917667E0,5.631289673E0,-4.866080933E0,1.102756805E0,7.523711823E0
1.481925667E0,5.582491150E0,-4.933291168E0,1.163530426E0,7.540250144E0
1.491934667E0,5.445525970E0,-4.898862762E0,1.290466461E0,7.437601303E0
1.501942667E0,5.340594177E0,-4.823419647E0,1.468446350E0,7.344634636E0
1.511950667E0,5.312003632E0,-4.830305328E0,1.519041138E0,7.338713656E0
1.521958667E0,5.397625580E0,-4.844226379E0,1.578018494E0,7.422333426E0
1.531966667E0,5.515430603E0,-4.770579529E0,1.692230988E0,7.486123796E0
1.541974667E0,5.570216675E0,-4.643493805E0,1.743574219E0,7.458511888E0
1.551983667E0,5.706433411E0,-4.542603607E0,1.750010834E0,7.500744478E0
1.561991667E0,5.832171936E0,-4.454137573E0,1.701362000E0,7.533140359E0
1.571999667E0,5.946085052E0,-4.356690216E0,1.671873322E0,7.558560544E0
1.582007667E0,6.142177277E0,-4.327650604E0,1.602417755E0,7.682619613E0
1.592015667E0,6.506070557E0,-4.388424225E0,1.584904175E0,8.006194009E0
1.602023667E0,7.022197266E0,-4.484823761E0,1.627715149E0,8.489661666E0
1.612032667E0,7.572453003E0,-4.625231781E0,1.649120636E0,9.025209825E0
1.622040667E0,8.122858429E0,-4.810995483E0,1.693727875E0,9.591413906E0
1.632048667E0,8.660690002E0,-4.954996033E0,1.705702972E0,1.012269528E1
1.642056667E0,9.182055817E0,-5.036277008E0,1.628762970E0,1.059844819E1
1.652064667E0,9.687554626E0,-5.139113159E0,1.571432190E0,1.107829399E1
1.662072667E0,1.009306137E1,-5.214556274E0,1.506317596E0,1.145995103E1
1.672081667E0,1.049287994E1,-5.318739624E0,1.376687164E0,1.184418795E1
1.682089667E0,1.107936035E1,-5.651797028E0,1.299148407E0,1.250531175E1
1.692097667E0,1.187839874E1,-6.331982574E0,1.249002686E0,1.351851944E1
1.702105667E0,1.282218613E1,-7.220385132E0,1.291963348E0,1.477198659E1
1.712113667E0,1.381477203E1,-8.019872589E0,1.461560669E0,1.604064968E1
1.722121667E0,1.459988937E1,-8.506510620E0,1.700912933E0,1.698265578E1
1.732129667E0,1.494402374E1,-8.517138519E0,1.941762085E0,1.730999521E1
1.742138667E0,1.492321701E1,-8.134384460E0,2.155966644E0,1.713239063E1
1.752146667E0,1.453028412E1,-7.509434052E0,2.386936340E0,1.652931400E1
1.762154667E0,1.401206177E1,-6.873556366E0,2.608775024E0,1.582369613E1
1.772162667E0,1.356030121E1,-6.356381836E0,2.794389038E0,1.523463058E1
1.782170667E0,1.320613770E1,-6.009253693E0,3.035238190E0,1.482315330E1
1.792178667E0,1.283206558E1,-5.855822754E0,3.312312012E0,1.448875350E1
1.802187667E0,1.236578522E1,-5.910010071E0,3.574566650E0,1.416398213E1
1.812195667E0,1.173873917E1,-6.025420074E0,3.751648407E0,1.371781871E1
1.822203667E0,1.106948090E1,-6.138584747E0,3.716471558E0,1.319195933E1
1.832211667E0,1.045485901E1,-6.325096893E0,3.492537231E0,1.270860905E1
1.842219667E0,9.961934052E0,-6.524332581E0,3.310066681E0,1.235975676E1
1.852227667E0,9.520502014E0,-6.573879547E0,3.018772430E0,1.195695772E1
1.862236667E0,9.134454803E0,-6.571185150E0,2.715203705E0,1.157545118E1
1.872244667E0,8.789571991E0,-6.589596863E0,2.510728912E0,1.126867882E1
1.882252667E0,8.479416962E0,-6.525530090E0,2.381846924E0,1.096158062E1
1.892260667E0,8.217461700E0,-6.396797791E0,2.288441162E0,1.066220717E1
1.902268667E0,7.996820526E0,-6.302942963E0,2.240091705E0,1.042565295E1
1.912276667E0,7.771539001E0,-6.235433350E0,2.197430420E0,1.020324203E1
1.922285667E0,7.572003937E0,-6.136788483E0,2.089205475E0,9.967958468E0
1.932293667E0,7.470814362E0,-6.055208130E0,1.997296600E0,9.821802606E0
1.942301667E0,7.368127899E0,-6.056705017E0,1.842219086E0,9.714255276E0
1.952309667E0,7.273674316E0,-6.049819336E0,1.694626007E0,9.611368756E0
1.962317667E0,7.159162445E0,-6.032305756E0,1.601369934E0,9.497721059E0
1.972325667E0,7.111262054E0,-6.015390930E0,1.490001526E0,9.432660314E0
1.982334667E0,7.116650848E0,-6.004763031E0,1.363813934E0,9.410838794E0
1.992342667E0,7.149732056E0,-6.022725677E0,1.221459961E0,9.427823582E0
2.002350667E0,7.234605560E0,-6.062692566E0,1.073717194E0,9.499927756E0
2.012358667E0,7.341034241E0,-6.113137665E0,9.476792908E-1,9.599965202E0
2.022366667E0,7.507338409E0,-6.141728210E0,9.583071899E-1,9.746758850E0
2.032374667E0,7.599396973E0,-6.168073425E0,9.680369568E-1,9.835296624E0
2.042383667E0,7.651788025E0,-6.156996460E0,1.002914429E0,9.872401062E0
2.052391667E0,7.684420166E0,-6.117179260E0,1.089284821E0,9.882142319E0
2.062399667E0,7.635471954E0,-6.080355835E0,1.225651245E0,9.837346188E0
2.072407667E0,7.587122498E0,-6.049819336E0,1.327140198E0,9.794184136E0
2.082415667E0,7.601941681E0,-6.007756805E0,1.441652069E0,9.795969571E0
2.092423667E0,7.614964600E0,-6.007457428E0,1.547182617E0,9.821965417E0
2.102432667E0,7.599696350E0,-5.991141357E0,1.668580170E0,9.820046800E0
2.112440667E0,7.513924713E0,-5.964496765E0,1.759441223E0,9.753456806E0
2.122448667E0,7.395670624E0,-5.986351318E0,1.796713715E0,9.683001924E0
2.132456667E0,7.288942566E0,-6.027366028E0,1.838776245E0,9.635295690E0
2.142464667E0,7.176975403E0,-6.135291595E0,1.851649475E0,9.621818158E0
2.152472667E0,7.085066528E0,-6.275998993E0,1.821711731E0,9.638722151E0
2.162481667E0,6.951394501E0,-6.455775146E0,1.767973480E0,9.650111319E0
2.172489667E0,6.818171539E0,-6.675218811E0,1.746567993E0,9.700335513E0
2.182497667E0,6.672374725E0,-6.855893097E0,1.805245972E0,9.735644183E0
2.192505667E0,6.530769196E0,-6.977440338E0,1.872306519E0,9.738642188E0
2.202513667E0,6.360124054E0,-6.996450806E0,1.911674652E0,9.646553884E0
2.212521667E0,6.176306305E0,-6.974745941E0,1.934427338E0,9.515032824E0
2.222530667E0,5.994434509E0,-6.923253021E0,1.925296326E0,9.357961499E0
2.232538667E0,5.850433960E0,-6.803651733E0,1.939367065E0,9.180326739E0
2.242546667E0,5.795947266E0,-6.737639008E0,1.879491577E0,9.084122010E0
2.252554667E0,5.814209290E0,-6.807543640E0,1.801653442E0,9.132011564E0
2.262562667E0,6.012097778E0,-7.116501160E0,1.682052155E0,9.466742201E0
2.272570667E0,6.372099152E0,-7.630382538E0,1.457519073E0,1.004742490E1
2.282579667E0,6.585555267E0,-8.005352783E0,1.279838562E0,1.044476894E1
2.292587667E0,6.628366241E0,-8.075257416E0,1.205892334E0,1.051661531E1
2.302595667E0,6.570736084E0,-7.940986633E0,1.222657471E0,1.037924529E1
2.312603667E0,6.420149231E0,-7.711813202E0,1.235381012E0,1.011021984E1
2.322611667E0,6.220614166E0,-7.374115448E0,1.328188019E0,9.738465108E0
2.332619667E0,6.095324707E0,-6.956034851E0,1.505569153E0,9.370493189E0
2.342628667E0,6.156248016E0,-6.610403595E0,1.684746552E0,9.188862621E0
2.352636667E0,6.314468994E0,-6.339317322E0,1.854343872E0,9.137726959E0
2.362644667E0,6.495891724E0,-6.072422333E0,1.987716522E0,9.111637572E0
2.372652667E0,6.769822083E0,-5.985453186E0,2.080224152E0,9.272727398E0
2.382660667E0,7.112609253E0,-6.001170502E0,2.121837616E0,9.544917634E0
2.392668667E0,7.523953857E0,-6.076314240E0,2.128423920E0,9.902608988E0
2.402677667E0,7.963739319E0,-6.194718018E0,2.117346954E0,1.030916259E1
2.412685667E0,8.425828400E0,-6.301895142E0,2.099533997E0,1.072923621E1
2.422696833E0,8.889564056E0,-6.406377869E0,2.078727264E0,1.115289799E1
2.432704833E0,9.274563446E0,-6.481521606E0,2.032174072E0,1.149597238E1
2.442712833E0,9.660460968E0,-6.553671570E0,1.984273682E0,1.184113420E1
2.452721833E0,9.965526581E0,-6.584357758E0,1.928888855E0,1.209901233E1
2.462729833E0,1.006941055E1,-6.532116394E0,1.965113525E0,1.216237003E1
2.472737833E0,1.004201752E1,-6.365063782E0,2.070045319E0,1.206819126E1
2.482745833E0,9.895472260E0,-6.107748871E0,2.111658783E0,1.181880156E1
2.492753833E0,9.695338440E0,-5.899681549E0,2.144141235E0,1.155002907E1
2.502761833E0,9.583820343E0,-5.751489716E0,2.171983337E0,1.138625302E1
2.512770833E0,9.498048706E0,-5.578299866E0,2.176473999E0,1.122797389E1
2.522778833E0,9.408534851E0,-5.469775543E0,2.165846100E0,1.109638959E1
2.532786833E0,9.310339050E0,-5.407804413E0,2.188898163E0,1.098717602E1
2.542794833E0,9.146429901E0,-5.345234528E0,2.233355713E0,1.082666107E1
2.552802833E0,8.976682892E0,-5.302722931E0,2.265688477E0,1.066925726E1
2.562810833E0,8.823701019E0,-5.306465149E0,2.294279022E0,1.054893304E1
2.572819833E0,8.650511169E0,-5.336702271E0,2.340832214E0,1.043030345E1
2.582827833E0,8.416847076E0,-5.412594452E0,2.365830231E0,1.028283259E1
2.592835833E0,8.165519714E0,-5.467230835E0,2.389331360E0,1.011312165E1
2.602843833E0,7.944429474E0,-5.434748383E0,2.364932098E0,9.911778522E0
2.612851833E0,7.731721802E0,-5.473218384E0,2.298170929E0,9.747678242E0
2.622859833E0,7.574249268E0,-5.540727997E0,2.236050110E0,9.647219226E0
2.632868833E0,7.470814362E0,-5.532794495E0,2.226320343E0,9.559361088E0
2.642876833E0,7.344776459E0,-5.458848267E0,2.255210266E0,9.425006046E0
2.652884833E0,7.216642914E0,-5.362299042E0,2.295326843E0,9.279154664E0
2.662892833E0,7.136409760E0,-5.265749817E0,2.353256378E0,9.175744164E0
2.672900833E0,7.134014740E0,-5.206173706E0,2.392474823E0,9.149991625E0
2.682909833E0,7.129075012E0,-5.132975922E0,2.403102722E0,9.107472483E0
2.692917833E0,7.191794586E0,-5.044060822E0,2.444267120E0,9.118053559E0
2.702925833E0,7.280859375E0,-4.989574127E0,2.429148560E0,9.154645047E0
2.712933833E0,7.382647705E0,-4.921166382E0,2.378703461E0,9.185836698E0
2.722941833E0,7.533234558E0,-4.827461243E0,2.298320618E0,9.237763940E0
2.732949833E0,7.724686432E0,-4.790338440E0,2.165247345E0,9.343790393E0
2.742958833E0,7.986641693E0,-4.751119995E0,2.076931000E0,9.522249163E0
2.752966833E0,8.224646759E0,-4.634213104E0,1.986668701E0,9.647154914E0
2.762974833E0,8.445886688E0,-4.506977692E0,1.882934418E0,9.756602477E0
2.772982833E0,8.711434479E0,-4.455035706E0,1.813179474E0,9.951083038E0
2.782990833E0,8.994346161E0,-4.447551270E0,1.800605621E0,1.019417264E1
2.792998833E0,9.284592590E0,-4.465364227E0,1.802252197E0,1.045902721E1
2.803007833E0,9.551637268E0,-4.535119171E0,1.846560059E0,1.073363240E1
2.813015833E0,9.965077515E0,-4.616998901E0,1.935624847E0,1.115195464E1
2.823023833E0,1.032552795E1,-4.666396179E0,2.045795746E0,1.151421127E1
2.833031833E0,1.059736267E1,-4.709805908E0,2.155667267E0,1.179547662E1
2.843039833E0,1.086545517E1,-4.824617157E0,2.294428711E0,1.210782598E1
2.853047833E0,1.128787674E1,-5.227579193E0,2.347418518E0,1.265915160E1
2.863056833E0,1.198198334E1,-6.070177002E0,2.377356262E0,1.364063035E1
2.873064833E0,1.297950897E1,-7.264243927E0,2.419718170E0,1.506956964E1
2.883072833E0,1.409049866E1,-8.236172791E0,2.513273621E0,1.651342602E1
2.893080833E0,1.493189896E1,-8.623118134E0,2.652783508E0,1.744583140E1
2.903088833E0,1.538919800E1,-8.393795013E0,2.800077209E0,1.775172223E1
2.913097833E0,1.566716995E1,-8.539142761E0,2.801574097E0,1.806172724E1
2.923105833E0,1.562001801E1,-8.241262207E0,2.616558838E0,1.785356394E1
2.933113833E0,1.518577103E1,-7.211104431E0,2.570903778E0,1.700638748E1
2.943121833E0,1.465796860E1,-6.581214294E0,2.499352570E0,1.626084833E1
2.953129833E0,1.418884415E1,-6.420448608E0,2.307451630E0,1.574388108E1
2.963137833E0,1.379950378E1,-6.457421722E0,2.125579834E0,1.538319504E1
2.973146833E0,1.351270020E1,-6.777306519E0,1.977687378E0,1.524585837E1
2.983154833E0,1.324490707E1,-7.293582916E0,1.787882080E0,1.522565064E1
2.993162833E0,1.308668610E1,-7.872429199E0,1.595681763E0,1.535521718E1
3.003170833E0,1.290855652E1,-8.536747742E0,1.363065491E0,1.553592099E1
3.013178833E0,1.260813126E1,-9.041049042E0,1.184636536E0,1.555984914E1
3.023187833E0,1.225336899E1,-9.325906677E0,1.113534393E0,1.543883240E1
3.033195833E0,1.186956711E1,-9.566157074E0,1.142424316E0,1.528735156E1
3.043203833E0,1.148771118E1,-9.718989258E0,1.269360352E0,1.510091176E1
3.053211833E0,1.113339798E1,-9.832153931E0,1.372346191E0,1.491667307E1
3.063219833E0,1.082803299E1,-9.854008484E0,1.512604523E0,1.471855136E1
3.073227833E0,1.055036041E1,-9.812544708E0,1.668729858E0,1.450450957E1
3.083236833E0,1.030546967E1,-9.808802490E0,1.747765503E0,1.433422462E1
3.093244833E0,1.010593460E1,-9.743837585E0,1.710792389E0,1.414210365E1
3.103252833E0,9.908495178E0,-9.576186218E0,1.607507172E0,1.387320073E1
3.113260833E0,9.734257507E0,-9.422755280E0,1.448986816E0,1.362511097E1
3.123268833E0,9.625284119E0,-9.285341034E0,1.215921478E0,1.342915178E1
3.133277833E0,9.543554077E0,-9.106762390E0,1.025517426E0,1.323118406E1
3.143285833E0,9.526489563E0,-8.908873901E0,9.406439209E-1,1.307695869E1
3.153293833E0,9.649384003E0,-8.833730164E0,8.331674194E-1,1.310875922E1
3.163301833E0,9.759255524E0,-8.851543121E0,6.271957397E-1,1.319038508E1
3.173309833E0,9.786498871E0,-8.873397675E0,5.837860107E-1,1.322322020E1
3.183317833E0,9.679022369E0,-8.790021057E0,8.506809998E-1,1.310235102E1
3.193326833E0,9.354497223E0,-8.589737549E0,1.013392639E0,1.274037574E1
3.203334833E0,8.958121490E0,-8.397686920E0,1.148411865E0,1.233239377E1
3.213342833E0,8.504115601E0,-8.204289093E0,1.435065765E0,1.190335060E1
3.223350833E0,7.998916168E0,-7.921527100E0,1.813179474E0,1.140266948E1
3.233358833E0,7.417225800E0,-7.506440277E0,2.084565125E0,1.075673259E1
3.243366833E0,6.787185974E0,-7.149881744E0,2.160157928E0,1.009222397E1
3.253375833E0,6.164331207E0,-6.905589752E0,2.140249329E0,9.500885024E0
3.263383833E0,5.761818237E0,-6.675069122E0,2.451152802E0,9.152226354E0
3.273391833E0,5.566773834E0,-6.276448059E0,2.887944489E0,8.872597958E0
3.283399833E0,5.491181030E0,-6.061345367E0,3.180436249E0,8.775428850E0
3.293407833E0,5.272635498E0,-5.967939606E0,3.344046021E0,8.637107850E0
3.303416833E0,4.967569885E0,-5.745202789E0,3.443289642E0,8.339085634E0
3.313424833E0,4.724325714E0,-5.441634064E0,3.585044861E0,8.048799997E0
3.323432833E0,4.487967224E0,-5.213059387E0,3.576512604E0,7.753017502E0
3.333440833E0,4.265529785E0,-5.048551483E0,3.472478943E0,7.465971232E0
3.343448833E0,4.045187988E0,-4.888085175E0,3.444337463E0,7.219444791E0
3.353456833E0,3.834276581E0,-4.670288086E0,3.259920959E0,6.865883218E0
3.363465833E0,3.620072021E0,-4.541705475E0,3.105442200E0,6.586029253E0
3.373473833E0,3.508853302E0,-4.433630219E0,3.018473053E0,6.409392169E0
3.383481833E0,3.458408203E0,-4.283791809E0,3.061882782E0,6.299729021E0
3.393489833E0,3.501368866E0,-4.133953400E0,3.062930603E0,6.223399274E0
3.403497833E0,3.493135986E0,-3.954027557E0,3.068618774E0,6.103503431E0
3.413506833E0,3.496429138E0,-3.782633972E0,3.185974731E0,6.056712927E0
3.423511583E0,3.544778595E0,-3.582649841E0,3.274740143E0,6.010387523E0
3.433519583E0,3.535797272E0,-3.280128937E0,3.204087067E0,5.790274788E0
3.443527583E0,3.454067230E0,-3.025358734E0,3.284619598E0,5.645538221E0
3.453535583E0,3.313659210E0,-2.850222931E0,3.468587036E0,5.579892843E0
3.463543583E0,3.257525940E0,-2.767594757E0,3.592379608E0,5.583569399E0
3.473552583E0,3.334316254E0,-2.729723511E0,3.777993622E0,5.730819412E0
3.483560583E0,3.441643066E0,-2.769690399E0,3.873495026E0,5.875377062E0
3.493568583E0,3.525768127E0,-2.887196045E0,3.845503235E0,5.962787689E0
3.503576583E0,3.695365448E0,-3.009940796E0,3.758683777E0,6.069857752E0
3.513584583E0,3.995940399E0,-3.231330414E0,3.544479218E0,6.242785343E0
3.523593583E0,4.283193054E0,-3.485950928E0,3.332969055E0,6.450292965E0
3.533601583E0,4.584366760E0,-3.773802338E0,3.306773529E0,6.796525130E0
3.543609583E0,4.926854553E0,-4.174369354E0,3.456911316E0,7.324581295E0
3.553617583E0,5.223387909E0,-4.665647736E0,3.775748291E0,7.956652889E0
3.563625583E0,5.589825897E0,-5.189558258E0,4.327949982E0,8.769767358E0
3.573634583E0,5.850134583E0,-5.824238434E0,4.972359924E0,9.636918137E0
3.583642583E0,6.249504089E0,-6.572682037E0,5.696404266E0,1.071006406E1
3.593650583E0,6.698719940E0,-7.256909180E0,6.609804840E0,1.188381671E1
3.603658583E0,6.929090881E0,-7.808212738E0,7.429500275E0,1.281319480E1
3.613666583E0,7.158264313E0,-8.183332672E0,8.035739594E0,1.351964468E1
3.623674583E0,7.340435486E0,-8.272098083E0,8.561596069E0,1.398608334E1
3.633683583E0,7.491920471E0,-8.134234772E0,8.806486816E0,1.413679093E1
3.643691583E0,7.600145416E0,-7.897726593E0,8.761430511E0,1.403206900E1
3.653699583E0,7.708669739E0,-7.640860748E0,8.563392334E0,1.382526782E1
3.663707583E0,7.774981842E0,-7.375762024E0,8.282276917E0,1.354430947E1
3.673715583E0,7.933951263E0,-7.143894196E0,8.026907959E0,1.335717254E1
3.683724583E0,8.210875397E0,-7.086114349E0,7.841743011E0,1.338373733E1
3.693732583E0,8.485105133E0,-7.182214508E0,7.688761139E0,1.351659211E1
3.703740583E0,8.636739807E0,-7.329059143E0,7.600594482E0,1.364101972E1
3.713748583E0,8.823551331E0,-7.556136932E0,7.629035339E0,1.389792947E1
3.723756583E0,9.214687958E0,-7.870632935E0,7.745493164E0,1.438228081E1
3.733764583E0,9.708211670E0,-7.960296478E0,7.699688416E0,1.472755565E1
3.743773583E0,9.927056580E0,-7.999664612E0,7.355404358E0,1.471879953E1
3.753781583E0,9.999056854E0,-7.915090485E0,6.765181732E0,1.443597864E1
3.763789583E0,9.971963196E0,-7.704927521E0,6.194268951E0,1.404189894E1
3.773797583E0,1.009440857E1,-7.422165527E0,5.692362671E0,1.376185374E1
3.783805583E0,1.030217651E1,-7.307054901E0,5.169649658E0,1.364746020E1
3.793814583E0,1.048794022E1,-7.354955292E0,4.700974274E0,1.364519756E1
3.803822583E0,1.070184540E1,-7.345973969E0,4.453089752E0,1.372307680E1
3.813830583E0,1.099778000E1,-7.335346069E0,4.340972900E0,1.391411199E1
3.823838583E0,1.120464981E1,-7.476203156E0,4.220174103E0,1.411551134E1
3.833846583E0,1.122919876E1,-7.624844055E0,4.208199005E0,1.421063301E1
3.843855583E0,1.113564331E1,-7.696544952E0,4.516707458E0,1.427024886E1
3.853863583E0,1.105750580E1,-7.685617676E0,4.920717316E0,1.433703639E1
3.863871583E0,1.090123077E1,-7.590265961E0,5.231022034E0,1.427629368E1
3.873879583E0,1.051772827E1,-7.437882843E0,5.463638306E0,1.399271427E1
3.883887583E0,1.004516098E1,-7.223079529E0,5.705834656E0,1.362478206E1
3.893896583E0,9.611363068E0,-6.940317535E0,5.904770966E0,1.324434323E1
3.903904583E0,9.233099670E0,-6.702312469E0,6.003266144E0,1.289225839E1
3.913912583E0,8.879385223E0,-6.506968689E0,6.058950348E0,1.256562783E1
3.923920583E0,8.530011749E0,-6.308182068E0,6.118077393E0,1.224684173E1
3.933928583E0,8.291856995E0,-6.199058990E0,6.180048523E0,1.205720633E1
3.943936583E0,8.153245239E0,-6.206842804E0,6.203399963E0,1.197841712E1
3.953945583E0,8.002508698E0,-6.269263000E0,6.232140198E0,1.192406707E1
3.963953583E0,7.869585114E0,-6.391708374E0,6.100713501E0,1.183228680E1
3.973961583E0,7.518115997E0,-6.072721710E0,5.801036682E0,1.127173650E1
3.983969583E0,7.154971161E0,-5.724695435E0,5.519921265E0,1.069744273E1
3.993977583E0,7.012617188E0,-5.620362396E0,5.241500244E0,1.040377807E1
4.003986583E0,6.938521271E0,-5.506748657E0,4.821473694E0,1.008533424E1
4.013994583E0,6.856342163E0,-5.508993988E0,4.428840179E0,9.847490439E0
4.024002583E0,6.866371307E0,-5.653293915E0,4.082161102E0,9.786257011E0
4.034010583E0,7.083869019E0,-5.752238159E0,3.868405609E0,9.911306981E0
4.044018583E0,7.294780426E0,-5.796096954E0,3.684288483E0,1.001910889E1
4.054027583E0,7.441924438E0,-5.978268127E0,3.401975555E0,1.013387225E1
4.064035583E0,7.455695801E0,-6.048472137E0,3.276985474E0,1.014445902E1
4.074043583E0,7.243586884E0,-6.280639343E0,2.871029663E0,1.000793649E1
4.084051583E0,6.818171539E0,-6.174060974E0,2.500400391E0,9.531972208E0
4.094059583E0,6.297703857E0,-6.145470428E0,2.137854309E0,9.055291365E0
4.104067583E0,5.813760223E0,-6.391408997E0,1.706002350E0,8.806836033E0
4.114076583E0,5.418132935E0,-6.447841644E0,1.234632568E0,8.512058737E0
4.124084583E0,4.898713074E0,-6.316414948E0,1.007704468E0,8.056671513E0
4.134092583E0,4.406686249E0,-6.157894592E0,9.425898743E-1,7.630663482E0
4.144100583E0,4.087100830E0,-5.991141357E0,8.641529846E-1,7.303761246E0
4.154108583E0,3.957171021E0,-5.828130341E0,7.548802185E-1,7.084924128E0
4.164117583E0,3.978277130E0,-5.882766724E0,9.364526367E-1,7.163140149E0
4.174125583E0,4.203558655E0,-5.826783142E0,1.275198212E0,7.297084187E0
4.184133583E0,4.628674622E0,-5.858367462E0,1.535656586E0,7.622554639E0
4.194141583E0,5.409151611E0,-6.055956573E0,1.668729858E0,8.289643570E0
4.204149583E0,6.508315887E0,-5.429658966E0,5.147795105E-1,8.491429216E0
4.214158583E0,7.142546997E0,-4.364024963E0,-1.320703583E0,8.473780115E0
4.224166583E0,8.080646210E0,-4.321363678E0,-1.873653717E0,9.353160185E0
4.234174583E0,8.789272614E0,-5.639073486E0,-1.329834595E0,1.052705671E1
4.244182583E0,9.041647797E0,-6.912475433E0,1.209634552E0,1.144538891E1
4.254190583E0,8.906927948E0,-6.752607880E0,2.857707367E0,1.153679202E1
4.264199583E0,9.156758423E0,-6.149512024E0,2.206411743E0,1.124859883E1
4.274207583E0,9.663005676E0,-5.842051392E0,1.266216888E0,1.136250625E1
4.284215583E0,1.037118301E1,-5.698050842E0,1.132245483E0,1.188743876E1
4.294223583E0,1.110331055E1,-5.507946167E0,1.108145599E0,1.244383232E1
4.304231583E0,1.170625671E1,-5.343737640E0,8.535250854E-1,1.289652989E1
4.314240583E0,1.214514404E1,-5.212610321E0,7.107220459E-1,1.323559428E1
4.324248583E0,1.238255035E1,-5.050796814E0,1.012045441E0,1.341127651E1
4.334256583E0,1.250170258E1,-4.939877472E0,1.308279419E0,1.350579697E1
4.344264583E0,1.261486725E1,-4.882247314E0,1.374741211E0,1.359636451E1
4.354272583E0,1.264824783E1,-4.854255524E0,1.208736420E0,1.360158129E1
4.364281583E0,1.255319550E1,-4.853207703E0,9.008267212E-1,1.348880391E1
4.374289583E0,1.228315704E1,-4.804858246E0,5.399272156E-1,1.320053526E1
4.384297583E0,1.191866501E1,-4.800666962E0,1.384620667E-1,1.284990858E1
4.394305583E0,1.144699585E1,-4.791535950E0,-1.465452576E-1,1.241023796E1
4.404313583E0,1.095526840E1,-4.784799957E0,-3.396437073E-1,1.195941362E1
4.414322583E0,1.049347870E1,-4.831802216E0,-5.119354248E-1,1.156380066E1
4.424334083E0,1.005084915E1,-4.843927002E0,-5.297483826E-1,1.116977309E1
4.434342083E0,9.638157349E0,-4.865631866E0,-3.921844482E-1,1.080380762E1
4.444350083E0,9.290879517E0,-4.936584320E0,-2.580633545E-1,1.052411059E1
4.454358083E0,8.996441803E0,-5.017565918E0,-1.252894592E-1,1.030182655E1
4.464367083E0,8.770561523E0,-5.148992615E0,8.487350464E-2,1.017064786E1
4.474375083E0,8.604706421E0,-5.422773285E0,2.674937439E-1,1.017442851E1
4.484383083E0,8.414452057E0,-5.794899445E0,4.875361633E-1,1.022846785E1
4.494391083E0,8.183931427E0,-6.233487396E0,7.800279236E-1,1.031705105E1
4.504399083E0,8.133186951E0,-6.806346130E0,1.090632019E0,1.066135807E1
4.514408083E0,8.273445282E0,-7.285499725E0,1.353934479E0,1.110682410E1
4.524416083E0,8.560398560E0,-7.619006195E0,1.506766663E0,1.155854769E1
4.534424083E0,8.947643280E0,-7.896978149E0,1.457070007E0,1.202271339E1
4.544432083E0,9.263037415E0,-7.986641693E0,1.202748871E0,1.228970758E1
4.554440083E0,9.499994659E0,-7.809559937E0,9.375004578E-1,1.233361391E1
4.564449083E0,9.679920502E0,-7.471113739E0,7.057823181E-1,1.224812353E1
4.574457083E0,9.871971130E0,-7.185807037E0,4.029620361E-1,1.221695605E1
4.584465083E0,1.012284943E1,-6.915169830E0,1.118174744E-1,1.225985960E1
4.594473083E0,1.037462585E1,-6.685247955E0,-8.068222046E-2,1.234228145E1
4.604481083E0,1.052371582E1,-6.611301727E0,-2.121089172E-1,1.242991936E1
4.614489083E0,1.053868469E1,-6.562054138E0,-1.805245972E-1,1.241599850E1
4.624498083E0,1.040785675E1,-6.487958221E0,-2.439926147E-2,1.226448855E1
4.634506083E0,1.015877472E1,-6.395001526E0,1.089733887E-1,1.200452513E1
4.644514083E0,9.869426422E0,-6.381080475E0,2.359094238E-1,1.175497423E1
4.654522083E0,9.609417114E0,-6.475234680E0,3.791615295E-1,1.159367607E1
4.664531083E0,9.395661621E0,-6.589147797E0,5.161267090E-1,1.148745893E1
4.674539083E0,9.152118073E0,-6.675967255E0,6.138734436E-1,1.134489509E1
4.684547083E0,8.860674133E0,-6.716233521E0,7.026388550E-1,1.114060322E1
4.694555083E0,8.531808014E0,-6.629414062E0,8.006849670E-1,1.083429625E1
4.704563083E0,8.168812866E0,-6.382577362E0,9.476792908E-1,1.040984599E1
4.714572083E0,7.867788849E0,-6.060896301E0,1.126108246E0,9.995233120E0
4.724580083E0,7.699987793E0,-5.790708160E0,1.238374786E0,9.713685455E0
4.734588083E0,7.643405457E0,-5.550158386E0,1.346150665E0,9.541384947E0
4.744596083E0,7.584428101E0,-5.280119934E0,1.520538025E0,9.365642104E0
4.754604083E0,7.511230316E0,-5.020410004E0,1.639839935E0,9.182166002E0
4.764612083E0,7.480394440E0,-4.828359375E0,1.678459625E0,9.060164565E0
4.774621083E0,7.443720703E0,-4.713997192E0,1.730850677E0,8.979231120E0
4.784629083E0,7.374714203E0,-4.596790924E0,1.803150330E0,8.875147744E0
4.794637083E0,7.251670074E0,-4.493356018E0,1.866917725E0,8.732831669E0
4.804645083E0,7.144792328E0,-4.468358002E0,1.923500061E0,8.643733749E0
4.814654083E0,7.078929291E0,-4.482877808E0,2.054178314E0,8.627113184E0
4.824662083E0,7.047943726E0,-4.594545593E0,2.105072479E0,8.672640319E0
4.834670083E0,7.047794037E0,-4.740043030E0,2.157463531E0,8.763221873E0
4.844678083E0,7.063511353E0,-4.857398987E0,2.182012482E0,8.845829301E0
4.854686083E0,7.135212250E0,-4.951553192E0,2.155816956E0,8.948557404E0
4.864694083E0,7.246281281E0,-5.074447632E0,2.040107574E0,9.078581942E0
4.874703083E0,7.302414551E0,-5.106630707E0,1.943558350E0,9.120326447E0
4.884711083E0,7.347620544E0,-5.029241638E0,1.948647766E0,9.114714874E0
4.894719083E0,7.421267395E0,-4.971312103E0,1.865869904E0,9.125273929E0
4.904727083E0,7.444918213E0,-4.933141479E0,1.731000366E0,9.097200356E0
4.914736083E0,7.385641479E0,-4.849764862E0,1.697619781E0,8.997212469E0
4.924744083E0,7.313641205E0,-4.739743652E0,1.737736359E0,8.886745479E0
4.934752083E0,7.316934357E0,-4.655319214E0,1.703008575E0,8.837972820E0
4.944760083E0,7.295828247E0,-4.631369019E0,1.693578186E0,8.806071534E0
4.954768083E0,7.191046143E0,-4.544998627E0,1.776206360E0,8.690400806E0
4.964777083E0,7.160659332E0,-4.419559479E0,1.748364258E0,8.594435737E0
4.974785083E0,7.214996338E0,-4.366869049E0,1.608105927E0,8.585553105E0
4.984793083E0,7.233258362E0,-4.301754456E0,1.457818451E0,8.541097855E0
4.994801083E0,7.252867584E0,-4.164639587E0,1.282832336E0,8.461321994E0
5.004809083E0,7.327412567E0,-4.089046783E0,1.167122955E0,8.471921536E0
5.014818083E0,7.438032532E0,-4.112547913E0,1.048270111E0,8.563658593E0
5.024826083E0,7.515271912E0,-4.083807678E0,1.002165985E0,8.611685881E0
5.034834083E0,7.612419891E0,-4.029919739E0,1.047821045E0,8.676815006E0
5.044842083E0,7.729476471E0,-4.017345886E0,1.123563538E0,8.783294912E0
5.054850083E0,7.844437408E0,-4.002077637E0,1.175655212E0,8.884480224E0
5.064859083E0,7.906857605E0,-3.933370514E0,1.241667938E0,8.918045753E0
5.074867083E0,7.959248657E0,-3.852388916E0,1.233584747E0,8.928172874E0
5.084875083E0,7.960895233E0,-3.833677826E0,1.118923187E0,8.906454271E0
5.094883083E0,7.992629242E0,-3.895499268E0,9.595046997E-1,8.943024433E0
5.104891083E0,8.077802124E0,-4.018393707E0,7.696994019E-1,9.054877819E0
5.114900083E0,8.091423798E0,-4.174069977E0,5.489085388E-1,9.121145752E0
5.124908083E0,7.997419281E0,-4.254003754E0,3.201841736E-1,9.064092950E0
5.134916083E0,7.846233673E0,-4.256548462E0,2.049238586E-1,8.928806272E0
5.144924083E0,7.726632385E0,-4.289180603E0,2.335144043E-1,8.840387279E0
5.154932083E0,7.668253784E0,-4.387376404E0,3.112028503E-1,8.840137726E0
5.164941083E0,7.767347717E0,-4.558919678E0,4.872367859E-1,9.019580859E0
5.174949083E0,8.042176208E0,-4.836592255E0,6.686595154E-1,9.408311663E0
5.184957083E0,8.384963379E0,-5.199138336E0,7.818241882E-1,9.896964149E0
5.194965083E0,8.679251404E0,-5.587281189E0,8.566685486E-1,1.035765403E1
5.204973083E0,8.844956818E0,-5.978268127E0,8.720864868E-1,1.071137180E1
5.214982083E0,8.837322693E0,-6.233337708E0,9.621990967E-1,1.085719109E1
5.224990083E0,8.621621246E0,-6.234834595E0,1.140328674E0,1.070074132E1
5.234998083E0,8.355624390E0,-6.145620117E0,1.353335724E0,1.046024011E1
5.245006083E0,8.055947571E0,-6.034401398E0,1.604214020E0,1.019243808E1
5.255014083E0,7.750283203E0,-5.886508942E0,1.788929901E0,9.895359894E0
5.265023083E0,7.593708801E0,-5.811664581E0,1.948647766E0,9.758949056E0
5.275031083E0,7.595505066E0,-5.847589874E0,2.066752167E0,9.805991488E0
5.285039083E0,7.735464020E0,-5.971083069E0,2.059866486E0,9.986705491E0
5.295047083E0,7.994575195E0,-6.137836304E0,2.005230103E0,1.027653710E1
5.305055083E0,8.318202209E0,-6.256988525E0,1.962269440E0,1.059211474E1
5.315064083E0,8.679700470E0,-6.242468719E0,1.894909515E0,1.085800617E1
5.325072083E0,9.064250793E0,-6.218069458E0,1.778002625E0,1.113491462E1
5.335080083E0,9.464668121E0,-6.130950623E0,1.631008301E0,1.139423917E1
5.345088083E0,9.909992065E0,-5.987997894E0,1.454824677E0,1.166964337E1
5.355097083E0,1.032597702E1,-5.855074310E0,1.242266693E0,1.193528061E1
5.365105083E0,1.059017761E1,-5.709127808E0,1.034648438E0,1.207545028E1
5.375113083E0,1.072549622E1,-5.518723755E0,8.173004150E-1,1.208968821E1
5.385121083E0,1.076755875E1,-5.320236511E0,6.074368286E-1,1.202556516E1
5.395129083E0,1.072459808E1,-5.072202301E0,4.567002869E-1,1.187235509E1
5.405138083E0,1.066382446E1,-4.841531982E0,3.603007507E-1,1.171697063E1
5.415146083E0,1.064571213E1,-4.718487854E0,3.092568970E-1,1.164864602E1
5.425153583E0,1.058927948E1,-4.577780457E0,2.802172852E-1,1.153981956E1
5.435161583E0,1.047865952E1,-4.403542786E0,2.487826538E-1,1.136905392E1
5.445169583E0,1.035456757E1,-4.339026947E0,2.531236267E-1,1.122979501E1
5.455178583E0,1.016012192E1,-4.284091187E0,3.064128113E-1,1.103065744E1
5.465186583E0,9.867181091E0,-4.293521576E0,3.671864319E-1,1.076709878E1
5.475194583E0,9.462273102E0,-4.281396790E0,4.469705200E-1,1.039541983E1
5.485202583E0,8.999734955E0,-4.218527527E0,5.087919617E-1,9.952390317E0
5.495210583E0,8.622669067E0,-4.288132782E0,5.655239868E-1,9.646674141E0
5.505219583E0,8.302784271E0,-4.439917145E0,6.631210327E-1,9.438687431E0
5.515227583E0,8.083340607E0,-4.557722168E0,7.970924377E-1,9.313891940E0
5.525235583E0,7.869285736E0,-4.666246490E0,9.431886292E-1,9.197234318E0
5.535243583E0,7.628137207E0,-4.769232330E0,1.057101746E0,9.058229318E0
5.545251583E0,7.378755798E0,-4.826563110E0,1.134341125E0,8.889796307E0
5.555260583E0,7.109316101E0,-4.818030853E0,1.146465912E0,8.664304982E0
5.565268583E0,6.870712280E0,-4.815336456E0,1.130449219E0,8.465935735E0
5.575276583E0,6.691235504E0,-4.818330231E0,1.093625793E0,8.317749465E0
5.585284583E0,6.537804565E0,-4.837340698E0,1.042581940E0,8.199373797E0
5.595293583E0,6.426585846E0,-4.851561127E0,9.842033386E-1,8.112170315E0
5.605301583E0,6.372697906E0,-4.812043304E0,9.415420532E-1,8.040742553E0
5.615309583E0,6.367907867E0,-4.795876923E0,9.244775391E-1,8.025294062E0
5.625317583E0,6.383026428E0,-4.750221863E0,9.722282410E-1,8.015788288E0
5.635325583E0,6.484814758E0,-4.715344391E0,9.945318604E-1,8.079380471E0
5.645334583E0,6.697522430E0,-4.738097076E0,1.010249176E0,8.266013187E0
5.655342583E0,7.007976837E0,-4.813689880E0,1.002165985E0,8.560822757E0
5.665350583E0,7.365283813E0,-4.919819183E0,9.671388245E-1,8.909959818E0
5.675358583E0,7.725883942E0,-5.037773895E0,9.246272278E-1,9.269486718E0
5.685366583E0,8.123008118E0,-5.145100708E0,8.878038025E-1,9.656268315E0
5.695375583E0,8.530760193E0,-5.234315186E0,8.527766418E-1,1.004485704E1
5.705383583E0,8.911268921E0,-5.342091064E0,8.192463684E-1,1.042208306E1
5.715391583E0,9.305099945E0,-5.469925232E0,8.387059021E-1,1.082628259E1
5.725399583E0,9.619146881E0,-5.567222900E0,9.222322083E-1,1.115224057E1
5.735407583E0,9.907447357E0,-5.613476715E0,1.093476105E0,1.143959457E1
5.745416583E0,1.021775208E1,-5.619015198E0,1.257534943E0,1.172847745E1
5.755424583E0,1.048374893E1,-5.645360413E0,1.416504364E0,1.199106211E1
5.765432583E0,1.079105988E1,-5.801485748E0,1.583407288E0,1.235359821E1
5.775440583E0,1.126901596E1,-6.211782532E0,1.726360016E0,1.298296121E1
5.785449583E0,1.196072754E1,-6.923702087E0,1.837878113E0,1.394182376E1
5.795457583E0,1.276395721E1,-7.762108612E0,1.911375275E0,1.506062048E1
5.805465583E0,1.349204315E1,-8.382119293E0,1.951342163E0,1.600321494E1
5.815473583E0,1.392718826E1,-8.552315369E0,1.957928467E0,1.646032062E1
5.825481583E0,1.410995819E1,-8.434660034E0,1.959125977E0,1.655513771E1
5.835490583E0,1.418046158E1,-8.218359833E0,1.930086365E0,1.650309554E1
5.845498583E0,1.398990784E1,-7.831713867E0,1.961371307E0,1.615240666E1
5.855506583E0,1.362077545E1,-7.140601044E0,2.101180573E0,1.552187704E1
5.865514583E0,1.307755508E1,-6.455625458E0,2.185006256E0,1.474692508E1
5.875522583E0,1.261202316E1,-6.072422333E0,2.210004272E0,1.417115239E1
5.885531583E0,1.219199661E1,-5.871839447E0,2.169588318E0,1.370512289E1
5.895539583E0,1.170610703E1,-5.747148743E0,2.095492401E0,1.320809406E1
5.905547583E0,1.120270386E1,-5.763764191E0,2.032174072E0,1.276131979E1
5.915555583E0,1.076157120E1,-5.856870575E0,1.908680878E0,1.239989557E1
5.925564583E0,1.039393570E1,-5.987249451E0,1.746118927E0,1.212146801E1
5.935572583E0,1.002749771E1,-6.199657745E0,1.602717133E0,1.189769594E1
5.945580583E0,9.621841278E0,-6.416856079E0,1.490450592E0,1.166093112E1
5.955588583E0,9.233698425E0,-6.569987640E0,1.435963898E0,1.142313077E1
5.965596583E0,8.889863434E0,-6.764283600E0,1.511107635E0,1.127247314E1
5.975605583E0,8.593330078E0,-6.930438080E0,1.573527832E0,1.115133551E1
5.985613583E0,8.357570343E0,-7.044201508E0,1.680854645E0,1.105870830E1
5.995621583E0,8.161029053E0,-7.149881744E0,1.769170990E0,1.099332389E1
6.005629583E0,7.959098969E0,-7.226672058E0,1.810934143E0,1.090190478E1
6.015637583E0,7.783364410E0,-7.242239685E0,1.789079590E0,1.078107615E1
6.025646583E0,7.610174561E0,-7.215445404E0,1.775757294E0,1.063629274E1
6.035654583E0,7.389683075E0,-7.127877502E0,1.668879547E0,1.040188505E1
6.045662583E0,7.221432953E0,-7.031328278E0,1.459764404E0,1.018428119E1
6.055670583E0,7.160659332E0,-6.965465240E0,1.240620117E0,1.006637404E1
6.065679583E0,7.069349213E0,-6.869215393E0,1.081501007E0,9.916222206E0
6.075687583E0,7.005132751E0,-6.791377258E0,9.445358276E-1,9.802389395E0
6.085695583E0,6.958878937E0,-6.710545349E0,8.110134888E-1,9.701296708E0
6.095703583E0,6.962920532E0,-6.626270599E0,7.520361328E-1,9.641332000E0
6.105711583E0,7.048392792E0,-6.625222778E0,7.102729797E-1,9.699376553E0
6.115720583E0,7.154073029E0,-6.606960754E0,6.954537964E-1,9.763009131E0
6.125728583E0,7.207811279E0,-6.544989624E0,6.785389709E-1,9.759602848E0
6.135736583E0,7.222480774E0,-6.486161957E0,6.962022400E-1,9.732380131E0
6.145744583E0,7.272476807E0,-6.432124329E0,7.066804504E-1,9.734502532E0
6.155753583E0,7.324718170E0,-6.420149231E0,7.123686218E-1,9.766129298E0
6.165761583E0,7.372768250E0,-6.378086700E0,7.762857056E-1,9.779586960E0
6.175769583E0,7.431595917E0,-6.285429382E0,8.283773804E-1,9.768390322E0
6.185777583E0,7.487280121E0,-6.207740936E0,8.680448914E-1,9.764676803E0
6.195785583E0,7.559130707E0,-6.136638794E0,8.497828674E-1,9.773480631E0
6.205794583E0,7.597600708E0,-6.065386963E0,8.225395203E-1,9.756486396E0
6.215802583E0,7.575147400E0,-6.054459686E0,7.646099854E-1,9.727485217E0
6.225810583E0,7.550598450E0,-6.073320465E0,7.235952759E-1,9.717013355E0
6.235818583E0,7.559579773E0,-6.147566071E0,7.069798279E-1,9.769321134E0
6.245826583E0,7.544760590E0,-6.261329498E0,7.479945374E-1,9.832962690E0
6.255835583E0,7.566764832E0,-6.462810516E0,7.717950439E-1,9.980957738E0
6.265843583E0,7.529791718E0,-6.688092041E0,8.044271851E-1,1.010323916E1
6.275851583E0,7.496710510E0,-6.952741699E0,8.565188599E-1,1.026035624E1
6.285859583E0,7.373067627E0,-7.176077271E0,9.223818970E-1,1.033000482E1
6.295868583E0,7.181466064E0,-7.316036224E0,9.870474243E-1,1.029913120E1
6.305876583E0,6.956783295E0,-7.411986694E0,1.015787659E0,1.021597793E1
6.315884583E0,6.706204376E0,-7.435787201E0,1.001417542E0,1.006314789E1
6.325892583E0,6.424789581E0,-7.400011597E0,9.731263733E-1,9.848099702E0
6.335900583E0,6.116580505E0,-7.300318909E0,9.211843872E-1,9.568479185E0
6.345909583E0,5.884413300E0,-7.174879761E0,8.798703003E-1,9.320911501E0
6.355917583E0,5.771248627E0,-7.147636414E0,7.870632935E-1,9.220384246E0
6.365925583E0,5.816604309E0,-7.306156769E0,6.337820435E-1,9.360261326E0
6.375933583E0,5.970634003E0,-7.603887634E0,4.511618042E-1,9.678384396E0
6.385942583E0,6.037095795E0,-7.857610016E0,2.823129272E-1,9.913034923E0
6.395950583E0,5.942791901E0,-7.928712158E0,1.544787598E-1,9.909849431E0
6.405958583E0,5.752238159E0,-7.796986084E0,1.375639343E-1,9.690209475E0
6.415966583E0,5.539231110E0,-7.547305298E0,1.609153748E-1,9.363268249E0
6.425971458E0,5.419180756E0,-7.379204865E0,2.710862732E-1,9.159348899E0
6.435980458E0,5.402714996E0,-7.191944275E0,4.248165894E-1,9.005212986E0
6.445988458E0,5.490731964E0,-6.962022400E0,5.617817688E-1,8.884452271E0
6.455996458E0,5.647156677E0,-6.794520721E0,6.125262451E-1,8.856132269E0
6.466004458E0,5.881868591E0,-6.692283325E0,6.233038330E-1,8.931491583E0
6.476013458E0,6.178102570E0,-6.638395386E0,6.316864014E-1,9.090449514E0
6.486021458E0,6.547534332E0,-6.661746826E0,5.194198608E-1,9.355152249E0
6.496029458E0,7.015012207E0,-6.792874146E0,3.263214111E-1,9.770364429E0
6.506037458E0,7.629334717E0,-7.030280457E0,2.398013306E-1,1.037733570E1
6.516045458E0,8.410859528E0,-7.325316925E0,6.197113037E-2,1.115377364E1
6.526054458E0,9.215735779E0,-7.600744171E0,-2.034269714E-1,1.194748846E1
6.536062458E0,1.004635849E1,-7.807015228E0,-4.484674072E-1,1.273106157E1
6.546070458E0,1.080647781E1,-7.815098419E0,-6.080355835E-1,1.335010986E1
6.556078458E0,1.127440475E1,-7.629634094E0,-8.208929443E-1,1.363808580E1
6.566087458E0,1.137768997E1,-7.225175171E0,-1.027313690E0,1.351703957E1
6.576095458E0,1.126467499E1,-6.680158539E0,-1.178499298E0,1.314938330E1
6.586103458E0,1.090497299E1,-6.062093811E0,-1.237476654E0,1.253789320E1
6.596111458E0,1.045620621E1,-5.402864685E0,-1.207089844E0,1.183132541E1
6.606119458E0,1.008587631E1,-4.936584320E0,-1.123862915E0,1.128529280E1
6.616128458E0,9.784403229E0,-4.745731201E0,-1.048719177E0,1.092503195E1
6.626136458E0,9.535171509E0,-4.631069641E0,-9.416917419E-1,1.064204327E1
6.636144458E0,9.320667572E0,-4.572391663E0,-7.288343811E-1,1.040734400E1
6.646152458E0,9.085057526E0,-4.683460693E0,-4.629872131E-1,1.023168762E1
6.656161458E0,8.806037750E0,-4.830904083E0,-2.703378296E-1,1.004773694E1
6.666169458E0,8.515941010E0,-4.923411713E0,-6.885681152E-2,9.836969830E0
6.676177458E0,8.201594696E0,-5.064568176E0,1.143621826E-1,9.639973292E0
6.686185458E0,7.931556244E0,-5.304369507E0,1.990859985E-1,9.543875290E0
6.696193458E0,7.764353943E0,-5.579796753E0,3.068618774E-1,9.566268247E0
6.706202458E0,7.568261719E0,-5.766608276E0,5.008584595E-1,9.528022652E0
6.716210458E0,7.363786926E0,-5.880072327E0,6.973997498E-1,9.449178529E0
6.726218458E0,7.242389374E0,-5.997727661E0,8.363108826E-1,9.440569730E0
6.736226458E0,7.140750732E0,-6.030509491E0,9.548643494E-1,9.395165335E0
6.746235458E0,7.075336761E0,-6.026916962E0,1.062191162E0,9.354804563E0
6.756243458E0,7.009174347E0,-5.967041473E0,1.232836304E0,9.287302855E0
6.766251458E0,6.933731232E0,-5.909411316E0,1.405876465E0,9.218148379E0
6.776259458E0,6.960824890E0,-5.841302948E0,1.464255066E0,9.204235231E0
6.786267458E0,7.082821198E0,-5.830225983E0,1.524429932E0,9.299557933E0
6.796276458E0,7.140900421E0,-5.754633179E0,1.635199585E0,9.315693186E0
6.806284458E0,7.203919373E0,-5.693260803E0,1.660047913E0,9.330885916E0
6.816292458E0,7.302713928E0,-5.637726288E0,1.658700714E0,9.373626645E0
6.826300458E0,7.510930939E0,-5.551355896E0,1.660047913E0,9.486168611E0
6.836309458E0,7.750432892E0,-5.448669434E0,1.678908691E0,9.621639309E0
6.846317458E0,8.001011810E0,-5.375621338E0,1.627565460E0,9.775605561E0
6.856325458E0,8.344397736E0,-5.375022583E0,1.556912384E0,1.004708005E1
6.866333458E0,8.806935883E0,-5.467829590E0,1.495240631E0,1.047353926E1
6.876341458E0,9.326804810E0,-5.648653564E0,1.461860046E0,1.100152761E1
6.886350458E0,9.920769653E0,-5.825136566E0,1.491947479E0,1.160085315E1
6.896358458E0,1.048868866E1,-5.904321899E0,1.544039154E0,1.213497688E1
6.906366458E0,1.089449478E1,-5.895490265E0,1.637594604E0,1.249514058E1
6.916374458E0,1.117785553E1,-5.769751740E0,1.836530914E0,1.271248737E1
6.926383458E0,1.143232635E1,-5.677543488E0,2.054926758E0,1.292885571E1
6.936391458E0,1.181567917E1,-5.804479523E0,2.154918823E0,1.333963762E1
6.946399458E0,1.235755234E1,-6.222709808E0,2.218835907E0,1.401265321E1
6.956407458E0,1.311018723E1,-6.897207184E0,2.361189880E0,1.500078977E1
6.966415458E0,1.390892624E1,-7.774233398E0,2.480342102E0,1.612603581E1
6.976424458E0,1.459315338E1,-8.360414429E0,2.656974792E0,1.702692486E1
6.986432458E0,1.502725067E1,-8.555458832E0,2.760559387E0,1.751099160E1
6.996440458E0,1.520343430E1,-8.508456573E0,2.776576080E0,1.764221138E1
7.006448458E0,1.513323029E1,-8.275989990E0,2.739902344E0,1.746464240E1
7.016457458E0,1.488175323E1,-7.902366943E0,2.673141174E0,1.706047087E1
7.026465458E0,1.450064575E1,-7.528743896E0,2.528092804E0,1.653305674E1
7.036473458E0,1.396191605E1,-7.213200073E0,2.327509918E0,1.588655587E1
7.046481458E0,1.336181396E1,-6.945107574E0,2.072290649E0,1.520088748E1
7.056490458E0,1.274090515E1,-6.750661926E0,1.853745117E0,1.453748505E1
7.066498458E0,1.205024139E1,-6.734196167E0,1.601220245E0,1.389682057E1
7.076506458E0,1.137394775E1,-6.804250488E0,1.497336273E0,1.333816060E1
7.086514458E0,1.076725937E1,-6.913822632E0,1.331780548E0,1.286500902E1
7.096522458E0,1.027882507E1,-7.037615204E0,1.162482605E0,1.251134039E1
7.106531458E0,9.802066498E0,-7.147636414E0,1.055754547E0,1.217718488E1
7.116539458E0,9.382339325E0,-7.277416534E0,9.639953613E-1,1.191294966E1
7.126547458E0,9.103918304E0,-7.430697784E0,8.431965637E-1,1.178166281E1
7.136555458E0,8.849447479E0,-7.545359344E0,7.279362488E-1,1.165225555E1
7.146564458E0,8.552165680E0,-7.569608917E0,7.101232910E-1,1.144302373E1
7.156572458E0,8.263416138E0,-7.531138916E0,7.758366394E-1,1.120732002E1
7.166580458E0,7.956703949E0,-7.497458954E0,8.066725159E-1,1.096228758E1
7.176588458E0,7.664960632E0,-7.468269653E0,8.241860962E-1,1.073340374E1
7.186596458E0,7.398365021E0,-7.338639221E0,7.768844604E-1,1.044964019E1
7.196605458E0,7.228318634E0,-7.209906921E0,7.617658997E-1,1.023775539E1
7.206613458E0,7.187902679E0,-7.107819214E0,7.671546936E-1,1.013782843E1
7.216621458E0,7.232060852E0,-7.058871002E0,6.803352356E-1,1.012883113E1
7.226629458E0,7.293732605E0,-7.001091156E0,5.978567505E-1,1.012774631E1
7.236638458E0,7.382797394E0,-6.959926758E0,5.641767883E-1,1.016191780E1
7.246646458E0,7.522456970E0,-6.955885162E0,5.643264771E-1,1.026109944E1
7.256654458E0,7.674540710E0,-6.965315552E0,5.623805237E-1,1.037932887E1
7.266662458E0,7.838000793E0,-6.981332245E0,6.044430542E-1,1.051373424E1
7.276671458E0,8.054600372E0,-7.011269989E0,7.292834473E-1,1.070356709E1
7.286679458E0,8.196804657E0,-7.047644348E0,8.470884705E-1,1.084317556E1
7.296687458E0,8.324189758E0,-7.065008240E0,9.404942322E-1,1.095860420E1
7.306695458E0,8.454718323E0,-7.053332520E0,1.050066376E0,1.106048828E1
7.316703458E0,8.556656342E0,-6.997498627E0,1.136137390E0,1.111180287E1
7.326712458E0,8.592581635E0,-6.886878662E0,1.154249725E0,1.107221068E1
7.336720458E0,8.594078522E0,-6.694378967E0,1.161135406E0,1.095541559E1
7.346728458E0,8.492888947E0,-6.471492462E0,1.176104279E0,1.074209470E1
7.356736458E0,8.328830109E0,-6.245612183E0,1.172811127E0,1.047628600E1
7.366745458E0,8.181087341E0,-6.092779999E0,1.122815094E0,1.026220600E1
7.376753458E0,8.074508972E0,-6.017336884E0,1.050964508E0,1.012475011E1
7.386761458E0,7.924520874E0,-5.940097504E0,9.845027161E-1,9.952488886E0
7.396769458E0,7.705077209E0,-5.910608826E0,9.770182800E-1,9.760024396E0
7.406777458E0,7.547155609E0,-5.971981201E0,9.521699524E-1,9.671129452E0
7.416786458E0,7.453450470E0,-6.082301788E0,9.325607300E-1,9.665298157E0
7.426793833E0,7.358248444E0,-6.207591248E0,9.595046997E-1,9.674639969E0
7.436801833E0,7.277117157E0,-6.367758179E0,9.966275024E-1,9.721010478E0
7.446809833E0,7.155569916E0,-6.504873047E0,1.016236725E0,9.723594565E0
7.456818833E0,7.045997772E0,-6.631210327E0,1.000669098E0,9.727300430E0
7.466826833E0,6.909032593E0,-6.780000916E0,9.304650879E-1,9.724654701E0
7.476834833E0,6.749614105E0,-6.856791229E0,8.458909607E-1,9.658592447E0
7.486842833E0,6.614594879E0,-6.901548157E0,7.800279236E-1,9.591281246E0
7.496851833E0,6.502028961E0,-6.926546173E0,6.686595154E-1,9.523682484E0
7.506859833E0,6.277944946E0,-6.876699829E0,5.956114197E-1,9.330399040E0
7.516867833E0,5.975424042E0,-6.708300018E0,5.505551147E-1,9.000560680E0
7.526875833E0,5.699248352E0,-6.503974915E0,4.540058899E-1,8.659632949E0
7.536883833E0,5.469027100E0,-6.313870239E0,3.300636292E-1,8.359674444E0
7.546892833E0,5.301974487E0,-6.213279419E0,2.438429260E-1,8.171611467E0
7.556900833E0,5.260211334E0,-6.244564362E0,8.607101440E-2,8.165281108E0
7.566908833E0,5.358257446E0,-6.466702423E0,-8.322692871E-2,8.398576654E0
7.576916833E0,5.485792236E0,-6.756499786E0,-1.933978271E-1,8.705263267E0
7.586925833E0,5.570965118E0,-6.920109558E0,-3.275189209E-1,8.889928981E0
7.596933833E0,5.591921539E0,-6.981182556E0,-4.575984192E-1,8.956332547E0
7.606941833E0,5.598507843E0,-6.961723022E0,-5.092410278E-1,8.948083814E0
7.616949833E0,5.582341461E0,-6.847959595E0,-5.342390442E-1,8.851129767E0
7.626958833E0,5.622607727E0,-6.717730408E0,-5.489085388E-1,8.777409644E0
7.636966833E0,5.774092712E0,-6.585405579E0,-5.038522339E-1,8.772774952E0
7.646974833E0,5.973927155E0,-6.373296661E0,-4.571493530E-1,8.747325392E0
7.656982833E0,6.102360077E0,-6.130351868E0,-4.331991577E-1,8.660697087E0
7.666991833E0,6.235283661E0,-5.953120422E0,-3.409909058E-1,8.627553529E0
7.676999833E0,6.498286743E0,-5.889652405E0,-2.595602417E-1,8.774001799E0
7.687007833E0,6.824757843E0,-5.898334351E0,-2.484832764E-1,9.023824669E0
7.697015833E0,7.166796570E0,-5.977968750E0,-2.495310974E-1,9.336024273E0
7.707023833E0,7.527995453E0,-6.121969299E0,-1.875599670E-1,9.704864882E0
7.717032833E0,7.985444183E0,-6.384972382E0,-1.200503540E-1,1.022495003E1
7.727040833E0,8.583450623E0,-6.676266632E0,-6.451583862E-2,1.087438840E1
7.737048833E0,9.227112122E0,-6.969656525E0,-2.185455322E-2,1.156357158E1
7.747056833E0,9.882599030E0,-7.191644897E0,7.409591675E-2,1.222256152E1
7.757065833E0,1.051174072E1,-7.355853424E0,1.859133911E-1,1.283120557E1
7.767073833E0,1.108325226E1,-7.343578949E0,3.330574036E-1,1.329953231E1
7.777081833E0,1.152198990E1,-7.165000305E0,4.754113770E-1,1.357643166E1
7.787089833E0,1.181912201E1,-7.011269989E0,5.063969421E-1,1.375158136E1
7.797098833E0,1.192255692E1,-6.690786438E0,5.632786560E-1,1.368324777E1
7.807106833E0,1.193078979E1,-6.379583588E0,5.743556213E-1,1.354151824E1
7.817114833E0,1.193363388E1,-6.225853271E0,5.432203674E-1,1.347100423E1
7.827122833E0,1.184696411E1,-6.133195953E0,4.805007935E-1,1.334906485E1
7.837130833E0,1.164144150E1,-6.012247467E0,4.575984192E-1,1.311028894E1
7.847139833E0,1.134939880E1,-5.932463379E0,5.420228577E-1,1.281782991E1
7.857147833E0,1.099493591E1,-5.830225983E0,7.391629028E-1,1.246701699E1
7.867155833E0,1.063358734E1,-5.694009247E0,8.916957092E-1,1.209504205E1
7.877163833E0,1.031909134E1,-5.768105164E0,1.042881317E0,1.186769922E1
7.887172833E0,9.998308411E0,-5.826184387E0,1.152154083E0,1.162918977E1
7.897180833E0,9.602980499E0,-5.760171661E0,1.218166809E0,1.126413523E1
7.907188833E0,9.252559204E0,-5.756130066E0,1.272503815E0,1.097096856E1
7.917196833E0,8.963360596E0,-5.794749756E0,1.268312531E0,1.074846848E1
7.927205833E0,8.676257629E0,-5.784121857E0,1.255289612E0,1.050282172E1
7.937213833E0,8.389903107E0,-5.716462555E0,1.297501831E0,1.023483900E1
7.947221833E0,8.131390686E0,-5.609584808E0,1.384920044E0,9.975217278E0
7.957229833E0,7.973469086E0,-5.529201965E0,1.414708099E0,9.805594456E0
7.967238833E0,7.815397797E0,-5.456752625E0,1.392853546E0,9.633100899E0
7.977246833E0,7.659871216E0,-5.370531921E0,1.402134247E0,9.459504247E0
7.987254833E0,7.636519775E0,-5.297633514E0,1.379980316E0,9.396047084E0
7.997262833E0,7.642357635E0,-5.202281799E0,1.329235840E0,9.340033944E0
8.007271833E0,7.661966858E0,-5.070855103E0,1.321002960E0,9.282475770E0
8.017279833E0,7.735314331E0,-4.952900391E0,1.236129456E0,9.267919190E0
8.027287833E0,7.945477295E0,-4.899611206E0,1.093326416E0,9.398519142E0
8.037295833E0,8.155041504E0,-4.820425873E0,9.660910034E-1,9.522317961E0
8.047303833E0,8.338559875E0,-4.726571045E0,8.722361755E-1,9.624596126E0
8.057312833E0,8.573870544E0,-4.693639526E0,7.291337585E-1,9.801690882E0
8.067320833E0,8.867859192E0,-4.694837036E0,6.465055847E-1,1.005476956E1
8.077328833E0,9.184151459E0,-4.692292328E0,6.189628601E-1,1.033195820E1
8.087336833E0,9.480385437E0,-4.700076141E0,6.294410706E-1,1.060021791E1
8.097345833E0,9.796228638E0,-4.748874664E0,6.867718506E-1,1.090823366E1
8.107353833E0,1.013422577E1,-4.855003967E0,7.698490906E-1,1.126349249E1
8.117361833E0,1.050530411E1,-4.936883698E0,9.244775391E-1,1.164426441E1
8.127369833E0,1.084045715E1,-4.946014709E0,1.070424042E0,1.196346022E1
8.137378833E0,1.106978027E1,-4.936135254E0,1.203647003E0,1.218007523E1
8.147386833E0,1.135703293E1,-5.006488953E0,1.372944946E0,1.248727778E1
8.157394833E0,1.174742111E1,-5.312153320E0,1.538800049E0,1.298417426E1
8.167402833E0,1.221923996E1,-5.845494232E0,1.743873596E0,1.365725899E1
8.177411833E0,1.289882675E1,-6.651567993E0,1.925146637E0,1.463998900E1
8.187419833E0,1.364532440E1,-7.530240784E0,2.053429871E0,1.571992298E1
8.197427833E0,1.431054108E1,-8.108338623E0,2.169887695E0,1.659051397E1
8.207435833E0,1.476110413E1,-8.459059296E0,2.262994080E0,1.716295491E1
8.217443833E0,1.492127106E1,-8.474028168E0,2.466121674E0,1.733595222E1
8.227452833E0,1.488489670E1,-8.165370026E0,2.542911987E0,1.716682320E1
8.237460833E0,1.462279175E1,-7.901019745E0,2.556234283E0,1.681625658E1
8.247468833E0,1.428674057E1,-7.720046082E0,2.605032806E0,1.644677061E1
8.257476833E0,1.392748764E1,-7.554190979E0,2.601290588E0,1.605638272E1
8.267485833E0,1.351329895E1,-7.490423584E0,2.548899536E0,1.565926508E1
8.277493833E0,1.291244843E1,-7.491321716E0,2.494562531E0,1.513519302E1
8.287501833E0,1.220262451E1,-7.510481873E0,2.338137817E0,1.451820483E1
8.297509833E0,1.154204819E1,-7.590265961E0,1.996847534E0,1.395773670E1
8.307518833E0,1.095661560E1,-7.694000244E0,1.785636749E0,1.350679695E1
8.317526833E0,1.038405624E1,-7.789202271E0,1.723665619E0,1.309470577E1
8.327534833E0,9.890532532E0,-7.873327332E0,1.659149780E0,1.275008608E1
8.337542833E0,9.448052673E0,-7.992180176E0,1.673669586E0,1.248766644E1
8.347551833E0,9.049431610E0,-8.131690063E0,1.775607605E0,1.229509569E1
8.357559833E0,8.670868835E0,-8.213569794E0,1.928439789E0,1.209816412E1
8.367567833E0,8.322543182E0,-8.273894348E0,2.061213684E0,1.191514392E1
8.377575833E0,7.989934845E0,-8.315657501E0,2.147284698E0,1.173030477E1
8.387584833E0,7.655829620E0,-8.252788239E0,2.201172638E0,1.147019624E1
8.397592833E0,7.344028015E0,-8.149203644E0,2.223027191E0,1.119312813E1
8.407600833E0,7.040908356E0,-8.030201111E0,2.166295166E0,1.089730953E1
8.417608833E0,6.801556091E0,-7.864495697E0,2.030976563E0,1.059416460E1
8.427622083E0,6.665938110E0,-7.738607483E0,1.823507996E0,1.037525701E1
8.437630083E0,6.552773438E0,-7.632927246E0,1.612895966E0,1.018831936E1
8.447638083E0,6.544390869E0,-7.517666931E0,1.401834869E0,1.006526249E1
8.457646083E0,6.598578186E0,-7.421566772E0,1.210832062E0,1.000434914E1
8.467655083E0,6.637796631E0,-7.341932373E0,1.049766998E0,9.953206812E0
8.477663083E0,6.752607880E0,-7.243586884E0,8.696914673E-1,9.941007362E0
8.487671083E0,6.918612671E0,-7.131919098E0,7.204518127E-1,9.962455627E0
8.497679083E0,7.084916840E0,-7.024741974E0,6.048921204E-1,9.995446008E0
8.507687083E0,7.232958984E0,-6.882687378E0,5.236111450E-1,9.998062304E0
8.517696083E0,7.366481323E0,-6.718179474E0,4.339476013E-1,9.979343318E0
8.527704083E0,7.497009888E0,-6.580615540E0,4.406835938E-1,9.985182030E0
8.537712083E0,7.613916779E0,-6.422394562E0,5.177732849E-1,9.974315505E0
8.547720083E0,7.716154175E0,-6.334976349E0,6.096821594E-1,1.000213342E1
8.557729083E0,7.805817719E0,-6.256689148E0,7.023394775E-1,1.002847097E1
8.567737083E0,7.890840912E0,-6.128106537E0,8.219407654E-1,1.002470182E1
8.577745083E0,7.897127838E0,-5.975424042E0,9.647438049E-1,9.949927195E0
8.587753083E0,7.838150482E0,-5.846542053E0,1.077010345E0,9.837611918E0
8.597762083E0,7.762258301E0,-5.745202789E0,1.152902527E0,9.725697572E0
8.607770083E0,7.681725769E0,-5.639223175E0,1.238973541E0,9.609620401E0
8.617778083E0,7.526648254E0,-5.524561615E0,1.333127747E0,9.431248304E0
8.627786083E0,7.418273621E0,-5.573509827E0,1.351539459E0,9.376644080E0
8.637795083E0,7.343279572E0,-5.714516602E0,1.399888916E0,9.409524102E0
8.647803083E0,7.212002563E0,-5.833668823E0,1.507365417E0,9.397703093E0
8.657811083E0,7.072043610E0,-5.971831512E0,1.609752502E0,9.395098485E0
8.667819083E0,6.980134735E0,-6.142027588E0,1.624421997E0,9.438513158E0
8.677828083E0,6.825206909E0,-6.349645844E0,1.616039429E0,9.461132867E0
8.687836083E0,6.660100250E0,-6.512956238E0,1.649869080E0,9.460317240E0
8.697844083E0,6.540948029E0,-6.675218811E0,1.657503204E0,9.491568056E0
8.707852083E0,6.436764679E0,-6.871460724E0,1.575922852E0,9.546331486E0
8.717861083E0,6.280938721E0,-6.998995514E0,1.492546234E0,9.521755283E0
8.727869083E0,6.129453735E0,-7.089108124E0,1.401685181E0,9.475778513E0
8.737877083E0,5.941444702E0,-7.094347229E0,1.213975525E0,9.332966534E0
8.747885083E0,5.709277496E0,-7.014712830E0,9.589059448E-1,9.095138604E0
8.757893083E0,5.530998230E0,-6.985673218E0,6.801855469E-1,8.936119074E0
8.767902083E0,5.447022858E0,-7.019951935E0,3.999682617E-1,8.894366632E0
8.777910083E0,5.522316284E0,-7.228468323E0,1.407073975E-1,9.097611225E0
8.787918083E0,5.736670532E0,-7.622299347E0,-8.307723999E-2,9.540216872E0
8.797926083E0,5.916596375E0,-7.997119904E0,-2.466870117E-1,9.950924273E0
8.807935083E0,5.979315948E0,-8.175399170E0,-3.562591553E-1,1.013490461E1
8.817943083E0,5.988746338E0,-8.177943878E0,-3.457809448E-1,1.014216019E1
8.827951083E0,5.942492523E0,-8.040379944E0,-2.911445618E-1,1.000228435E1
8.837959083E0,5.865851898E0,-7.842491455E0,-1.874102783E-1,9.795305678E0
8.847968083E0,5.818550262E0,-7.601492615E0,-8.681945801E-2,9.573178926E0
8.857976083E0,5.851182404E0,-7.320526886E0,-2.544708252E-3,9.371577022E0
8.867984083E0,5.974076843E0,-7.075037384E0,1.287322998E-2,9.259908954E0
8.877992083E0,6.165977783E0,-6.870861969E0,-7.694000244E-2,9.232223242E0
8.888001083E0,6.383924561E0,-6.712191925E0,-1.722917175E-1,9.264863608E0
8.898009083E0,6.670129395E0,-6.631210327E0,-2.752775574E-1,9.409535285E0
8.908017083E0,6.975793762E0,-6.626719666E0,-4.195774841E-1,9.630740231E0
8.918025083E0,7.246430969E0,-6.662944336E0,-5.872288513E-1,9.861563098E0
8.928034083E0,7.638316040E0,-6.779551849E0,-7.321275330E-1,1.023924831E1
8.938042083E0,8.193361816E0,-7.027286682E0,-8.999285889E-1,1.083161149E1
8.948050083E0,8.798852692E0,-7.321874084E0,-1.001118164E0,1.149051289E1
8.958058083E0,9.424551544E0,-7.608527985E0,-1.027313690E0,1.215595506E1
8.968067083E0,1.007749374E1,-7.844138031E0,-1.081950073E0,1.281627862E1
8.978075083E0,1.066337540E1,-7.967631226E0,-1.111139374E0,1.335759533E1
8.988083083E0,1.107891129E1,-7.940836945E0,-1.044527893E0,1.367077925E1
8.998091083E0,1.123952728E1,-7.772886200E0,-1.008901978E0,1.370264999E1
9.008100083E0,1.120330261E1,-7.509733429E0,-1.008901978E0,1.352508665E1
9.018108083E0,1.112202164E1,-7.224127350E0,-9.533674622E-1,1.329647663E1
9.028116083E0,1.101200043E1,-6.983727264E0,-8.192463684E-1,1.306551815E1
9.038124083E0,1.088476501E1,-6.808890839E0,-6.236032104E-1,1.285410381E1
9.048133083E0,1.072325089E1,-6.662644958E0,-4.495152283E-1,1.263253780E1
9.058141083E0,1.054422318E1,-6.585106201E0,-3.344046021E-1,1.243608027E1
9.068149083E0,1.030921188E1,-6.494694214E0,-1.715432739E-1,1.218566082E1
9.078157083E0,9.980794830E0,-6.360573120E0,1.085243225E-1,1.183574811E1
9.088166083E0,9.681567078E0,-6.267167358E0,2.818638611E-1,1.153644551E1
9.098174083E0,9.413624268E0,-6.241121521E0,3.014730835E-1,1.129861964E1
9.108182083E0,9.101672974E0,-6.185137939E0,3.185375977E-1,1.100898944E1
9.118190083E0,8.777746582E0,-6.157295837E0,3.677851868E-1,1.072829870E1
9.128199083E0,8.544381866E0,-6.247258759E0,4.164340210E-1,1.059283346E1
9.138207083E0,8.370892639E0,-6.321953430E0,4.782554626E-1,1.050084125E1
9.148215083E0,8.192463684E0,-6.378086700E0,5.697152710E-1,1.039812611E1
9.158223083E0,8.008795624E0,-6.421197052E0,6.908134460E-1,1.028833330E1
9.168232083E0,7.827821960E0,-6.399492188E0,8.840615845E-1,1.014937741E1
9.178240083E0,7.732170868E0,-6.367309113E0,1.115180969E0,1.007832924E1
9.188248083E0,7.694748688E0,-6.334377594E0,1.344504089E0,1.005689754E1
9.198256083E0,7.717651062E0,-6.243217163E0,1.545386353E0,1.004629869E1
9.208265083E0,7.741601257E0,-6.133195953E0,1.702110443E0,1.002225836E1
9.218273083E0,7.793992310E0,-6.037844238E0,1.774410095E0,1.001750520E1
9.228281083E0,7.939190369E0,-5.958658905E0,1.733994141E0,1.007685940E1
9.238289083E0,8.099357300E0,-5.836662598E0,1.667083282E0,1.012153079E1
9.248297083E0,8.280181274E0,-5.654491425E0,1.616787872E0,1.015621377E1
9.258306083E0,8.480764160E0,-5.487588501E0,1.508413239E0,1.021333926E1
9.268314083E0,8.702453156E0,-5.353168030E0,1.435514832E0,1.031745132E1
9.278322083E0,8.968000946E0,-5.231920166E0,1.359922028E0,1.047126628E1
9.288331083E0,9.248966675E0,-5.123695221E0,1.299896851E0,1.065295119E1
9.298339083E0,9.519454193E0,-5.024900665E0,1.278042297E0,1.083988132E1
9.308347083E0,9.795180817E0,-4.963079224E0,1.274599457E0,1.105451611E1
9.318355083E0,1.012120285E1,-4.959337006E0,1.265767822E0,1.134177847E1
9.328364083E0,1.043405228E1,-4.905449066E0,1.296304321E0,1.160229643E1
9.338372083E0,1.069481003E1,-4.787793732E0,1.361568604E0,1.179643164E1
9.348380083E0,1.087563400E1,-4.692741394E0,1.393152924E0,1.192652975E1
9.358388083E0,1.100242035E1,-4.600832520E0,1.448687439E0,1.201330965E1
9.368397083E0,1.109702362E1,-4.454436951E0,1.544188843E0,1.205696732E1
9.378405083E0,1.119971008E1,-4.401297455E0,1.669328613E0,1.214872764E1
9.388413083E0,1.135119507E1,-4.523742828E0,1.781894531E0,1.234864473E1
9.398421083E0,1.151300858E1,-4.883744202E0,1.825753326E0,1.263857979E1
9.408430083E0,1.178424454E1,-5.594765625E0,1.707648926E0,1.315621095E1
9.418438083E0,1.225277023E1,-6.734345856E0,1.518741760E0,1.406372529E1
9.428446083E0,1.289328827E1,-8.014633484E0,1.382075958E0,1.524406003E1
9.438454083E0,1.351808899E1,-9.212143250E0,1.232686615E0,1.640493308E1
9.448462083E0,1.398631531E1,-9.957144012E0,1.191073151E0,1.720989216E1
9.458471083E0,1.413540527E1,-1.004471191E1,1.256487122E0,1.738633600E1
9.468479083E0,1.383438126E1,-9.569599915E0,1.432071991E0,1.688248138E1
9.478487083E0,1.315793793E1,-8.788973236E0,1.545835419E0,1.589864737E1
9.488495083E0,1.245978973E1,-8.079448700E0,1.732197876E0,1.495073112E1
9.498504083E0,1.215547256E1,-7.798632660E0,1.930984497E0,1.457061721E1
9.508512083E0,1.195339279E1,-7.849826202E0,1.994302826E0,1.443885779E1
9.518520083E0,1.174996582E1,-8.036338348E0,1.903890839E0,1.436207614E1
9.528528083E0,1.151345764E1,-8.424032135E0,1.659748535E0,1.436240890E1
9.538537083E0,1.131826355E1,-9.043144684E0,1.249900818E0,1.454110751E1
9.548545083E0,1.111244156E1,-9.621990967E0,7.488926697E-1,1.471835275E1
9.558553083E0,1.087787933E1,-1.017853363E1,2.749781799E-1,1.489987982E1
9.568562083E0,1.071262299E1,-1.071636520E1,-3.442840576E-2,1.515262221E1
9.578570083E0,1.056592804E1,-1.114207993E1,-2.793191528E-1,1.535782535E1
9.588578083E0,1.031205597E1,-1.132978958E1,-4.415817261E-1,1.532637024E1
9.598586083E0,9.964927826E0,-1.143726608E1,-4.390370178E-1,1.517575684E1
9.608595083E0,9.676926727E0,-1.154369476E1,-3.424877930E-1,1.506708657E1
9.618603083E0,9.492360535E0,-1.147693359E1,-1.803749084E-1,1.489487994E1
9.628611083E0,9.398954773E0,-1.132934052E1,-5.089416504E-3,1.472054120E1
9.638619083E0,9.230854340E0,-1.120270386E1,7.903564453E-2,1.451604258E1
9.648627083E0,8.889863434E0,-1.091425369E1,1.975891113E-1,1.407798448E1
9.658636083E0,8.544830933E0,-1.060664337E1,1.122665405E-1,1.362085251E1
9.668644083E0,8.321046295E0,-1.040007294E1,-1.800755310E-1,1.332042626E1
9.678652083E0,8.105494537E0,-1.020981857E1,-5.432203674E-1,1.304739535E1
9.688661083E0,7.922425232E0,-1.010653336E1,-1.008003845E0,1.288110670E1
9.698669083E0,7.674091644E0,-9.903405762E0,-1.419348450E0,1.260887300E1
9.708677083E0,7.410938873E0,-9.729168091E0,-1.924547882E0,1.238073549E1
9.718685083E0,7.210655365E0,-9.621242523E0,-2.356100464E0,1.225206382E1
9.728694083E0,7.094347229E0,-9.525142365E0,-2.715652771E0,1.218330290E1
9.738702083E0,6.943760376E0,-9.395511932E0,-3.007994843E0,1.206397470E1
9.748710083E0,6.733747101E0,-9.139544220E0,-3.204236755E0,1.179583620E1
9.758718083E0,6.639892273E0,-8.861123199E0,-3.256478119E0,1.154176431E1
9.768727083E0,6.582262115E0,-8.520731049E0,-3.125500488E0,1.121150237E1
9.778735083E0,6.422544250E0,-8.140521698E0,-2.846331024E0,1.075261682E1
9.788743083E0,6.268065491E0,-7.785909119E0,-2.576891327E0,1.032227662E1
9.798751083E0,6.076014862E0,-7.463778992E0,-2.328108673E0,9.901820208E0
9.808760083E0,5.829627228E0,-7.168293457E0,-2.097588043E0,9.474643017E0
9.818768083E0,5.471721497E0,-6.839127960E0,-1.949994965E0,8.973064569E0
9.828776083E0,5.077890472E0,-6.562353516E0,-1.758692780E0,8.481889861E0
9.838784083E0,4.725672913E0,-6.332132263E0,-1.526675262E0,8.047274124E0
9.848793083E0,4.432432709E0,-6.176605682E0,-1.313817902E0,7.715117300E0
9.858801083E0,4.212989044E0,-6.088588715E0,-1.145118713E0,7.492094907E0
9.868809083E0,4.125720520E0,-6.084846497E0,-8.701405334E-1,7.402977188E0
9.878817083E0,4.270619202E0,-6.253545685E0,-5.581892395E-1,7.593194138E0
9.888826083E0,4.546944580E0,-6.449937286E0,-3.375480652E-1,7.898755263E0
9.898834083E0,4.849914551E0,-6.653364258E0,-1.779798889E-1,8.235326584E0
9.908842083E0,5.106780396E0,-6.811285858E0,-1.115180969E-1,8.513827420E0
9.918850083E0,5.200934601E0,-6.903344421E0,-1.437011719E-1,8.644451107E0
9.928859083E0,5.258265381E0,-7.032675476E0,-2.091151428E-1,8.783598825E0
9.938867083E0,5.334906006E0,-7.140900421E0,-2.309696960E-1,8.916671347E0
9.948875083E0,5.410049744E0,-7.203619995E0,-2.893482971E-1,9.013573193E0
9.958883083E0,5.477858734E0,-7.268135834E0,-2.715353394E-1,9.105298801E0
9.968892083E0,5.468727722E0,-7.143295441E0,-1.561253357E-1,8.997667907E0
9.978900083E0,5.498964844E0,-7.082821198E0,-1.103205872E-1,8.967560488E0
9.988908083E0,5.630990295E0,-7.182813263E0,-5.373825073E-2,9.127088576E0
9.998916083E0,5.907165985E0,-7.461683350E0,-6.002517700E-2,9.517086288E0
1.000892508E1,6.243366852E0,-7.858508148E0,-1.306782532E-1,1.003757225E1
1.001893308E1,6.604565735E0,-8.351732483E0,-2.140548706E-1,1.064976730E1
1.002894108E1,6.900650024E0,-8.880882111E0,-1.805245972E-1,1.124818327E1
1.003894908E1,7.160359955E0,-9.411079559E0,-2.320175171E-2,1.182538420E1
1.004895808E1,7.284451904E0,-9.858948212E0,2.981799316E-1,1.226177029E1
1.005896608E1,7.263196106E0,-1.020757324E1,7.304809570E-1,1.254919008E1
1.006897408E1,7.150779877E0,-1.041593994E1,1.237925720E0,1.269479885E1
1.007898208E1,7.096742249E0,-1.058284286E1,1.761536865E0,1.286325487E1
1.008899108E1,7.135361938E0,-1.069855225E1,2.346520386E0,1.307205294E1
1.009899908E1,7.119494934E0,-1.060379929E1,2.855462036E0,1.308745318E1
1.010900708E1,7.064858551E0,-1.049707123E1,3.285368042E0,1.307265749E1
1.011901508E1,7.167095947E0,-1.031998947E1,3.670217743E0,1.308968851E1
1.012902408E1,7.422614594E0,-1.023032593E1,3.913910980E0,1.323153336E1
1.013903208E1,7.753276978E0,-1.010937744E1,4.047283630E0,1.336762211E1
1.014904008E1,8.085136871E0,-9.863289185E0,4.004622345E0,1.336753200E1
1.015904808E1,8.437653809E0,-9.586365051E0,3.811972961E0,1.332754796E1
1.016905708E1,8.856482849E0,-9.344617767E0,3.550466766E0,1.335533541E1
1.017906508E1,9.339977417E0,-9.201665039E0,3.267255707E0,1.351224546E1
1.018907308E1,9.881700897E0,-9.133556671E0,2.965932312E0,1.377920987E1
1.019908108E1,1.031998947E1,-9.043444061E0,2.712808685E0,1.398732977E1
1.020909008E1,1.073612411E1,-9.096882935E0,2.446961517E0,1.428304102E1
1.021909808E1,1.108220444E1,-9.183852081E0,2.200723572E0,1.456027398E1
1.022910608E1,1.131347351E1,-9.276359711E0,2.085463257E0,1.477818288E1
1.023911408E1,1.143427231E1,-9.354497223E0,2.002835083E0,1.490840534E1
1.024912308E1,1.138697067E1,-9.471853180E0,2.008822632E0,1.494705563E1
1.025913108E1,1.120824234E1,-9.749825134E0,2.216590576E0,1.501988882E1
1.026913908E1,1.101813766E1,-1.008542725E1,2.596799927E0,1.516108737E1
1.027914708E1,1.091500214E1,-1.051892578E1,3.154689789E0,1.548344725E1
1.028915608E1,1.077968353E1,-1.104747665E1,3.922443237E0,1.592588705E1
1.029916408E1,1.052401520E1,-1.154354507E1,4.712200928E0,1.631604016E1
1.030917208E1,1.020712418E1,-1.179307617E1,5.432952118E0,1.651602247E1
1.031918108E1,9.749076691E0,-1.200758011E1,6.089486847E0,1.662252467E1
1.032918908E1,9.270072784E0,-1.198587524E1,6.709497528E0,1.657144568E1
1.033919708E1,8.895701294E0,-1.168080963E1,7.208859100E0,1.635672537E1
1.034920508E1,8.596922607E0,-1.129655869E1,7.501650238E0,1.605596689E1
1.035921408E1,8.342152405E0,-1.082982925E1,7.613018646E0,1.564719660E1
1.036922208E1,8.090675354E0,-1.028122009E1,7.708370361E0,1.518490987E1
1.037923008E1,8.000862122E0,-9.844727783E0,7.723189545E0,1.485193982E1
1.038923808E1,7.967930603E0,-9.350904694E0,7.679929504E0,1.448822466E1
1.039924708E1,7.841443634E0,-8.819509735E0,7.608078918E0,1.404118425E1
1.040925508E1,7.754474487E0,-8.314310303E0,7.439978485E0,1.358723336E1
1.041926308E1,7.720794525E0,-7.904911652E0,7.198979645E0,1.318800987E1
1.042927142E1,7.684569855E0,-7.523055725E0,7.026388550E0,1.284597670E1
1.043928042E1,7.568411407E0,-7.126979370E0,6.906936951E0,1.248120444E1
1.044928842E1,7.506140900E0,-6.887776794E0,6.785539398E0,1.224039073E1
1.045929642E1,7.633076935E0,-6.916367340E0,6.618037720E0,1.224330119E1
1.046930442E1,7.792944489E0,-6.993307343E0,6.489305420E0,1.231858012E1
1.047931342E1,8.059240723E0,-7.008276215E0,6.214177551E0,1.235650837E1
1.048932142E1,8.098010101E0,-7.201973419E0,5.868396606E0,1.232413354E1
1.049932942E1,7.636519775E0,-7.334897003E0,5.494174805E0,1.192908652E1
1.050933742E1,7.169041901E0,-7.328759766E0,5.216651917E0,1.150301433E1
1.051934642E1,6.927743683E0,-7.389683075E0,5.019062805E0,1.130451414E1
1.052935442E1,6.717580719E0,-7.442972260E0,4.859644318E0,1.114180729E1
1.053936242E1,6.386319580E0,-7.473508759E0,4.773273926E0,1.092806272E1
1.054937042E1,6.039341125E0,-7.488477631E0,4.670138397E0,1.069397639E1
1.055937942E1,5.770350494E0,-7.456593933E0,4.519850922E0,1.045594521E1
1.056938742E1,5.701044617E0,-7.532037048E0,4.312232666E0,1.038406676E1
1.057939542E1,5.816604309E0,-7.673043823E0,4.175117798E0,1.049476516E1
1.058940342E1,5.949378204E0,-7.665409698E0,4.149820404E0,1.055341728E1
1.059941242E1,6.099366302E0,-7.670050049E0,4.191733246E0,1.065845039E1
1.060942042E1,6.308481445E0,-7.720046082E0,4.232149200E0,1.083084191E1
1.061942842E1,6.585854645E0,-7.827372894E0,4.233346710E0,1.107079366E1
1.062943742E1,7.066654816E0,-8.081244965E0,4.214635620E0,1.153287839E1
1.063944542E1,7.621251526E0,-8.266110535E0,4.141437836E0,1.198180143E1
1.064945342E1,8.086184692E0,-8.383466492E0,3.959865417E0,1.230241551E1
1.065946142E1,8.436306610E0,-8.478818207E0,3.589834900E0,1.248793586E1
1.066947042E1,8.704997864E0,-8.410111084E0,3.213667145E0,1.252336268E1
1.067947842E1,9.135802002E0,-8.249944153E0,2.843486938E0,1.263368017E1
1.068948642E1,9.542356567E0,-8.072113953E0,2.398612061E0,1.272670155E1
1.069949442E1,9.779912567E0,-7.925568695E0,1.970502319E0,1.274143667E1
1.070950342E1,1.011326935E1,-7.841144257E0,1.521136780E0,1.288703291E1
1.071951142E1,1.048898804E1,-7.715256042E0,1.043629761E0,1.306266469E1
1.072951942E1,1.085572540E1,-7.604037323E0,4.751119995E-1,1.326249935E1
1.073952742E1,1.135763168E1,-7.631729736E0,-1.981878662E-1,1.368496893E1
1.074953642E1,1.189920547E1,-7.716603241E0,-9.415420532E-1,1.421349915E1
1.075954442E1,1.254241791E1,-7.662565613E0,-1.672771454E0,1.479274562E1
1.076955242E1,1.305330551E1,-7.475754089E0,-2.390079803E0,1.523115772E1
1.077956042E1,1.331421295E1,-7.285050659E0,-2.954256592E0,1.546181948E1
1.078956942E1,1.332124832E1,-6.957531738E0,-3.254382477E0,1.537705791E1
1.079957742E1,1.377824799E1,-7.137457581E0,-3.392245789E0,1.588366298E1
1.080958542E1,1.369891296E1,-6.981631622E0,-3.208727417E0,1.570666509E1
1.081959342E1,1.354473358E1,-6.499334564E0,-3.032244415E0,1.532630627E1
1.082960242E1,1.348605560E1,-6.259533234E0,-3.009940796E0,1.516954830E1
1.083961042E1,1.339250015E1,-6.343059540E0,-2.885399780E0,1.509698634E1
1.084961842E1,1.327559326E1,-6.379284210E0,-2.662064209E0,1.496740556E1
1.085962742E1,1.315344727E1,-6.418053589E0,-2.508483582E0,1.484914397E1
1.086963542E1,1.299073563E1,-6.586154022E0,-2.449506226E0,1.476945218E1
1.087964342E1,1.279913406E1,-6.762786713E0,-2.425406342E0,1.467772846E1
1.088965142E1,1.262175293E1,-6.931635590E0,-2.426903229E0,1.460294759E1
1.089966042E1,1.242760666E1,-7.120243378E0,-2.370171204E0,1.451760946E1
1.090966842E1,1.231144821E1,-7.304210815E0,-2.206112366E0,1.448413561E1
1.091967642E1,1.225411743E1,-7.541766815E0,-1.969005432E0,1.452303767E1
1.092968442E1,1.223166412E1,-7.824977875E0,-1.679357758E0,1.461725448E1
1.093969342E1,1.209664490E1,-8.032745819E0,-1.339714050E0,1.458247774E1
1.094970142E1,1.186732178E1,-8.200247498E0,-9.280700684E-1,1.445471201E1
1.095970942E1,1.171104675E1,-8.399932251E0,-5.848338318E-1,1.442392140E1
1.096971742E1,1.148756149E1,-8.535550232E0,-2.921923828E-1,1.431450534E1
1.097972642E1,1.125614273E1,-8.683742065E0,-2.125579834E-2,1.421648962E1
1.098973442E1,1.105645798E1,-8.870254211E0,1.812730408E-1,1.417601964E1
1.099974242E1,1.078312637E1,-9.019194489E0,3.635939026E-1,1.406249921E1
1.100975042E1,1.046668442E1,-9.210496674E0,4.831951904E-1,1.395056304E1
1.101975942E1,1.022373962E1,-9.442663879E0,6.373745728E-1,1.393179814E1
1.102976742E1,1.008198441E1,-9.681866455E0,7.771838379E-1,1.399960579E1
1.103977542E1,9.997709656E0,-9.999655609E0,8.530760193E-1,1.416598212E1
1.104978442E1,9.930798798E0,-1.027119095E1,1.006656647E0,1.432241201E1
1.105979242E1,9.926757202E0,-1.043539948E1,1.209484863E0,1.445340529E1
1.106980042E1,9.977651367E0,-1.055964111E1,1.401236115E0,1.459530780E1
1.107980842E1,1.012210098E1,-1.061966629E1,1.603764954E0,1.475826218E1
1.108981742E1,1.032148636E1,-1.059137512E1,1.790576477E0,1.489686114E1
1.109982542E1,1.052132080E1,-1.050874695E1,2.033221893E0,1.500886222E1
1.110983342E1,1.047042664E1,-1.043450134E1,1.994003448E0,1.491592109E1
1.111984142E1,1.020592667E1,-1.031400192E1,1.915716248E0,1.463589914E1
1.112985042E1,9.986033936E0,-1.014904495E1,2.023641815E0,1.438120695E1
1.113985842E1,9.862840118E0,-1.005683670E1,2.186203766E0,1.425465070E1
1.114986642E1,9.745035095E0,-1.006911118E1,2.343526611E0,1.420721035E1
1.115987442E1,9.539512482E0,-1.004575974E1,2.490071869E0,1.407551224E1
1.116988342E1,9.273964691E0,-9.983489227E0,2.641706543E0,1.388002492E1
1.117989142E1,9.059460754E0,-9.856553192E0,2.869981842E0,1.369168601E1
1.118989942E1,8.882977753E0,-9.800419922E0,2.943329315E0,1.355059821E1
1.119990842E1,8.640032959E0,-9.624685364E0,2.959495697E0,1.326813298E1
1.120991642E1,8.226143646E0,-9.252708893E0,3.116668854E0,1.276697638E1
1.121992442E1,7.827971649E0,-9.495803375E0,2.941083984E0,1.265296000E1
1.122993242E1,7.333400116E0,-9.134155426E0,3.038980408E0,1.210152695E1
1.123994142E1,6.793173523E0,-8.536747742E0,3.359314270E0,1.141526438E1
1.124994942E1,6.284980316E0,-8.335715790E0,3.349883881E0,1.096388879E1
1.125995742E1,5.780679016E0,-7.877668304E0,3.211571503E0,1.028533419E1
1.126996542E1,5.247487793E0,-7.145241394E0,3.214415588E0,9.429902984E0
1.127997442E1,4.887486420E0,-6.629563751E0,3.121458893E0,8.808072698E0
1.128998242E1,4.564458160E0,-6.178102570E0,3.094664612E0,8.281315036E0
1.129999042E1,4.373006287E0,-5.738616486E0,3.016676788E0,7.820181711E0
1.130999842E1,4.273014221E0,-5.351671143E0,3.020718384E0,7.484903079E0
1.132000742E1,4.199816437E0,-4.948709106E0,3.018772430E0,7.158293575E0
1.133001542E1,4.110751648E0,-4.525389404E0,2.976709900E0,6.799869866E0
1.134002342E1,3.910168762E0,-4.135899353E0,2.868035889E0,6.373438088E0
1.135003142E1,3.683689728E0,-3.820355530E0,2.799478455E0,6.000147165E0
1.136004042E1,3.524271240E0,-3.518732758E0,2.635569305E0,5.634553537E0
1.137004842E1,3.434008942E0,-3.312461700E0,2.541115723E0,5.405745929E0
1.138005642E1,3.403921509E0,-3.083288269E0,2.539918213E0,5.248288551E0
1.139006442E1,3.504362640E0,-2.715802460E0,2.609523468E0,5.144487656E0
1.140007342E1,3.724255371E0,-2.563119965E0,2.600542145E0,5.215599819E0
1.141008142E1,3.872297516E0,-2.398162994E0,2.622696075E0,5.255892741E0
1.142008942E1,3.976630554E0,-2.166744232E0,2.597548370E0,5.220692355E0
1.143009829E1,4.115391998E0,-1.938618622E0,2.553689575E0,5.216897920E0
1.144010629E1,4.342469788E0,-1.743873596E0,2.419718170E0,5.268128225E0
1.145011429E1,4.627626801E0,-1.661245422E0,2.266436920E0,5.414000598E0
1.146012229E1,4.882097626E0,-1.660496979E0,2.202968903E0,5.607601932E0
1.147013129E1,5.054089966E0,-1.650467834E0,2.259401550E0,5.776916550E0
1.148013929E1,5.176984406E0,-1.681154022E0,2.386187897E0,5.943175840E0
1.149014729E1,5.317542114E0,-1.804946594E0,2.587219849E0,6.182862839E0
1.150015529E1,5.551505585E0,-1.972747650E0,2.830763397E0,6.536372768E0
1.151016429E1,5.814957733E0,-2.142943726E0,3.080893250E0,6.920826863E0
1.152017229E1,6.015540619E0,-2.339485016E0,3.351979523E0,7.272942032E0
1.153018029E1,6.130351868E0,-2.611918488E0,3.613036652E0,7.580063724E0
1.154018829E1,6.168522491E0,-3.015628967E0,3.945944366E0,7.919290671E0
1.155019729E1,6.072272644E0,-3.496129761E0,4.315675507E0,8.229245011E0
1.156020529E1,5.942642212E0,-4.072281647E0,4.679119720E0,8.590264002E0
1.157021329E1,5.857918396E0,-4.652325439E0,5.126239929E0,9.068499090E0
1.158022229E1,5.961203613E0,-5.098996582E0,5.628744965E0,9.654972011E0
1.159023029E1,5.996230774E0,-5.289550323E0,6.058650970E0,1.003201763E1
1.160023829E1,6.035149841E0,-5.291496277E0,6.332581329E0,1.022372499E1
1.161024629E1,6.154601440E0,-5.149291992E0,6.339017944E0,1.022631289E1
1.162025529E1,6.288123779E0,-4.973108368E0,6.129902802E0,1.009197780E1
1.163026329E1,6.469097443E0,-4.884342957E0,5.876180420E0,1.001176928E1
1.164027129E1,6.745123444E0,-4.892725525E0,5.692212982E0,1.009141922E1
1.165027929E1,7.027735748E0,-5.018164673E0,5.494923248E0,1.023548865E1
1.166028829E1,7.323670349E0,-5.192252655E0,5.358556824E0,1.045513110E1
1.167029629E1,7.726632385E0,-5.483097839E0,5.255421295E0,1.083442029E1
1.168030429E1,8.149053955E0,-5.847739563E0,5.143304443E0,1.127194389E1
1.169031329E1,8.534801788E0,-6.200555878E0,5.078938293E0,1.170834527E1
1.170032129E1,8.878187714E0,-6.553521881E0,5.100493469E0,1.215672241E1
1.171032929E1,9.160350952E0,-6.841822357E0,5.113815765E0,1.252492213E1
1.172033729E1,9.339528351E0,-7.078330536E0,5.118605804E0,1.278787232E1
1.173034629E1,9.399254150E0,-7.305707703E0,5.106031952E0,1.295341291E1
1.174035429E1,9.328301697E0,-7.416776733E0,5.214556274E0,1.300835834E1
1.175036229E1,9.199719086E0,-7.381749573E0,5.351222076E0,1.295224443E1
1.176037029E1,9.207502899E0,-7.254214783E0,5.322481842E0,1.287363797E1
1.177037929E1,9.226663055E0,-7.154671783E0,5.020559692E0,1.270931387E1
1.178038729E1,9.089847565E0,-7.040459290E0,4.761149139E0,1.244435361E1
1.179039529E1,8.947194214E0,-6.885232086E0,4.706961823E0,1.223168814E1
1.180040329E1,8.874146118E0,-6.788084106E0,4.680466919E0,1.211343575E1
1.181041229E1,8.713979187E0,-6.722819824E0,4.550686798E0,1.190959655E1
1.182042029E1,8.505013733E0,-6.582860870E0,4.356540527E0,1.160382528E1
1.183042829E1,8.328231354E0,-6.500681763E0,4.079017639E0,1.132504683E1
1.184043729E1,8.166118469E0,-6.437812500E0,3.699706421E0,1.103715309E1
1.185044529E1,8.038284302E0,-6.369554443E0,3.290158081E0,1.077081141E1
1.186045329E1,7.864645386E0,-6.325545959E0,2.855761414E0,1.048906821E1
1.187046129E1,7.710466003E0,-6.311325531E0,2.480192413E0,1.026817756E1
1.188047029E1,7.592960358E0,-6.358627167E0,2.202220459E0,1.014568684E1
1.189047829E1,7.540718994E0,-6.465355225E0,2.061213684E0,1.014454844E1
1.190048629E1,7.549999695E0,-6.564000092E0,2.036365356E0,1.020957279E1
1.191049429E1,7.540868683E0,-6.659950562E0,2.023791504E0,1.026232790E1
1.192050329E1,7.503596191E0,-6.743626556E0,2.013462982E0,1.028758903E1
1.193051129E1,7.385491791E0,-6.661896515E0,2.031575317E0,1.015153449E1
1.194051929E1,7.331903229E0,-6.601122894E0,1.985022125E0,1.006339611E1
1.195052729E1,7.362739105E0,-6.612648926E0,1.986369324E0,1.009369685E1
1.196053629E1,7.482639771E0,-6.545738068E0,2.066602478E0,1.015418291E1
1.197054429E1,7.684420166E0,-6.486910400E0,2.151026917E0,1.028383375E1
1.198055229E1,7.937094727E0,-6.509663086E0,2.222278748E0,1.050293811E1
1.199056129E1,8.280780029E0,-6.468947754E0,2.324067078E0,1.076196500E1
1.200056929E1,8.590485992E0,-6.441704407E0,2.328108673E0,1.098690563E1
1.201057729E1,8.920549622E0,-6.412664795E0,2.320773926E0,1.122873399E1
1.202058529E1,9.215286713E0,-6.340664520E0,2.306553497E0,1.142128385E1
1.203059429E1,9.374256134E0,-6.245163116E0,2.324067078E0,1.150130550E1
1.204060229E1,9.512119446E0,-6.074068909E0,2.343376923E0,1.152675778E1
1.205061029E1,9.692644043E0,-5.873785400E0,2.332000580E0,1.157095200E1
1.206061829E1,9.824819183E0,-5.716312866E0,2.323468323E0,1.160180201E1
1.207062729E1,9.938732300E0,-5.640420685E0,2.383343811E0,1.167360582E1
1.208063529E1,1.006626709E1,-5.586682434E0,2.524200897E0,1.178610809E1
1.209064329E1,1.029633865E1,-5.578299866E0,2.691702576E0,1.201570979E1
1.210065229E1,1.046638504E1,-5.601651306E0,2.932102661E0,1.222787550E1
1.211066029E1,1.054557037E1,-5.621709595E0,3.111729126E0,1.234890811E1
1.212066829E1,1.060439804E1,-5.540278931E0,3.172951813E0,1.237802778E1
1.213067629E1,1.069765411E1,-5.446573792E0,3.147055664E0,1.241003340E1
1.214068529E1,1.085752167E1,-5.648354187E0,3.042273560E0,1.261130882E1
1.215069329E1,1.120420074E1,-6.223907318E0,2.910547485E0,1.314315119E1
1.216070129E1,1.175131302E1,-6.976093140E0,2.873724060E0,1.396486746E1
1.217070929E1,1.242850479E1,-7.965685272E0,2.843786316E0,1.503352899E1
1.218071829E1,1.311527664E1,-8.992400208E0,2.885848846E0,1.616174082E1
1.219072629E1,1.360311218E1,-9.526489563E0,3.007545776E0,1.687732195E1
1.220073429E1,1.372645569E1,-9.446855164E0,3.091371460E0,1.694742564E1
1.221074329E1,1.346285385E1,-9.060358887E0,3.245850220E0,1.654914139E1
1.222075129E1,1.291349625E1,-8.456514587E0,3.443439331E0,1.581544494E1
1.223075929E1,1.230022156E1,-8.012537842E0,3.664529572E0,1.513026735E1
1.224076729E1,1.187765030E1,-7.945926361E0,3.810326385E0,1.478968930E1
1.225077629E1,1.161659317E1,-8.003257141E0,3.934568024E0,1.464507382E1
1.226078429E1,1.126018433E1,-8.065976715E0,3.993395691E0,1.441523294E1
1.227079229E1,1.083402054E1,-8.238118744E0,3.862118683E0,1.414774053E1
1.228080029E1,1.040665924E1,-8.424181824E0,3.657793579E0,1.387965597E1
1.229080929E1,1.001836670E1,-8.564290466E0,3.382665710E0,1.360724696E1
1.230081729E1,9.762548676E0,-8.714727631E0,3.091521149E0,1.344661063E1
1.231082529E1,9.617200928E0,-8.902437286E0,2.872227173E0,1.341617055E1
1.232083429E1,9.494905243E0,-9.104067993E0,2.707419891E0,1.343009315E1
1.233084229E1,9.365574188E0,-9.307345276E0,2.598745880E0,1.345712213E1
1.234085029E1,9.185648346E0,-9.446106720E0,2.553390198E0,1.342106066E1
1.235085829E1,8.992250519E0,-9.573042755E0,2.527494049E0,1.337504928E1
1.236086729E1,8.831035767E0,-9.692045288E0,2.461930389E0,1.334106577E1
1.237087529E1,8.712631989E0,-9.751771088E0,2.429298248E0,1.330069493E1
1.238088329E1,8.533604279E0,-9.747430115E0,2.363435211E0,1.316892637E1
1.239089229E1,8.288114777E0,-9.713450775E0,2.301913147E0,1.297469756E1
1.240090029E1,8.091573486E0,-9.668993225E0,2.198627930E0,1.279831849E1
1.241090829E1,7.903714142E0,-9.514963531E0,2.117197266E0,1.254933275E1
1.242091629E1,7.706723785E0,-9.349707184E0,1.945803680E0,1.227178748E1
1.243092479E1,7.465724945E0,-9.175768890E0,1.791474609E0,1.196416169E1
1.244093279E1,7.248975677E0,-8.971593475E0,1.729653168E0,1.166314014E1
1.245094079E1,7.074588318E0,-8.834179230E0,1.613794098E0,1.143227247E1
1.246094879E1,6.966662750E0,-8.785979462E0,1.534309387E0,1.131732876E1
1.247095779E1,6.943011932E0,-8.786129150E0,1.456171875E0,1.129256024E1
1.248096579E1,6.879992981E0,-8.713230743E0,1.468146973E0,1.119866728E1
1.249097379E1,6.786587219E0,-8.597221985E0,1.539249115E0,1.106070883E1
1.250098179E1,6.716383209E0,-8.487500153E0,1.593586121E0,1.094015443E1
1.251099079E1,6.663393402E0,-8.332722015E0,1.616338806E0,1.079108979E1
1.252099879E1,6.582411804E0,-8.109835510E0,1.643133087E0,1.057343196E1
1.253100679E1,6.471043396E0,-7.843239899E0,1.661844177E0,1.030303551E1
1.254101579E1,6.269263000E0,-7.509284363E0,1.710942078E0,9.930777059E0
1.255102379E1,6.072422333E0,-7.179669800E0,1.730700989E0,9.561239320E0
1.256103179E1,5.917195129E0,-6.837032318E0,1.739382935E0,9.207804413E0
1.257103979E1,5.746400299E0,-6.536157990E0,1.764979706E0,8.880181925E0
1.258104879E1,5.545667725E0,-6.296356659E0,1.769170990E0,8.574876307E0
1.259105679E1,5.346881104E0,-6.087840271E0,1.769021301E0,8.293393338E0
1.260106479E1,5.133275299E0,-5.911656647E0,1.731150055E0,8.018421298E0
1.261107379E1,4.972210236E0,-5.817352753E0,1.532812500E0,7.804740985E0
1.262108179E1,4.868326263E0,-5.767057343E0,1.506916351E0,7.696125512E0
1.263108979E1,4.800367584E0,-5.723647614E0,1.478625183E0,7.615116767E0
1.264109779E1,4.717589722E0,-5.684578857E0,1.354682922E0,7.510343227E0
1.265110679E1,4.645888824E0,-5.638923798E0,1.160087585E0,7.397806957E0
1.266111479E1,4.515509949E0,-5.586682434E0,1.068029022E0,7.262336863E0
1.267112279E1,4.417463837E0,-5.544919281E0,1.049467621E0,7.166693719E0
1.268113079E1,4.341871033E0,-5.516927490E0,1.041983185E0,7.097468701E0
1.269113979E1,4.358785858E0,-5.544320526E0,1.020877075E0,7.126057413E0
1.270114779E1,4.387376404E0,-5.559289398E0,9.707313538E-1,7.148222834E0
1.271115579E1,4.404889984E0,-5.542075195E0,8.439450073E-1,7.129508848E0
1.272116479E1,4.391717377E0,-5.539829865E0,7.683522034E-1,7.111066133E0
1.273117279E1,4.402644653E0,-5.530848541E0,6.927593994E-1,7.103061390E0
1.274118079E1,4.379442902E0,-5.485193481E0,5.492079163E-1,7.040489826E0
1.275118879E1,4.398453369E0,-5.442831573E0,3.821553040E-1,7.008341477E0
1.276119779E1,4.479734344E0,-5.480253754E0,2.881507874E-1,7.084082995E0
1.277120579E1,4.696034546E0,-5.638923798E0,1.326242065E-1,7.339468048E0
1.278121379E1,5.091063080E0,-6.024372253E0,-1.604663086E-1,7.889089540E0
1.279122179E1,5.589975586E0,-6.683900757E0,-4.644841003E-1,8.725714977E0
1.280123079E1,6.164031830E0,-7.564669189E0,-7.235952759E-1,9.784840237E0
1.281123879E1,6.611451416E0,-8.387508087E0,-8.599617004E-1,1.071452826E1
1.282124679E1,6.959926758E0,-9.066945190E0,-8.162525940E-1,1.145933435E1
1.283125579E1,7.337142334E0,-9.625433807E0,-7.015910339E-1,1.212331900E1
1.284126379E1,7.625742188E0,-9.923763428E0,-3.697311401E-1,1.252077177E1
1.285127179E1,7.823480988E0,-9.925260315E0,1.663041687E-1,1.263903889E1
1.286127979E1,8.026758270E0,-9.711055756E0,6.607260132E-1,1.261625979E1
1.287128879E1,8.271948395E0,-9.444909210E0,1.020128632E0,1.259651153E1
1.288129679E1,8.623417511E0,-9.208999786E0,1.362317047E0,1.268955927E1
1.289130479E1,8.967701569E0,-9.021739197E0,1.555864563E0,1.281530975E1
1.290131379E1,9.408834229E0,-8.945397949E0,1.639390869E0,1.308563749E1
1.291132179E1,9.943821716E0,-8.882229309E0,1.573378143E0,1.342568831E1
1.292132979E1,1.052147049E1,-8.841064911E0,1.459764404E0,1.382015492E1
1.293133779E1,1.111348938E1,-8.757538605E0,1.320404205E0,1.421082671E1
1.294134679E1,1.163979492E1,-8.570577393E0,1.092877350E0,1.449599957E1
1.295135479E1,1.202763840E1,-8.263865204E0,7.933502197E-1,1.461454611E1
1.296136279E1,1.228076202E1,-7.866441650E0,5.528004456E-1,1.459464314E1
1.297137079E1,1.244661713E1,-7.373516693E0,3.472778320E-1,1.447092354E1
1.298137979E1,1.257205627E1,-6.828350372E0,2.956352234E-1,1.430979972E1
1.299138779E1,1.254750732E1,-6.287375336E0,4.797523499E-1,1.404283415E1
1.300139579E1,1.234153564E1,-5.857319641E0,6.706054688E-1,1.367740499E1
1.301140479E1,1.211385910E1,-5.527555389E0,7.560777283E-1,1.333683262E1
1.302141279E1,1.192794571E1,-5.399272156E0,7.396119690E-1,1.311392598E1
1.303142079E1,1.173394913E1,-5.513334961E0,6.668632507E-1,1.298179999E1
1.304142879E1,1.139804764E1,-5.692961426E0,5.671705627E-1,1.275331260E1
1.305143779E1,1.097203354E1,-5.848188629E0,4.638853455E-1,1.244194598E1
1.306144579E1,1.047177383E1,-6.061045990E0,3.724255371E-1,1.210508267E1
1.307145379E1,9.926457825E0,-6.286177826E0,2.398013306E-1,1.175194032E1
1.308146279E1,9.387578430E0,-6.379433899E0,2.363584900E-1,1.135251827E1
1.309147079E1,8.947044525E0,-6.430028687E0,3.291654968E-1,1.102285011E1
1.310147879E1,8.534951477E0,-6.470145264E0,3.752696228E-1,1.071676275E1
1.311148679E1,8.153245239E0,-6.430627441E0,4.135899353E-1,1.039227761E1
1.312149579E1,7.863447876E0,-6.378685455E0,4.495152283E-1,1.013526046E1
1.313150379E1,7.575446777E0,-6.285429382E0,4.674778748E-1,9.854570105E0
1.314151179E1,7.338489532E0,-6.129304047E0,4.556524658E-1,9.572325521E0
1.315152079E1,7.207212524E0,-5.968388672E0,4.472698975E-1,9.368331018E0
1.316152879E1,7.127727814E0,-5.775439911E0,4.285588074E-1,9.183892018E0
1.317153679E1,7.053033142E0,-5.535937958E0,3.866459656E-1,8.974484981E0
1.318154479E1,7.055577850E0,-5.251080322E0,3.469784546E-1,8.802012122E0
1.319155379E1,7.194189606E0,-4.969665527E0,2.844085693E-1,8.748418587E0
1.320156179E1,7.378755798E0,-4.732109528E0,2.383044434E-1,8.769018572E0
1.321156979E1,7.554340668E0,-4.478237457E0,2.040257263E-1,8.784321268E0
1.322157779E1,7.780819702E0,-4.284839630E0,7.634124756E-2,8.882951867E0
1.323158679E1,8.057743835E0,-4.165537720E0,-1.064286804E-1,9.071398309E0
1.324159479E1,8.378227386E0,-4.124672699E0,-2.323168945E-1,9.341391232E0
1.325160279E1,8.744515686E0,-4.215533752E0,-3.065625000E-1,9.712428119E0
1.326161179E1,9.133107605E0,-4.394262085E0,-3.055146790E-1,1.013984877E1
1.327161979E1,9.443112946E0,-4.535867615E0,-1.773811340E-1,1.047749690E1
1.328162779E1,9.679022369E0,-4.671934662E0,2.649490356E-2,1.074761134E1
1.329163579E1,9.934840393E0,-4.799170074E0,3.201841736E-1,1.103791669E1
1.330164479E1,1.022104523E1,-4.938530273E0,6.706054688E-1,1.137139211E1
1.331165279E1,1.037956558E1,-5.125042419E0,1.068328400E0,1.162509213E1
1.332166079E1,1.044812302E1,-5.321434021E0,1.571132813E0,1.183002083E1
1.333166979E1,1.055036041E1,-5.470823364E0,1.972448273E0,1.204701479E1
1.334167779E1,1.070409073E1,-5.674549713E0,2.217937775E0,1.231654662E1
1.335168579E1,1.077923447E1,-5.913303223E0,2.511926422E0,1.254865830E1
1.336169379E1,1.088072342E1,-6.225703583E0,2.769091644E0,1.283812275E1
1.337170279E1,1.113115265E1,-6.799310760E0,2.941383362E0,1.337104791E1
1.338171079E1,1.159683426E1,-7.764503632E0,3.028801575E0,1.428102659E1
1.339171879E1,1.230845444E1,-8.987759857E0,3.039878540E0,1.554087319E1
1.340172779E1,1.314341812E1,-1.027672943E1,2.997516632E0,1.695127469E1
1.341173579E1,1.383707565E1,-1.121063736E1,2.951113129E0,1.805137450E1
1.342174379E1,1.420501053E1,-1.166464325E1,2.987038422E0,1.862172454E1
1.343174867E1,1.407148819E1,-1.141211838E1,3.119213562E0,1.838403435E1
1.344175767E1,1.353395599E1,-1.064690964E1,3.311713257E0,1.753545250E1
1.345176567E1,1.278775772E1,-9.781708832E0,3.425925751E0,1.646042352E1
1.346177367E1,1.216205887E1,-9.081015930E0,3.478466492E0,1.557177753E1
1.347178267E1,1.186582489E1,-8.679700470E0,3.543431396E0,1.512252977E1
1.348179067E1,1.156569901E1,-8.489895172E0,3.532803497E0,1.477580502E1
1.349179867E1,1.123803040E1,-8.456065521E0,3.376229095E0,1.446365425E1
1.350180667E1,1.084345093E1,-8.522976379E0,3.113974457E0,1.413925003E1
1.351181567E1,1.040501266E1,-8.638685760E0,2.782713318E0,1.380705159E1
1.352182367E1,1.002764740E1,-8.829838257E0,2.441572723E0,1.358237952E1
1.353183167E1,9.667047272E0,-8.951235809E0,2.199226685E0,1.335713380E1
1.354184067E1,9.316476288E0,-9.056616669E0,2.024689636E0,1.314984426E1
1.355184867E1,8.952882385E0,-9.223220215E0,1.949096832E0,1.300080277E1
1.356185667E1,8.656947784E0,-9.313781891E0,1.948498077E0,1.286413319E1
1.357186467E1,8.354875946E0,-9.309291229E0,2.063309326E0,1.267770092E1
1.358187367E1,8.060438232E0,-9.281000061E0,2.199076996E0,1.248773664E1
1.359188167E1,7.806715851E0,-9.199419708E0,2.301314392E0,1.228292242E1
1.360188967E1,7.525151367E0,-9.057814178E0,2.295626221E0,1.199757478E1
1.361189767E1,7.237150269E0,-8.878936157E0,2.308349762E0,1.168504728E1
1.362190667E1,7.006330261E0,-8.644074554E0,2.268382874E0,1.135580246E1
1.363191467E1,6.766079865E0,-8.379424896E0,2.170935516E0,1.098669920E1
1.364192267E1,6.505771179E0,-8.093070374E0,1.976789246E0,1.057026690E1
1.365193167E1,6.270460510E0,-7.784112854E0,1.785187683E0,1.015371769E1
1.366193967E1,6.116131439E0,-7.509583740E0,1.605261841E0,9.817218410E0
1.367194767E1,5.981411591E0,-7.294780426E0,1.458566895E0,9.545602310E0
1.368195567E1,5.899980927E0,-7.117099915E0,1.277144165E0,9.332415729E0
1.369196467E1,5.798941040E0,-6.935377808E0,1.081051941E0,9.104716131E0
1.370197267E1,5.679190063E0,-6.778354340E0,9.380992126E-1,8.892655254E0
1.371198067E1,5.586981812E0,-6.610852661E0,9.107061768E-1,8.703282393E0
1.372198967E1,5.547613678E0,-6.486611023E0,8.765771484E-1,8.580240532E0
1.373199767E1,5.544619904E0,-6.402036896E0,8.021818542E-1,8.507195896E0
1.374200567E1,5.603896637E0,-6.353986816E0,7.656578064E-1,8.506646687E0
1.375201367E1,5.732928314E0,-6.329587555E0,7.723937988E-1,8.574773341E0
1.376202267E1,5.769901428E0,-6.201903076E0,7.804769897E-1,8.506733133E0
1.377203067E1,5.755531311E0,-6.037245483E0,7.399113464E-1,8.373884553E0
1.378203867E1,5.776338043E0,-5.902375946E0,7.487429810E-1,8.292450726E0
1.379204767E1,5.784570923E0,-5.794600067E0,7.186555481E-1,8.219191961E0
1.380205567E1,5.718109131E0,-5.718558197E0,6.837780762E-1,8.115801399E0
1.381206367E1,5.750890961E0,-5.713169403E0,6.985972595E-1,8.136405201E0
1.382207167E1,5.929319916E0,-5.763464813E0,7.180567932E-1,8.299998005E0
1.383208067E1,6.012846222E0,-5.884413300E0,7.212002563E-1,8.443978291E0
1.384208867E1,5.929170227E0,-5.981411591E0,7.592211914E-1,8.456285296E0
1.385209667E1,5.886209564E0,-6.129004669E0,7.539820862E-1,8.531157615E0
1.386210567E1,5.899232483E0,-6.273454285E0,6.962022400E-1,8.639552657E0
1.387211367E1,5.936654663E0,-6.453080750E0,6.774911499E-1,8.794607098E0
1.388212167E1,5.936205597E0,-6.675667877E0,6.782395935E-1,8.958966874E0
1.389212967E1,5.888903961E0,-6.872358856E0,6.182144165E-1,9.071421894E0
1.390213867E1,5.802084503E0,-6.974296875E0,5.825885010E-1,9.090897142E0
1.391214667E1,5.663772125E0,-6.969506836E0,5.860313416E-1,8.999765161E0
1.392215467E1,5.491630096E0,-6.969806213E0,5.517526245E-1,8.890479780E0
1.393216367E1,5.313650208E0,-6.988068237E0,5.481600952E-1,8.795934044E0
1.394217167E1,5.204078064E0,-7.100035400E0,4.846920776E-1,8.816340374E0
1.395217967E1,5.302423553E0,-7.383545837E0,4.141886902E-1,9.099670156E0
1.396218767E1,5.619913330E0,-7.934100952E0,3.156935120E-1,9.727951796E0
1.397219667E1,6.076014862E0,-8.627309418E0,2.546205139E-1,1.055524779E1
1.398220467E1,6.377487946E0,-9.072184296E0,2.535726929E-1,1.109239287E1
1.399221267E1,6.520141296E0,-9.236392822E0,2.489323425E-1,1.130863220E1
1.400222167E1,6.511459351E0,-9.217681732E0,3.514691162E-1,1.129107125E1
1.401222967E1,6.327641602E0,-8.972940674E0,5.399272156E-1,1.099291745E1
1.402223767E1,6.256240082E0,-8.734336853E0,7.791297913E-1,1.077201111E1
1.403224567E1,6.253845062E0,-8.352780304E0,9.767189026E-1,1.048014774E1
1.404225467E1,6.336473236E0,-7.874375153E0,1.144669647E0,1.017187032E1
1.405226267E1,6.487808533E0,-7.473658447E0,1.208137665E0,9.970297225E0
1.406227067E1,6.651268616E0,-7.226222992E0,1.116977234E0,9.884599692E0
1.407227967E1,7.034920807E0,-7.166946259E0,1.020727386E0,1.009441003E1
1.408228767E1,7.628586273E0,-7.282505951E0,7.816744995E-1,1.057550171E1
1.409229567E1,8.158484344E0,-7.338339844E0,4.293072510E-1,1.098163937E1
1.410230367E1,8.747060394E0,-7.497458954E0,4.595443726E-2,1.152063662E1
1.411231267E1,9.393715668E0,-7.651039581E0,-2.727328491E-1,1.211836144E1
1.412232067E1,9.989327087E0,-7.807913361E0,-5.749543762E-1,1.269175871E1
1.413232867E1,1.046713348E1,-7.951614532E0,-7.116201782E-1,1.316417336E1
1.414233767E1,1.065229843E1,-7.985593872E0,-8.502319336E-1,1.334031730E1
1.415234567E1,1.080692688E1,-7.912845154E0,-9.544152832E-1,1.342809352E1
1.416235367E1,1.084285217E1,-7.718399506E0,-9.005273438E-1,1.333986820E1
1.417236167E1,1.077010345E1,-7.507637787E0,-7.767347717E-1,1.315154251E1
1.418237067E1,1.063837738E1,-7.298522644E0,-5.441184998E-1,1.291276775E1
1.419237867E1,1.056173676E1,-7.148085480E0,-2.929408264E-1,1.275661490E1
1.420238667E1,1.041549088E1,-7.025041351E0,-1.173559570E-1,1.256373466E1
1.421239567E1,1.017643799E1,-6.887178040E0,-3.248245239E-2,1.228796837E1
1.422240367E1,9.913883972E0,-6.764732666E0,2.993774414E-4,1.200194582E1
1.423241167E1,9.647438049E0,-6.656507721E0,5.149291992E-2,1.172112654E1
1.424241967E1,9.413324890E0,-6.614744568E0,3.936813354E-2,1.150508935E1
1.425242867E1,9.162596283E0,-6.575526123E0,1.203497314E-1,1.127852821E1
1.426243667E1,8.942853241E0,-6.547534332E0,2.240840149E-1,1.108580370E1
1.427244467E1,8.765023041E0,-6.578669586E0,2.794688416E-1,1.096278365E1
1.428245367E1,8.571176147E0,-6.578968964E0,3.245251465E-1,1.080986631E1
1.429246167E1,8.378526764E0,-6.550228729E0,3.996688843E-1,1.064260036E1
1.430246967E1,8.200846252E0,-6.477030945E0,4.192781067E-1,1.045856602E1
1.431247767E1,8.052654419E0,-6.386469269E0,4.382885742E-1,1.028709530E1
1.432248667E1,7.917485504E0,-6.186335449E0,5.069956970E-1,1.006053516E1
1.433249467E1,7.815547485E0,-6.042783966E0,4.929249573E-1,9.891460740E0
1.434250267E1,7.779173126E0,-5.833369446E0,5.264552307E-1,9.737601796E0
1.435251167E1,7.748337250E0,-5.639971619E0,5.427713013E-1,9.598990086E0
1.436251967E1,7.732470245E0,-5.520669708E0,6.186634827E-1,9.521115199E0
1.437252767E1,7.779023438E0,-5.356461182E0,7.102729797E-1,9.471503035E0
1.438253567E1,7.805817719E0,-5.269791412E0,7.421566772E-1,9.447342924E0
1.439254467E1,7.934100952E0,-5.252427521E0,8.093669128E-1,9.549504049E0
1.440255267E1,8.103997650E0,-5.262007599E0,8.572673035E-1,9.700433450E0
1.441256067E1,8.257727966E0,-5.276976471E0,8.500822449E-1,9.836625014E0
1.442256967E1,8.457712097E0,-5.292693787E0,8.181985474E-1,1.001074175E1
1.443258096E1,8.719218292E0,-5.329517212E0,7.676037598E-1,1.024781620E1
1.444258896E1,8.989705811E0,-5.404062195E0,7.256909180E-1,1.051405374E1
1.445259796E1,9.287885742E0,-5.476511536E0,6.779402161E-1,1.080354586E1
1.446260596E1,9.591304779E0,-5.484594727E0,6.655160522E-1,1.106873156E1
1.447261396E1,9.859996033E0,-5.539380798E0,6.659651184E-1,1.132906752E1
1.448262196E1,1.009859985E1,-5.635480957E0,6.780899048E-1,1.158447973E1
1.449263096E1,1.030187714E1,-5.625002747E0,7.539820862E-1,1.176170980E1
1.450263896E1,1.039423508E1,-5.608087921E0,8.578660583E-1,1.184173582E1
1.451264696E1,1.050919601E1,-5.673651581E0,1.004860382E0,1.198512693E1
1.452265596E1,1.071486832E1,-5.809568939E0,1.176553345E0,1.224515300E1
1.453266396E1,1.105376358E1,-6.120472412E0,1.247356110E0,1.269652587E1
1.454267196E1,1.141825562E1,-6.669231262E0,1.273252258E0,1.328444121E1
1.455267996E1,1.184651505E1,-7.445516968E0,1.259480896E0,1.404855629E1
1.456268896E1,1.241697876E1,-8.340954895E0,1.094823303E0,1.499838418E1
1.457269696E1,1.303369629E1,-9.228010254E0,8.457412720E-1,1.599214465E1
1.458270496E1,1.346973953E1,-9.821675720E0,6.198609924E-1,1.668182918E1
1.459271396E1,1.361748230E1,-9.833351440E0,5.652246094E-1,1.680625192E1
1.460272196E1,1.339773926E1,-9.426048431E0,6.029461670E-1,1.639247847E1
1.461272996E1,1.290795776E1,-8.824599152E0,7.373666382E-1,1.565351824E1
1.462273796E1,1.247056732E1,-8.300538940E0,9.279203796E-1,1.500916494E1
1.463274696E1,1.220576797E1,-7.993527374E0,1.107247467E0,1.463226738E1
1.464275496E1,1.186851929E1,-7.782765656E0,1.291663971E0,1.425137141E1
1.465276296E1,1.144849274E1,-7.660769348E0,1.491348724E0,1.385566649E1
1.466277196E1,1.103969284E1,-7.729326782E0,1.573378143E0,1.356808127E1
1.467277996E1,1.063179108E1,-7.889344025E0,1.541045380E0,1.332859901E1
1.468278796E1,1.026595184E1,-8.055498505E0,1.444645844E0,1.312889276E1
1.469279596E1,9.919422455E0,-8.200397186E0,1.313069458E0,1.293698602E1
1.470280496E1,9.569001160E0,-8.366551666E0,1.185085602E0,1.276594681E1
1.471281296E1,9.165590057E0,-8.449778595E0,1.103654938E0,1.251498516E1
1.472282096E1,8.750353546E0,-8.503965912E0,1.120569763E0,1.225323631E1
1.473282996E1,8.370892639E0,-8.583151245E0,1.181193695E0,1.204730457E1
1.474283796E1,8.004304962E0,-8.609197083E0,1.271455994E0,1.182386454E1
1.475284596E1,7.694149933E0,-8.576864319E0,1.411265259E0,1.160836829E1
1.476285396E1,7.388335876E0,-8.472531281E0,1.555714874E0,1.134863613E1
1.477286296E1,7.134164429E0,-8.349636841E0,1.627415771E0,1.110230695E1
1.478287096E1,6.904541931E0,-8.216413879E0,1.754950562E0,1.087483369E1
1.479287896E1,6.686295776E0,-8.020471344E0,1.803749084E0,1.059660429E1
1.480288796E1,6.516099701E0,-7.830067291E0,1.718875580E0,1.033073291E1
1.481289596E1,6.388415222E0,-7.699389038E0,1.604812775E0,1.013251522E1
1.482290396E1,6.320157166E0,-7.619006195E0,1.519639893E0,1.001513592E1
1.483291296E1,6.319558411E0,-7.536228333E0,1.432970123E0,9.939062298E0
1.484292096E1,6.405479736E0,-7.523055725E0,1.361568604E0,9.973986523E0
1.485292896E1,6.532415771E0,-7.579039307E0,1.374441833E0,1.009967242E1
1.486293696E1,6.650819550E0,-7.610174561E0,1.402433624E0,1.020367471E1
1.487294596E1,6.758445740E0,-7.604187012E0,1.426234131E0,1.027299337E1
1.488295396E1,6.874903564E0,-7.610773315E0,1.461560669E0,1.035974561E1
1.489296196E1,6.990612946E0,-7.572902069E0,1.445843353E0,1.040711190E1
1.490297096E1,7.076833649E0,-7.484735413E0,1.409768372E0,1.039664780E1
1.491297896E1,7.114555206E0,-7.353458405E0,1.367406464E0,1.032279258E1
1.492298696E1,7.159910889E0,-7.181466064E0,1.354682922E0,1.023097965E1
1.493299496E1,7.200626221E0,-6.998396759E0,1.363364868E0,1.013337747E1
1.494300396E1,7.144492950E0,-6.799011383E0,1.381926270E0,9.958918391E0
1.495301196E1,6.938670959E0,-6.480623474E0,1.468296661E0,9.607264459E0
1.496301996E1,6.691385193E0,-6.131399689E0,1.539548492E0,9.205373838E0
1.497302896E1,6.570885773E0,-5.898933105E0,1.540147247E0,8.963593318E0
1.498303696E1,6.500382385E0,-5.780229950E0,1.466650085E0,8.821399657E0
1.499304496E1,6.399641876E0,-5.721701660E0,1.334025879E0,8.687514666E0
1.500305296E1,6.317013702E0,-5.684878235E0,1.111588440E0,8.570771933E0
1.501306196E1,6.279142456E0,-5.685027924E0,8.722361755E-1,8.515161092E0
1.502306996E1,6.247258759E0,-5.727838898E0,6.465055847E-1,8.500255873E0
1.503307796E1,6.165528717E0,-5.797144775E0,4.674778748E-1,8.475798928E0
1.504308696E1,6.105802917E0,-5.877826996E0,3.870950317E-1,8.484074612E0
1.505309496E1,6.102360077E0,-5.922733612E0,4.379891968E-1,8.515245533E0
1.506310296E1,6.090085602E0,-5.975723419E0,4.742138672E-1,8.545366687E0
1.507311196E1,6.096671906E0,-6.075416107E0,5.192701721E-1,8.622628991E0
1.508311996E1,6.043532410E0,-6.171815643E0,6.122268677E-1,8.659700576E0
1.509312796E1,5.989644470E0,-6.170318756E0,7.146139526E-1,8.628982995E0
1.510313596E1,5.985453186E0,-6.151308289E0,7.011419678E-1,8.611378726E0
1.511314496E1,5.944139099E0,-6.098168793E0,6.149212646E-1,8.538066550E0
1.512315296E1,5.846392365E0,-5.986950073E0,5.430706787E-1,8.385630604E0
1.513316096E1,5.801635437E0,-5.901328125E0,3.481759644E-1,8.282866284E0
1.514316996E1,5.883215790E0,-5.969586182E0,1.248403931E-1,8.382348855E0
1.515317796E1,6.109245758E0,-6.304290161E0,-3.742218018E-2,8.778858615E0
1.516318596E1,6.521937561E0,-6.989565125E0,-2.842588806E-1,9.564020770E0
1.517319396E1,6.886279907E0,-7.683821411E0,-4.724176025E-1,1.032884993E1
1.518320296E1,7.110363922E0,-8.013585663E0,-5.017565918E-1,1.072504499E1
1.519321096E1,7.231312408E0,-8.082442474E0,-4.014651489E-1,1.085260014E1
1.520321896E1,7.067552948E0,-7.895930328E0,-1.431024170E-1,1.059794785E1
1.521322796E1,6.850204926E0,-7.631280670E0,1.826202393E-1,1.025646637E1
1.522323596E1,6.863527222E0,-7.447313232E0,4.144880676E-1,1.013618669E1
1.523324396E1,6.997947693E0,-7.412884827E0,6.138734436E-1,1.021268691E1
1.524325296E1,7.080126801E0,-7.435487823E0,8.357121277E-1,1.030112079E1
1.525326096E1,7.168443146E0,-7.410040741E0,9.785151672E-1,1.035629146E1
1.526326896E1,7.312743073E0,-7.444768524E0,1.022523651E0,1.048553023E1
1.527327696E1,7.586224365E0,-7.561825104E0,1.042282562E0,1.076189351E1
1.528328596E1,7.893535309E0,-7.579638062E0,1.015937347E0,1.099049323E1
1.529329396E1,8.204438782E0,-7.513026581E0,9.270222473E-1,1.116323225E1
1.530330196E1,8.590785370E0,-7.476352844E0,8.906478882E-1,1.142325255E1
1.531331096E1,9.042396240E0,-7.450756073E0,8.095166016E-1,1.174453119E1
1.532331896E1,9.442813568E0,-7.360643463E0,7.173083496E-1,1.199417907E1
1.533332696E1,9.772428131E0,-7.212301941E0,6.445596313E-1,1.216277550E1
1.534333496E1,9.957144012E0,-6.937174072E0,5.468128967E-1,1.214776133E1
1.535334396E1,9.976004791E0,-6.627019043E0,4.697232056E-1,1.198577043E1
1.536335196E1,9.865983582E0,-6.338868256E0,3.779640198E-1,1.173293397E1
1.537335996E1,9.604178009E0,-6.043532410E0,3.650907898E-1,1.135331716E1
1.538336896E1,9.255253601E0,-5.749394073E0,3.731739807E-1,1.090204156E1
1.539337696E1,8.904532928E0,-5.558091888E0,3.725752258E-1,1.050342346E1
1.540338496E1,8.563691711E0,-5.508993988E0,3.689826965E-1,1.018930708E1
1.541339396E1,8.224946136E0,-5.533842316E0,3.579057312E-1,9.919740230E0
1.542340196E1,7.894283752E0,-5.592520294E0,4.230203247E-1,9.683746455E0
1.543341029E1,7.611671448E0,-5.651198273E0,4.782554626E-1,9.492223788E0
1.544341829E1,7.390581207E0,-5.706283722E0,4.607418823E-1,9.348510447E0
1.545342729E1,7.198680267E0,-5.833070068E0,4.167333984E-1,9.274662837E0
1.546343529E1,6.996301117E0,-5.897735596E0,3.848497009E-1,9.158581974E0
1.547344329E1,6.772217102E0,-5.907016296E0,4.620890808E-1,8.998293856E0
1.548345229E1,6.617438965E0,-5.973178711E0,5.445675659E-1,8.931176641E0
1.549346029E1,6.518045654E0,-6.057902527E0,6.116281128E-1,8.919483793E0
1.550346829E1,6.448590088E0,-6.162385254E0,6.994953918E-1,8.946988317E0
1.551347729E1,6.351142731E0,-6.288273468E0,8.095166016E-1,8.974113568E0
1.552348529E1,6.246959381E0,-6.368057556E0,9.336085510E-1,8.969296710E0
1.553349329E1,6.192023621E0,-6.408473511E0,1.003513184E0,8.967537453E0
1.554350129E1,6.192622375E0,-6.447991333E0,1.053808594E0,9.001981819E0
1.555351029E1,6.246959381E0,-6.494694214E0,1.134490814E0,9.082545009E0
1.556351829E1,6.356830902E0,-6.529122620E0,1.213376770E0,9.192987789E0
1.557352629E1,6.547085266E0,-6.608757019E0,1.198258209E0,9.379542502E0
1.558353529E1,6.774612122E0,-6.665189667E0,1.186133423E0,9.577423202E0
1.559354329E1,7.065906372E0,-6.693181458E0,1.168170776E0,9.802567717E0
1.560355129E1,7.420668640E0,-6.700815582E0,1.086590424E0,1.005723278E1
1.561355929E1,7.838000793E0,-6.670578461E0,1.015937347E0,1.034229192E1
1.562356829E1,8.322692871E0,-6.642736359E0,9.107061768E-1,1.068749497E1
1.563357629E1,8.810079346E0,-6.596183167E0,8.487350464E-1,1.103845468E1
1.564358429E1,9.287137299E0,-6.550977173E0,8.771759033E-1,1.139893235E1
1.565359329E1,9.793384552E0,-6.524033203E0,8.538244629E-1,1.179840694E1
1.566360129E1,1.025337799E1,-6.424639893E0,8.333171082E-1,1.212856856E1
1.567360929E1,1.066711761E1,-6.270610199E0,8.852590942E-1,1.240530669E1
1.568361829E1,1.101514389E1,-6.038442993E0,9.764195251E-1,1.259958665E1
1.569362629E1,1.125165207E1,-5.739065552E0,1.087638245E0,1.267751966E1
1.570363429E1,1.144325363E1,-5.499563599E0,1.245260468E0,1.275711280E1
1.571364229E1,1.158725418E1,-5.322631531E0,1.425485687E0,1.283070050E1
1.572365129E1,1.169742508E1,-5.163362732E0,1.604214020E0,1.288656552E1
1.573365929E1,1.165775757E1,-5.037923584E0,1.784289551E0,1.282449511E1
1.574366729E1,1.155581955E1,-4.999303894E0,1.982627106E0,1.274601173E1
1.575367629E1,1.137499557E1,-4.966971130E0,2.162852325E0,1.259917683E1
1.576368429E1,1.120884109E1,-5.025499420E0,2.189047852E0,1.247740733E1
1.577369229E1,1.108968887E1,-5.365442505E0,2.073188782E0,1.249268923E1
1.578370129E1,1.114986374E1,-5.992039490E0,1.970053253E0,1.281035161E1
1.579370929E1,1.145418091E1,-6.969207458E0,1.821861420E0,1.353097528E1
1.580371729E1,1.205877365E1,-8.316555634E0,1.650318146E0,1.474118956E1
1.581372529E1,1.268611908E1,-9.535470886E0,1.568288727E0,1.594748732E1
1.582373429E1,1.317365524E1,-1.020218445E1,1.554517365E0,1.673458348E1
1.583374229E1,1.335747299E1,-1.034124527E1,1.562750244E0,1.696483501E1
1.584375029E1,1.311123505E1,-1.003213806E1,1.638792114E0,1.659017535E1
1.585375929E1,1.259989838E1,-9.305549011E0,1.830243988E0,1.577024016E1
1.586376729E1,1.211341003E1,-8.519533539E0,1.962419128E0,1.493881666E1
1.587377529E1,1.179711777E1,-8.124654694E0,2.064207458E0,1.447214407E1
1.588378329E1,1.155941208E1,-7.911198578E0,2.110760651E0,1.416553497E1
1.589379229E1,1.126931534E1,-7.808212738E0,1.936522980E0,1.384614660E1
1.590380029E1,1.102771774E1,-7.973618774E0,1.698368225E0,1.371399320E1
1.591380829E1,1.076606186E1,-8.279283142E0,1.452729034E0,1.365888132E1
1.592381729E1,1.044168640E1,-8.617879028E0,1.163979492E0,1.358865343E1
1.593382529E1,1.011401779E1,-8.958869934E0,1.003513184E0,1.354849605E1
1.594383329E1,9.880503387E0,-9.257798309E0,9.753717041E-1,1.357507004E1
1.595384229E1,9.674980774E0,-9.525292053E0,9.657916260E-1,1.361136272E1
1.596385029E1,9.453890533E0,-9.713600464E0,1.009500732E0,1.359224676E1
1.597385829E1,9.293723602E0,-9.863438873E0,1.113384705E0,1.359780682E1
1.598386729E1,9.123228149E0,-9.968370667E0,1.219064941E0,1.356789685E1
1.599387529E1,8.954678650E0,-9.906848602E0,1.301244049E0,1.341734530E1
1.600388329E1,8.769663391E0,-9.799970856E0,1.355581055E0,1.322059094E1
1.601389129E1,8.623417511E0,-9.722881165E0,1.399439850E0,1.307119656E1
1.602390029E1,8.521629181E0,-9.623936920E0,1.393601990E0,1.292982801E1
1.603390829E1,8.481961670E0,-9.548493805E0,1.372346191E0,1.284526145E1
1.604391629E1,8.472231903E0,-9.526190186E0,1.316362610E0,1.281638886E1
1.605392529E1,8.482710114E0,-9.478589172E0,1.193468170E0,1.277593010E1
1.606393329E1,8.433911591E0,-9.461075592E0,9.557624817E-1,1.271047985E1
1.607394129E1,8.282426605E0,-9.467512207E0,6.081852722E-1,1.259373921E1
1.608394929E1,8.153694305E0,-9.556726685E0,2.835104370E-1,1.256559326E1
1.609395829E1,8.175848236E0,-9.637408905E0,7.319778442E-2,1.263841377E1
1.610396629E1,8.231083374E0,-9.630373535E0,-4.490661621E-4,1.266865534E1
1.611397429E1,8.259524231E0,-9.541907501E0,1.019380188E-1,1.262054399E1
1.612398329E1,8.264014893E0,-9.428443451E0,2.710862732E-1,1.254045357E1
1.613399129E1,8.192164307E0,-9.287137299E0,3.969744873E-1,1.239032138E1
1.614399929E1,8.061486053E0,-9.134754181E0,4.640350342E-1,1.219207201E1
1.615400829E1,7.819439392E0,-8.972491608E0,5.025050354E-1,1.191225207E1
1.616401629E1,7.553592224E0,-8.832981720E0,5.563929749E-1,1.163563040E1
1.617402429E1,7.351961517E0,-8.746910706E0,6.180647278E-1,1.144297990E1
1.618403329E1,7.106621704E0,-8.661438446E0,6.216572571E-1,1.122100912E1
1.619404129E1,6.791227570E0,-8.556057587E0,6.384223938E-1,1.094232500E1
1.620404929E1,6.498885498E0,-8.447982330E0,7.518864441E-1,1.068500124E1
1.621405729E1,6.228248291E0,-8.358917542E0,8.448431396E-1,1.045831436E1
1.622406629E1,5.932014313E0,-8.216563568E0,9.382489014E-1,1.017747619E1
1.623407429E1,5.668711853E0,-8.038134613E0,1.040935364E0,9.890877037E0
1.624408229E1,5.443280640E0,-7.879015503E0,1.074016571E0,9.636477625E0
1.625409129E1,5.278173981E0,-7.743846588E0,1.078806610E0,9.433456644E0
1.626409929E1,5.150639191E0,-7.672445068E0,1.041983185E0,9.299528287E0
1.627410729E1,5.018913116E0,-7.576045532E0,1.022673340E0,9.145043222E0
1.628411529E1,4.904850311E0,-7.409142609E0,9.476792908E-1,8.935941294E0
1.629412429E1,4.851411438E0,-7.284152527E0,8.316705322E-1,8.791288122E0
1.630413229E1,4.807103577E0,-7.098239136E0,8.068222046E-1,8.610702973E0
1.631414029E1,4.810995483E0,-6.933581543E0,7.652087402E-1,8.473828826E0
1.632414929E1,4.822222137E0,-6.790778503E0,6.393205261E-1,8.353276588E0
1.633415729E1,4.835694122E0,-6.622229004E0,5.780978394E-1,8.220222122E0
1.634416529E1,4.788991241E0,-6.366410980E0,5.336402893E-1,7.984384625E0
1.635417429E1,4.724325714E0,-6.077811127E0,4.233197021E-1,7.709620037E0
1.636418229E1,4.639003143E0,-5.811664581E0,2.637515259E-1,7.440790297E0
1.637419029E1,4.544699249E0,-5.548062744E0,6.795867920E-2,7.172162147E0
1.638419829E1,4.558769989E0,-5.279072113E0,-8.217910767E-2,6.975509988E0
1.639420729E1,4.613556061E0,-5.077740784E0,-2.469863892E-1,6.865082175E0
1.640421529E1,4.735851746E0,-4.922513580E0,-4.137396240E-1,6.843289573E0
1.641422329E1,4.831502838E0,-4.894821167E0,-6.089337158E-1,6.904599496E0
1.642423229E1,4.977299652E0,-4.896168365E0,-7.402107239E-1,7.020960647E0
1.643423646E1,5.137167206E0,-4.981790314E0,-8.972341919E-1,7.212055936E0
1.644424446E1,5.266198883E0,-5.138514404E0,-1.081650696E0,7.436877650E0
1.645425346E1,5.465584259E0,-5.344186707E0,-1.244212646E0,7.744740664E0
1.646426146E1,5.686973877E0,-5.633684692E0,-1.338366852E0,8.116113659E0
1.647426946E1,5.841602325E0,-5.969436493E0,-1.336420898E0,8.458398819E0
1.648427846E1,5.985153809E0,-6.356232147E0,-1.242566071E0,8.818601004E0
1.649428646E1,6.234834595E0,-6.882986755E0,-1.028211823E0,9.343762018E0
1.650429446E1,6.515201569E0,-7.440277863E0,-5.539979553E-1,9.905175409E0
1.651430246E1,6.771169281E0,-7.984396362E0,5.972579956E-2,1.046913969E1
1.652431146E1,7.070397034E0,-8.575217743E0,6.465055847E-1,1.113296201E1
1.653431946E1,7.648195496E0,-9.110654297E0,1.335373077E0,1.197005168E1
1.654432746E1,8.355624390E0,-9.695637817E0,2.194137268E0,1.298599592E1
1.655433646E1,9.116342468E0,-1.017883301E1,3.129691772E0,1.401824925E1
1.656434446E1,9.917775879E0,-1.051742889E1,4.061803436E0,1.501588612E1
1.657435246E1,1.068373306E1,-1.075378738E1,4.973557434E0,1.595375720E1
1.658436146E1,1.142409348E1,-1.096035782E1,6.065686340E0,1.695381686E1
1.659436946E1,1.195503937E1,-1.115270782E1,7.179071045E0,1.785622914E1
1.660437746E1,1.222956848E1,-1.121422989E1,8.175249481E0,1.849745932E1
1.661438546E1,1.231683701E1,-1.109986771E1,8.990005188E0,1.886085179E1
1.662439446E1,1.211071564E1,-1.077848602E1,9.760303345E0,1.892376061E1
1.663440246E1,1.166973267E1,-1.009006760E1,1.017718643E1,1.848153804E1
1.664441046E1,1.123398880E1,-9.272767181E0,1.015143997E1,1.775495562E1
1.665441946E1,1.079180832E1,-8.386310577E0,9.638157349E0,1.672385748E1
1.666442746E1,1.039722885E1,-7.611521759E0,8.784781952E0,1.559519238E1
1.667443546E1,1.006132736E1,-7.057972870E0,7.777676239E0,1.454433006E1
1.668444446E1,9.740245056E0,-6.487958221E0,6.849306793E0,1.356019835E1
1.669445246E1,9.469158783E0,-6.040987701E0,6.040538635E0,1.275329791E1
1.670446046E1,9.238488464E0,-5.906118164E0,5.388943634E0,1.221771723E1
1.671446946E1,8.986262970E0,-5.857020264E0,4.914879456E0,1.179888336E1
1.672447746E1,8.716374207E0,-5.722599792E0,4.571942596E0,1.138534087E1
1.673448546E1,8.383915558E0,-5.640869751E0,4.318070526E0,1.098886640E1
1.674449346E1,8.094716949E0,-5.633984070E0,4.041595459E0,1.065836352E1
1.675450246E1,7.850125580E0,-5.680537262E0,3.794908447E0,1.040645498E1
1.676451046E1,7.695946198E0,-5.766009521E0,3.569626923E0,1.025751871E1
