"Time (s)","Acceleration x (m/s^2)","Acceleration y (m/s^2)","Acceleration z (m/s^2)","Absolute acceleration (m/s^2)"
1.632499974E-3,-3.994742889E0,-9.104666748E0,7.340734863E-1,9.969543181E0
1.171150000E-2,-3.860921173E0,-9.066196747E0,7.376660156E-1,9.881638878E0
2.179050003E-2,-3.767365723E0,-8.969647522E0,6.985972595E-1,9.753751037E0
3.186950006E-2,-3.794758759E0,-8.948541412E0,5.818400574E-1,9.737305854E0
4.194849997E-2,-3.935316467E0,-8.970994720E0,4.285588074E-1,9.805566002E0
5.202750000E-2,-4.110302582E0,-9.044791260E0,2.821632385E-1,9.938936177E0
6.210650003E-2,-4.233646088E0,-9.073681183E0,2.357597351E-1,1.001553953E1
7.218550006E-2,-4.296215973E0,-8.997190247E0,2.278262329E-1,9.972903730E0
8.226449997E-2,-4.338278503E0,-8.814719696E0,1.460961914E-1,9.825542621E0
9.234350000E-2,-4.364773407E0,-8.647966461E0,3.113525391E-2,9.687081099E0
1.024225000E-1,-4.368066559E0,-8.470884705E0,-8.547225952E-2,9.531169847E0
1.125015001E-1,-4.307143250E0,-8.316256256E0,-1.288819885E-1,9.366333950E0
1.225805000E-1,-4.173171844E0,-8.243507538E0,-9.924362183E-2,9.240163909E0
1.326595000E-1,-3.928430786E0,-8.211174774E0,3.532653809E-2,9.102593453E0
1.427385000E-1,-3.668870544E0,-8.319549408E0,3.227288818E-1,9.098333218E0
1.528175001E-1,-3.396137695E0,-8.516839142E0,6.936575317E-1,9.195186838E0
1.628965000E-1,-3.214265900E0,-8.696465607E0,1.007704468E0,9.326064959E0
1.729755000E-1,-3.146456909E0,-8.753347321E0,1.166973267E0,9.374599031E0
1.830545000E-1,-3.072211304E0,-8.793314209E0,1.237177277E0,9.396353797E0
1.931335001E-1,-2.971919861E0,-8.847950592E0,1.170416107E0,9.406827903E0
2.032125000E-1,-2.867586823E0,-8.986562347E0,9.184899902E-1,9.477604174E0
2.132915000E-1,-2.885399780E0,-9.182055817E0,5.150788879E-1,9.638515818E0
2.233705000E-1,-2.975961456E0,-9.338031464E0,1.124162292E-1,9.801419061E0
2.334495001E-1,-3.053200836E0,-9.370214539E0,-1.999841309E-1,9.857126838E0
2.435285000E-1,-3.173999634E0,-9.292825470E0,-3.402424622E-1,9.825815173E0
2.536085000E-1,-3.342848511E0,-9.285939789E0,-3.329077148E-1,9.874924884E0
2.636875000E-1,-3.414399719E0,-9.172775116E0,-2.924917603E-1,9.792011040E0
2.737665001E-1,-3.437152405E0,-8.720415802E0,-1.845661926E-1,9.375165763E0
2.838455000E-1,-3.516487427E0,-8.131839752E0,2.559677124E-2,8.859636379E0
2.939245000E-1,-3.760330353E0,-7.951315155E0,3.616479492E-1,8.803083908E0
3.040035000E-1,-4.055067444E0,-8.080945587E0,7.897576904E-1,9.075735274E0
3.140825001E-1,-4.330045624E0,-8.265362091E0,1.323098602E0,9.424229173E0
3.241615000E-1,-4.618196411E0,-8.434360657E0,1.994153137E0,9.820530765E0
3.342405000E-1,-4.898264008E0,-8.826395416E0,2.792293396E0,1.047354518E1
3.443195000E-1,-5.187462616E0,-9.223669281E0,3.553759918E0,1.116311126E1
3.543985001E-1,-5.490282898E0,-9.275162201E0,3.740421753E0,1.140888229E1
3.644775000E-1,-5.758974152E0,-9.027726746E0,3.573668518E0,1.128878825E1
3.745565000E-1,-5.917045441E0,-8.695417786E0,3.165467377E0,1.098371071E1
3.846355000E-1,-5.954467621E0,-8.416248322E0,2.690954132E0,1.065505301E1
3.947145001E-1,-5.951024780E0,-8.260122986E0,2.645897827E0,1.051879760E1
4.047935000E-1,-6.059399414E0,-8.135432281E0,2.910846863E0,1.055341694E1
4.148725000E-1,-6.234535217E0,-8.045918427E0,2.571203156E0,1.049844362E1
4.249515000E-1,-6.188431091E0,-7.993527374E0,1.810485077E0,1.026990825E1
4.350305001E-1,-5.872288513E0,-8.288414154E0,6.997947693E-1,1.018191015E1
4.451095000E-1,-5.365292816E0,-8.824150085E0,-1.824705505E-1,1.032885701E1
4.551885000E-1,-4.768783264E0,-8.980874176E0,-4.587959290E-1,1.017879602E1
4.652675000E-1,-4.272265778E0,-8.818461914E0,-6.894662476E-1,9.823079411E0
4.753465001E-1,-4.096231842E0,-8.924291840E0,-1.019380188E0,9.872245748E0
4.854255000E-1,-4.012106781E0,-8.774902496E0,-3.906875610E-1,9.656528953E0
4.955045000E-1,-4.057911530E0,-8.734187164E0,5.548960876E-1,9.646791232E0
5.055835000E-1,-4.185596008E0,-8.678652649E0,1.212328949E0,9.711228925E0
5.156625001E-1,-4.342769165E0,-8.698860626E0,1.562600555E0,9.847412894E0
5.257415000E-1,-4.433031464E0,-8.545579376E0,2.040556641E0,9.840862068E0
5.358205000E-1,-4.843328247E0,-8.350684662E0,2.609074402E0,9.999951603E0
5.458995000E-1,-5.544919281E0,-8.053253174E0,2.858755188E0,1.018692779E1
5.559785001E-1,-6.009403381E0,-7.901917877E0,2.854114838E0,1.032953080E1
5.660575000E-1,-5.522166595E0,-8.255632324E0,2.742746429E0,1.030400150E1
5.761365000E-1,-4.902455292E0,-8.536747742E0,2.166444855E0,1.007986177E1
5.862155000E-1,-4.480632477E0,-8.584797821E0,1.064286804E0,9.742049447E0
5.962945001E-1,-4.049379272E0,-8.468339996E0,-2.013313293E-1,9.388865165E0
6.063735000E-1,-4.209695892E0,-7.901618500E0,-8.128097534E-1,8.989870640E0
6.164525000E-1,-4.961582336E0,-7.308402100E0,-7.863148499E-1,8.868389458E0
6.265315000E-1,-5.394781494E0,-7.042554932E0,-1.218765564E0,8.954699148E0
6.366105000E-1,-5.571863251E0,-7.015311584E0,-1.443747711E0,9.074396077E0
6.466895000E-1,-5.675447845E0,-7.753276978E0,-8.437953186E-1,9.645517232E0
6.567685000E-1,-6.040538635E0,-9.362879791E0,3.986210632E-1,1.114946294E1
6.668475000E-1,-6.467001801E0,-1.073702225E1,1.627415771E0,1.263939243E1
6.769265000E-1,-6.651717682E0,-1.151734955E1,2.473606110E0,1.352824512E1
6.870055000E-1,-6.270310822E0,-1.162946640E1,2.517015839E0,1.344978272E1
6.970845000E-1,-5.566324768E0,-1.079839462E1,1.956132202E0,1.230511077E1
7.071635000E-1,-5.402265930E0,-9.563762054E0,9.428892517E-1,1.102447559E1
7.172425000E-1,-6.536756744E0,-8.959618378E0,-6.795867920E-2,1.109092280E1
7.273215000E-1,-7.972870331E0,-9.264534302E0,-4.543052673E-1,1.223129799E1
7.374005000E-1,-8.938212891E0,-9.576934662E0,2.290237427E-1,1.310197615E1
7.474795000E-1,-9.045240326E0,-9.836045837E0,1.758243713E0,1.347796688E1
7.575585000E-1,-8.902437286E0,-1.059287201E1,3.054398346E0,1.417009796E1
7.676375000E-1,-9.104666748E0,-1.154174881E1,3.811972961E0,1.518677254E1
7.777165000E-1,-9.896969147E0,-1.258687546E1,4.096381531E0,1.652754591E1
7.877955000E-1,-1.105181763E1,-1.398826126E1,3.903432770E0,1.824968255E1
7.978745000E-1,-1.199800003E1,-1.549427948E1,3.022514648E0,1.982827012E1
8.079535000E-1,-1.227013412E1,-1.665391800E1,1.255888367E0,2.072405442E1
8.180325000E-1,-1.148097519E1,-1.700628525E1,-1.465901642E0,2.057122740E1
8.281115000E-1,-1.011895752E1,-1.616084335E1,-4.901407471E0,1.968730440E1
8.381905000E-1,-9.120384064E0,-1.414573380E1,-7.818840637E0,1.855848752E1
8.482695000E-1,-8.515791321E0,-1.333472031E1,-9.023385773E0,1.821414171E1
8.583485000E-1,-7.620503082E0,-1.400188293E1,-7.772886200E0,1.773534755E1
8.684275000E-1,-6.296506348E0,-1.503458542E1,-4.717889099E0,1.696889002E1
8.785065000E-1,-5.478607178E0,-1.577539490E1,-2.470013580E0,1.688132660E1
8.885855000E-1,-4.894072723E0,-1.623449020E1,-1.240769806E0,1.700147434E1
8.986645000E-1,-4.507127380E0,-1.647489029E1,-1.666035461E-1,1.708109961E1
9.087435000E-1,-4.558470612E0,-1.652204224E1,7.509883118E-1,1.715580128E1
9.188225000E-1,-4.815486145E0,-1.623868149E1,7.866142273E-1,1.695589706E1
9.289015000E-1,-4.087400208E0,-1.589215210E1,-3.442840576E-3,1.640936777E1
9.389805000E-1,-3.967349854E0,-1.533830383E1,1.698966980E-1,1.584399868E1
9.490595000E-1,-4.412224731E0,-1.468551132E1,3.761677551E-1,1.533862680E1
9.591385000E-1,-5.354515228E0,-1.422866135E1,-2.686912537E-1,1.520519096E1
9.692175001E-1,-5.941594391E0,-1.385129608E1,1.028361511E-1,1.507221027E1
9.792965000E-1,-5.471721497E0,-1.266905457E1,1.962718506E0,1.393904386E1
9.893755000E-1,-5.048701172E0,-1.171374115E1,5.561385040E0,1.391510398E1
9.994545000E-1,-4.930297394E0,-1.149818939E1,6.407725067E0,1.405614215E1
1.009533500E0,-6.215824127E0,-1.110825027E1,5.293442230E0,1.378587046E1
1.019612500E0,-8.391100616E0,-1.016251694E1,2.090402985E0,1.334380398E1
1.029691500E0,-1.204919357E1,-9.640252991E0,-6.340215454E0,1.668280179E1
1.039770500E0,-1.481139954E1,-9.171727295E0,-9.767787781E0,1.997267673E1
1.049849500E0,-1.201940552E1,-8.109536133E0,-3.862717438E0,1.500504153E1
1.059928500E0,-7.032525787E0,-7.494016113E0,2.362537079E0,1.054505941E1
1.070007500E0,-4.311633911E0,-7.508835297E0,6.292464752E0,1.070363990E1
1.080086500E0,-3.805236969E0,-8.120014343E0,7.212601318E0,1.150808755E1
1.090165500E0,-2.644251251E0,-7.275470581E0,5.983806610E0,9.784195338E0
1.100244500E0,-7.750881958E-1,-5.438490601E0,4.519551544E0,7.113669087E0
1.110323500E0,1.265618134E0,-3.343746643E0,3.717669067E0,5.157857517E0
1.120402500E0,3.137325897E0,-1.287921753E0,3.906426544E0,5.173173549E0
1.130481500E0,4.923262024E0,8.348139954E-1,4.433031464E0,6.677364100E0
1.140560500E0,6.377937012E0,2.750380554E0,4.533771973E0,8.294441634E0
1.150639500E0,7.637866974E0,4.191284180E0,3.639531555E0,9.441931207E0
1.160718500E0,8.465795288E0,4.567302246E0,2.049088898E0,9.835075240E0
1.170797500E0,8.020471344E0,3.664978638E0,-2.730322266E-1,8.822390583E0
1.180876500E0,5.326972504E0,1.867516479E0,-2.613565063E0,6.220528611E0
1.190955500E0,1.173858948E0,4.035607910E-1,-3.248394928E0,3.477481236E0
1.201034500E0,-1.904938660E0,-9.590556335E-1,-3.331172791E0,3.955412894E0
1.211113500E0,-3.692671051E0,-2.239043884E0,-3.041525116E0,5.282046198E0
1.221192500E0,-4.324806519E0,-3.145109711E0,-2.165247345E0,5.769225475E0
1.231271500E0,-3.844156036E0,-3.763024750E0,-7.030879211E-1,5.425147327E0
1.241350500E0,-2.326911163E0,-3.994742889E0,4.945715332E-1,4.649417955E0
1.251429500E0,-5.712121582E-1,-4.775818634E0,7.813751221E-2,4.810491911E0
1.261508500E0,6.703060913E-1,-6.625372467E0,-1.306034088E0,6.786058917E0
1.271587500E0,1.249900818E0,-9.339079285E0,-5.357209625E0,1.083883522E1
1.281666500E0,-7.993377686E-2,-1.262250137E1,-9.671987000E0,1.590224081E1
1.291745500E0,-4.224515076E0,-1.433628754E1,-5.348677368E0,1.587400446E1
1.301824500E0,-6.700216827E0,-1.479807724E1,3.163222046E0,1.654937972E1
1.311903500E0,-8.957073669E0,-1.692171112E1,4.642745361E0,1.970097867E1
1.321982500E0,-1.271635620E1,-1.945249832E1,9.309141541E-1,2.325880494E1
1.332061500E0,-1.544338531E1,-2.010573990E1,-1.622775421E0,2.540417932E1
1.342140500E0,-1.524804153E1,-1.787043823E1,-2.508034515E0,2.362510466E1
1.352219500E0,-1.282413208E1,-1.431578018E1,-1.574725342E0,1.928418227E1
1.362298500E0,-1.071980804E1,-1.208736420E1,-1.475182343E0,1.622328021E1
1.372377500E0,-9.217532043E0,-1.091485245E1,-2.430495758E0,1.449152202E1
1.382456500E0,-7.844886475E0,-1.033810181E1,-3.346890106E0,1.340224855E1
1.392535500E0,-6.680757294E0,-1.015892441E1,-3.580554199E0,1.267503970E1
1.402614500E0,-5.660329285E0,-9.749376068E0,-2.919828186E0,1.164538784E1
1.412693500E0,-4.722529449E0,-9.055419159E0,-2.307301941E0,1.047026947E1
1.422772500E0,-3.919599152E0,-8.327183533E0,-2.352507935E0,9.499449283E0
1.432851500E0,-3.188220062E0,-7.510032806E0,-2.669698334E0,8.584441107E0
1.442930500E0,-2.526595917E0,-6.812932434E0,-3.006048889E0,7.863591114E0
1.453009500E0,-1.934277649E0,-6.221811676E0,-3.484603729E0,7.388831687E0
1.463088500E0,-1.619182892E0,-5.929469604E0,-3.477718048E0,7.062215364E0
1.473167500E0,-1.789528656E0,-6.119274902E0,-3.141217804E0,7.107403706E0
1.483246500E0,-2.606529694E0,-6.298901367E0,-2.226619720E0,7.171331177E0
1.493325500E0,-3.031645660E0,-6.018983459E0,-9.568103027E-1,6.806946691E0
1.503404500E0,-3.745511169E0,-5.840255127E0,-1.377136230E-1,6.939481170E0
1.513483500E0,-4.866380310E0,-5.518574066E0,1.451980591E-1,7.359171117E0
1.523562500E0,-6.003565521E0,-5.053640900E0,8.026309204E-1,7.888364958E0
1.533641500E0,-6.853947144E0,-4.454137573E0,1.154249725E0,8.255193844E0
1.543720500E0,-7.598199463E0,-3.945794678E0,1.448986816E-1,8.562880727E0
1.553799500E0,-7.987988892E0,-3.764222260E0,-1.989213409E0,9.051757053E0
1.563878500E0,-7.873327332E0,-4.155209198E0,-3.573069763E0,9.592803255E0
1.573957500E0,-7.145391083E0,-4.991819458E0,-4.592300262E0,9.852111293E0
1.584036500E0,-6.373446350E0,-5.885161743E0,-4.549638977E0,9.795670571E0
1.594115500E0,-5.887706451E0,-6.671177216E0,-3.256478119E0,9.474932318E0
1.604194500E0,-6.319857788E0,-7.379953308E0,-1.646875305E0,9.854771005E0
1.614273500E0,-6.983727264E0,-8.470285950E0,-5.532495117E-1,1.099200962E1
1.624352500E0,-7.429200897E0,-9.767937469E0,3.414399719E-1,1.227689739E1
1.634431500E0,-7.723339233E0,-1.108295288E1,1.152603149E0,1.355766600E1
1.644510500E0,-7.847880249E0,-1.256546997E1,1.690734100E0,1.491103088E1
1.654589500E0,-7.290589142E0,-1.387794067E1,2.230062561E0,1.583423842E1
1.664668500E0,-6.027964783E0,-1.461425949E1,2.584525452E0,1.601851153E1
1.674747500E0,-4.372257843E0,-1.508592865E1,2.197280731E0,1.585969497E1
1.684826500E0,-2.980302429E0,-1.561298264E1,1.046773224E0,1.592931774E1
1.694905500E0,-2.115251312E0,-1.563259186E1,-6.493496704E-1,1.578840940E1
1.704984500E0,-2.255809021E0,-1.518352570E1,-2.515518951E0,1.555493370E1
1.715063500E0,-3.152444458E0,-1.462039673E1,-4.073778534E0,1.550127666E1
1.725142500E0,-4.774022369E0,-1.421833282E1,-5.391787720E0,1.593811948E1
1.735221500E0,-6.560706940E0,-1.410037811E1,-6.234235840E0,1.675497642E1
1.745300500E0,-7.932604065E0,-1.405771683E1,-6.752308502E0,1.749683628E1
1.755379500E0,-9.035360870E0,-1.382375336E1,-6.438860321E0,1.772548519E1
1.765458500E0,-9.738897858E0,-1.339564362E1,-5.378615112E0,1.741318179E1
1.775537500E0,-1.005069946E1,-1.270004013E1,-4.240232391E0,1.674177857E1
1.785616500E0,-9.989327087E0,-1.173514664E1,-3.736829224E0,1.585762324E1
1.795695500E0,-1.008422974E1,-1.054796539E1,-4.255949707E0,1.520080166E1
1.805774500E0,-1.099733093E1,-9.259295197E0,-6.310876465E0,1.570041391E1
1.815853500E0,-1.189965454E1,-8.508306885E0,-8.939410400E0,1.714369046E1
1.825932500E0,-1.236039642E1,-8.789422302E0,-1.093146790E1,1.869573038E1
1.836011500E0,-1.149624344E1,-9.834099884E0,-1.110375961E1,1.876610272E1
1.846090500E0,-9.676926727E0,-1.112022537E1,-8.665480042E0,1.709949904E1
1.856169500E0,-7.246880035E0,-1.303085220E1,-5.878425751E0,1.602736000E1
1.866248500E0,-5.205874329E0,-1.489073456E1,-3.780837708E0,1.622127729E1
1.876327500E0,-3.052751770E0,-1.653102356E1,-2.414778442E0,1.698308536E1
1.886406500E0,-2.227218475E0,-1.787268356E1,-1.001417542E0,1.803874045E1
1.896485500E0,-1.938917999E0,-1.742541367E1,2.070793762E0,1.765481892E1
1.906564500E0,-1.468446350E0,-1.511017822E1,6.372997284E0,1.646477801E1
1.916643667E0,-1.035247192E0,-1.272234375E1,8.891809387E0,1.555615767E1
1.926722667E0,-6.848258972E-1,-1.100032471E1,9.678423615E0,1.466792466E1
1.936801667E0,-8.348139954E-1,-9.469607849E0,9.091943207E0,1.315423196E1
1.946880667E0,-1.994901581E0,-8.408763885E0,8.137378235E0,1.187029346E1
1.956959667E0,-3.523223419E0,-7.374115448E0,6.956334229E0,1.073225362E1
1.967038667E0,-4.537364502E0,-6.647975464E0,3.117566986E0,8.631481814E0
1.977117667E0,-9.456135864E0,-6.378535767E0,-1.429706909E1,1.828962571E1
1.987196667E0,-1.402703064E1,-7.923323364E0,-1.649000885E1,2.305335189E1
1.997275667E0,-1.177421539E1,-7.969726868E0,-5.791007538E0,1.535201820E1
2.007354667E0,-9.987830200E0,-7.546257477E0,2.108964386E0,1.269450609E1
2.017433667E0,-8.672515411E0,-7.605833588E0,5.712271271E0,1.287211215E1
2.027512667E0,-7.573051758E0,-7.421716461E0,3.880380707E0,1.129116215E1
2.037591667E0,-6.198310547E0,-7.369325409E0,9.684860229E-1,9.678015075E0
2.047670667E0,-3.415297852E0,-6.926097107E0,3.192860413E-1,7.728973032E0
2.057749667E0,1.760339355E-1,-6.248007202E0,1.567989349E0,6.444158017E0
2.067828667E0,3.357667694E0,-4.920118561E0,2.906056824E0,6.627719461E0
2.077907667E0,5.939498749E0,-2.796484680E0,3.930975494E0,7.651832479E0
2.087986667E0,7.245832214E0,-4.327500916E-1,3.170107727E0,7.920791635E0
2.098065667E0,6.962172089E0,1.808838501E0,6.680607605E-1,7.224267582E0
2.108144667E0,6.792425079E0,3.197500763E0,-1.927841034E0,7.750975464E0
2.118223667E0,6.635401611E0,3.724704437E0,-3.382965088E0,8.327450419E0
2.128302667E0,5.667963409E0,2.713856506E0,-3.171903992E0,7.039304034E0
2.138381667E0,4.053121490E0,9.282197571E-1,-2.091450806E0,4.654412123E0
2.148460667E0,2.129022675E0,8.981323242E-2,2.392025757E-1,2.144299848E0
2.158539667E0,4.101470947E-1,-1.224453735E-1,1.566492462E0,1.623918761E0
2.168618667E0,-9.770182800E-1,-1.130149841E-1,6.012995911E-1,1.152778515E0
2.178697667E0,-1.878743134E0,-2.710862732E-1,-1.068478088E0,2.178258239E0
2.188776667E0,-1.837728424E0,-9.710307312E-1,-1.126257935E0,2.364022711E0
2.198855667E0,-1.586999817E0,-2.083816681E0,-1.395697632E0,2.967967698E0
2.208934667E0,-1.970202942E0,-3.447929993E0,-3.230881348E0,5.119425275E0
2.219013667E0,-2.399959259E0,-6.022426300E0,-2.502645721E0,6.949291949E0
2.229092667E0,-2.426903229E0,-9.469757538E0,-8.250842285E-1,9.810552028E0
2.239171667E0,-3.582500153E0,-1.352991440E1,-3.431913300E0,1.441079178E1
2.249250667E0,-6.923552399E0,-1.832938385E1,-4.233047333E0,2.004546282E1
2.259329667E0,-1.267668869E1,-2.469534576E1,-4.967270508E0,2.819986374E1
2.269408667E0,-1.891197235E1,-3.105696671E1,-6.852749634E0,3.700213584E1
2.279487667E0,-2.061947159E1,-3.118150772E1,-5.422922974E0,3.777376240E1
2.289566667E0,-1.825753326E1,-2.453128693E1,-2.789748688E0,3.070674611E1
2.299645667E0,-1.447295334E1,-1.769440430E1,-2.006277924E0,2.294740667E1
2.309724667E0,-1.067280579E1,-1.262624359E1,-1.675465851E0,1.661740041E1
2.319803667E0,-7.604785767E0,-8.817414093E0,-1.018631744E0,1.168833472E1
2.329882667E0,-5.137915649E0,-6.006409607E0,-6.421646118E-1,7.930164499E0
2.339961667E0,-3.035836945E0,-4.154760132E0,-7.937992859E-1,5.206578052E0
2.350040667E0,-1.654808807E0,-3.234773254E0,-8.779243469E-1,3.738034424E0
2.360119667E0,-1.388662262E0,-3.186124420E0,-1.408121796E0,3.750010492E0
2.370198667E0,-2.508932648E0,-3.924838257E0,-1.969155121E0,5.057338259E0
2.380277667E0,-4.184847565E0,-5.182223511E0,-2.074685669E0,6.976582995E0
2.390356667E0,-5.824537811E0,-6.932683411E0,-2.242786102E0,9.328313325E0
2.400435667E0,-7.097490692E0,-8.629554749E0,-2.827919312E0,1.152565473E1
2.410514667E0,-7.590415649E0,-9.407037964E0,-2.869981842E0,1.242350871E1
2.420593667E0,-6.946454773E0,-9.010213165E0,-2.847229156E0,1.172791069E1
2.430672667E0,-6.145470428E0,-8.039631500E0,-2.406096497E0,1.040152786E1
2.440751667E0,-5.622458038E0,-7.281607819E0,-1.639839935E0,9.344673447E0
2.450830667E0,-5.009632416E0,-6.568490753E0,-1.209784241E0,8.348955960E0
2.460909667E0,-4.275858307E0,-5.648054810E0,-5.632786560E-1,7.106389395E0
2.470988667E0,-3.897744598E0,-4.787194977E0,-6.637197876E-1,6.208878535E0
2.481067667E0,-3.487148438E0,-4.088897095E0,-9.184899902E-1,5.451871930E0
2.491146667E0,-3.366349640E0,-3.644321594E0,-1.217268677E0,5.108339536E0
2.501225667E0,-3.469634857E0,-3.465144196E0,-1.965712280E0,5.282955149E0
2.511304667E0,-3.443589020E0,-3.572021942E0,-2.513722687E0,5.562054282E0
2.521383667E0,-3.841311951E0,-4.177662506E0,-2.715503082E0,6.291462350E0
2.531462667E0,-4.305197296E0,-4.964127045E0,-2.674787750E0,7.094488747E0
2.541541667E0,-4.762646027E0,-5.731431427E0,-2.225571899E0,7.777227890E0
2.551620667E0,-5.538332977E0,-6.573729858E0,-1.715732117E0,8.765317628E0
2.561699667E0,-6.530619507E0,-7.444469147E0,-6.762936401E-1,9.926050831E0
2.571778667E0,-7.415728912E0,-8.371641083E0,4.779560852E-1,1.119400964E1
2.581857667E0,-7.617509308E0,-9.418414307E0,1.074465637E0,1.216089851E1
2.591936667E0,-7.948022003E0,-1.069720505E1,1.530118103E0,1.341426521E1
2.602015667E0,-8.153993683E0,-1.244422211E1,2.328557739E0,1.505883322E1
2.612094667E0,-7.643405457E0,-1.375654312E1,2.822979584E0,1.598853775E1
2.622173667E0,-6.673721924E0,-1.460961914E1,2.540966034E0,1.626148960E1
2.632252667E0,-5.408852234E0,-1.509835281E1,1.922302551E0,1.615274550E1
2.642331667E0,-4.379442902E0,-1.512454834E1,1.192270660E0,1.579091485E1
2.652410667E0,-4.495301971E0,-1.489028549E1,2.993774414E-1,1.555692671E1
2.662489667E0,-5.353168030E0,-1.464868790E1,-9.532177734E-1,1.562527085E1
2.672568667E0,-6.333928528E0,-1.440963501E1,-3.158731384E0,1.605409031E1
2.682647667E0,-7.106022949E0,-1.463536560E1,-6.325396271E0,1.745566173E1
2.692726667E0,-7.743996277E0,-1.528740967E1,-8.662785645E0,1.920203707E1
2.702805667E0,-7.922724609E0,-1.608165802E1,-8.650062103E0,1.990509644E1
2.712884667E0,-7.693850555E0,-1.623987900E1,-7.399861908E0,1.943416997E1
2.722963667E0,-7.601941681E0,-1.534384232E1,-6.024222565E0,1.815252797E1
2.733042667E0,-7.852670288E0,-1.364472565E1,-5.119204559E0,1.655443215E1
2.743121667E0,-8.425828400E0,-1.211161377E1,-5.102738800E0,1.561165320E1
2.753200667E0,-9.384135590E0,-1.144115799E1,-5.904022522E0,1.593171613E1
2.763279667E0,-1.064526306E1,-1.136317017E1,-7.539820862E0,1.730006244E1
2.773358667E0,-1.190878555E1,-1.182780396E1,-9.679022369E0,1.937523145E1
2.783437667E0,-1.220202576E1,-1.278611115E1,-1.010279114E1,2.035781078E1
2.793516667E0,-1.051413574E1,-1.440319839E1,-8.350534973E0,1.969087628E1
2.803595667E0,-9.174421692E0,-1.573393112E1,-5.501659241E0,1.902616242E1
2.813674667E0,-8.415649567E0,-1.601624405E1,-3.545377350E0,1.843672779E1
2.823753667E0,-6.670728149E0,-1.579395630E1,-1.572030945E0,1.721682174E1
2.833832667E0,-4.905748444E0,-1.478714996E1,2.574945374E0,1.579102642E1
2.843911667E0,-2.837649078E0,-1.286829025E1,7.715405731E0,1.526999122E1
2.853990667E0,-1.309177551E0,-1.109717331E1,1.107741440E1,1.573436720E1
2.864069667E0,-8.015830994E-1,-9.681716766E0,1.169832321E1,1.520621389E1
2.874148667E0,-9.556127930E-1,-8.894653473E0,9.504485321E0,1.305232920E1
2.884227667E0,-1.761387177E0,-8.220605164E0,7.664212189E0,1.137633432E1
2.894306667E0,-2.747087402E0,-7.210805054E0,6.325995026E0,9.977996381E0
2.904385667E0,-3.686384125E0,-6.966962128E0,4.286336517E0,8.972216557E0
2.914464125E0,-5.286855927E0,-6.884783020E0,-2.043400726E0,8.917767061E0
2.924543125E0,-1.134071686E1,-6.439159698E0,-1.868878647E1,2.278915040E1
2.934622125E0,-1.114372650E1,-7.023245087E0,-1.087293961E1,1.708008863E1
2.944701125E0,-8.322243805E0,-6.405180359E0,-2.520159302E0,1.079987409E1
2.954780125E0,-8.034991150E0,-6.002517700E0,3.745062103E0,1.070592321E1
2.964859125E0,-7.388934631E0,-6.469097443E0,6.122568054E0,1.157287416E1
2.974938125E0,-5.821693726E0,-6.500382385E0,4.648882599E0,9.887325139E0
2.985017125E0,-3.546574860E0,-5.664221191E0,2.709515533E0,7.211315370E0
2.995096125E0,-6.430627441E-1,-4.465663605E0,1.254690857E0,4.682940344E0
3.005175125E0,1.856589203E0,-3.232378235E0,1.327140198E0,3.956828733E0
3.015254125E0,3.428919525E0,-1.773961029E0,2.270777893E0,4.478935039E0
3.025333125E0,4.318369904E0,-5.008584595E-1,1.980381775E0,4.777142430E0
3.035412125E0,4.288881226E0,6.001020813E-1,6.010002136E-1,4.372164902E0
3.045491125E0,4.601281586E0,6.433621216E-1,3.067121887E-1,4.656155004E0
3.055570125E0,4.829556885E0,-6.056405640E-1,-7.978408813E-2,4.868037150E0
3.065649125E0,3.711082764E0,-1.166075134E0,-1.075513458E0,4.035913242E0
3.075728125E0,9.901908875E-1,-6.721023560E-1,-3.182681580E0,3.400244345E0
3.085807125E0,-1.582060089E0,-2.953358459E-1,-4.378544769E0,4.664953556E0
3.095886125E0,-2.975662079E0,-4.825964355E-1,-2.874322815E0,4.165236581E0
3.105965125E0,-2.962639160E0,-7.497908020E-1,-1.792372742E0,3.542882595E0
3.116044125E0,-2.537822571E0,-9.541159058E-1,-1.373543701E0,3.039326054E0
3.126123125E0,-2.460732880E0,-1.141077118E0,-1.588796082E0,3.143491098E0
3.136202125E0,-2.587070160E0,-1.134939880E0,-2.162253571E0,3.557577975E0
3.146281125E0,-3.186872864E0,-1.458267517E0,-2.609972534E0,4.369743634E0
3.156360125E0,-4.298461304E0,-2.382745056E0,-2.559078369E0,5.541040126E0
3.166439125E0,-4.941374359E0,-4.084406433E0,-1.938468933E0,6.697553156E0
3.176518125E0,-4.602179718E0,-6.798562317E0,-1.315464478E0,8.314502663E0
3.186597125E0,-3.991300049E0,-1.028615982E1,-1.863025818E0,1.118956769E1
3.196676125E0,-3.633993073E0,-1.413061523E1,-6.069428558E0,1.580247308E1
3.206755125E0,-5.499563599E0,-1.761566803E1,-8.286767578E0,2.022937164E1
3.216834125E0,-8.405770111E0,-2.063503922E1,-6.118676147E0,2.310627647E1
3.226913125E0,-1.052251831E1,-2.259431488E1,-3.901486816E0,2.522792215E1
3.236992125E0,-1.140478363E1,-2.285836578E1,-4.318968658E0,2.590805794E1
3.247071125E0,-1.102008362E1,-2.047187851E1,-6.093678131E0,2.403482818E1
3.257150125E0,-9.603728943E0,-1.630334702E1,-5.124593353E0,1.960337192E1
3.267229125E0,-7.961643677E0,-1.273716293E1,-2.459685059E0,1.522081273E1
3.277308125E0,-6.610253906E0,-1.085198318E1,-1.266366577E-1,1.270736135E1
3.287387125E0,-5.985902252E0,-9.366921387E0,9.024732971E-1,1.115278889E1
3.297466125E0,-5.625751190E0,-8.099956055E0,5.083428955E-1,9.875058331E0
3.307545125E0,-5.273084564E0,-7.311395874E0,-7.942483521E-1,9.049461912E0
3.317624125E0,-4.831203461E0,-6.682553558E0,-2.160906372E0,8.524468622E0
3.327703125E0,-4.623435516E0,-6.657256165E0,-1.801503754E0,8.303049523E0
3.337782125E0,-5.041366425E0,-7.305108948E0,-3.863465881E-1,8.884213857E0
3.347861125E0,-6.129004669E0,-8.124654694E0,-1.173559570E-1,1.017784282E1
3.357940125E0,-7.298672333E0,-9.397457886E0,-6.812333679E-1,1.191834349E1
3.368019125E0,-7.897576904E0,-1.037133270E1,-1.152603149E0,1.308681615E1
3.378098125E0,-8.275690613E0,-1.040845551E1,-1.513951721E0,1.338338713E1
3.388177125E0,-8.269852753E0,-9.850715332E0,-1.861678619E0,1.299588029E1
3.398256125E0,-7.306755524E0,-9.055868225E0,-1.850601654E0,1.178228128E1
3.408335125E0,-6.349645844E0,-7.942782898E0,-1.358874207E0,1.025925639E1
3.418414125E0,-6.014343109E0,-6.972051544E0,-1.117875366E0,9.275315148E0
3.428493125E0,-5.852230225E0,-6.132597198E0,-1.469344482E0,8.603273808E0
3.438572125E0,-5.481600952E0,-5.269641724E0,-1.214574280E0,7.700146984E0
3.448651125E0,-5.607938232E0,-4.570745087E0,-5.719606018E-1,7.257259868E0
3.458730125E0,-5.757477264E0,-4.336332550E0,-2.853067017E-1,7.213440535E0
3.468809125E0,-5.608836365E0,-4.078418884E0,-1.889071655E-1,6.937451397E0
3.478888125E0,-5.643713837E0,-3.526067505E0,-3.881428528E-1,6.665981758E0
3.488967125E0,-5.550457764E0,-3.121159515E0,-7.086264038E-1,6.407134265E0
3.499046125E0,-5.385650482E0,-2.722239075E0,-1.390907593E0,6.192773258E0
3.509125125E0,-4.704566803E0,-2.643203430E0,-2.066303101E0,5.778328623E0
3.519204125E0,-4.523742828E0,-2.813399506E0,-1.815724182E0,5.628172018E0
3.529283125E0,-4.522695007E0,-3.561094666E0,-1.202748871E0,5.880711708E0
3.539362125E0,-4.695286102E0,-4.802313538E0,-8.199948120E-1,6.766115458E0
3.549441125E0,-5.300028534E0,-6.388864288E0,-5.182223511E-1,8.317237748E0
3.559520125E0,-6.288423157E0,-8.335715790E0,-1.435514832E-1,1.044265438E1
3.569599125E0,-6.900200958E0,-1.088311844E1,1.441502380E-1,1.288704076E1
3.579678125E0,-7.116650848E0,-1.340672058E1,8.652008057E-2,1.517874704E1
3.589757125E0,-6.848708038E0,-1.514789978E1,-4.370910645E-2,1.662424675E1
3.599836125E0,-5.690416718E0,-1.574650497E1,-1.666035461E-1,1.674398453E1
3.609915125E0,-4.680167542E0,-1.517559219E1,1.423539734E-1,1.588152484E1
3.619994125E0,-4.185296631E0,-1.420905212E1,6.641688538E-1,1.482750790E1
3.630073125E0,-3.938310242E0,-1.351584366E1,8.252339172E-1,1.410210369E1
3.640152125E0,-4.011508026E0,-1.326646225E1,5.974076843E-1,1.387256693E1
3.650231125E0,-4.702471161E0,-1.347048798E1,-1.490899658E-1,1.426847957E1
3.660310125E0,-6.146817627E0,-1.372855133E1,-1.441502380E0,1.511073849E1
3.670389125E0,-7.700137482E0,-1.379097153E1,-2.988834686E0,1.607532723E1
3.680468125E0,-8.979077911E0,-1.376013565E1,-3.997437286E0,1.690989882E1
3.690547125E0,-9.912686462E0,-1.376447662E1,-3.786974945E0,1.737996976E1
3.700626125E0,-1.038211029E1,-1.372211472E1,-2.992427216E0,1.746537337E1
3.710705125E0,-1.050365753E1,-1.337094498E1,-2.395318909E0,1.717109617E1
3.720784125E0,-1.067445236E1,-1.270512955E1,-2.708318024E0,1.681366220E1
3.730863125E0,-1.122336090E1,-1.193767548E1,-4.279151459E0,1.693467044E1
3.740942125E0,-1.211251190E1,-1.120794296E1,-6.792724457E0,1.784578481E1
3.751021125E0,-1.310494812E1,-1.065873505E1,-9.615704041E0,1.943733681E1
3.761100125E0,-1.393302612E1,-1.041938278E1,-1.190040298E1,2.107871784E1
3.771179125E0,-1.388392822E1,-1.095481934E1,-1.113354767E1,2.089802415E1
3.781258125E0,-1.230126938E1,-1.234707413E1,-6.161636810E0,1.848613632E1
3.791337125E0,-1.030322433E1,-1.423689423E1,-1.382075958E0,1.762826488E1
3.801416125E0,-9.634714508E0,-1.600292175E1,1.445543976E0,1.873528291E1
3.811495125E0,-1.012015503E1,-1.730700989E1,2.743794250E0,2.023557600E1
3.821574125E0,-9.089697876E0,-1.793091248E1,3.335364075E0,2.037804905E1
3.831653125E0,-7.151228943E0,-1.686153625E1,5.830675049E0,1.922103670E1
3.841731125E0,-4.941374359E0,-1.455872498E1,9.205556946E0,1.791970793E1
3.851811125E0,-3.146307220E0,-1.233734436E1,1.126542343E1,1.700056117E1
3.861889125E0,-1.991309052E0,-1.115719849E1,1.050485504E1,1.545316696E1
3.871969125E0,-1.336271210E0,-1.011102402E1,8.540639648E0,1.330266714E1
3.882048125E0,-1.466799774E0,-8.880582733E0,6.523733826E0,1.111644522E1
3.892126125E0,-2.290836182E0,-7.915689240E0,3.246598663E0,8.857001153E0
3.902206125E0,-7.299420776E0,-6.934779053E0,-1.082264420E1,1.478182437E1
3.912284125E0,-1.044048889E1,-6.497089233E0,-1.190534271E1,1.711587456E1
3.922363125E0,-8.189769287E0,-6.101611633E0,-3.522025909E0,1.080308530E1
3.932442125E0,-7.006479950E0,-4.511168976E0,-2.133064270E-1,8.335880664E0
3.942521125E0,-7.418722687E0,-3.515738983E0,2.435136108E0,8.563162661E0
3.952600125E0,-7.330106964E0,-3.837569733E0,5.752836914E0,1.007732812E1
3.962679125E0,-5.613776093E0,-3.923191681E0,6.196065216E0,9.235645031E0
3.972758125E0,-3.687132568E0,-4.078568573E0,4.690496063E0,7.227061747E0
3.982837125E0,-2.095342712E0,-4.654570770E0,2.728076935E0,5.787736509E0
3.992916125E0,-5.257067871E-1,-4.895270233E0,1.901495819E0,5.277852275E0
4.002995125E0,9.265731812E-1,-4.812342682E0,2.791544952E0,5.640026877E0
4.013074125E0,2.635569305E0,-4.599335632E0,4.046385498E0,6.668834188E0
4.023153125E0,4.508923645E0,-4.119882660E0,3.668571167E0,7.124762450E0
4.033232125E0,5.829178162E0,-3.072360992E0,1.897304535E0,6.857002596E0
4.043311125E0,6.633305969E0,-1.205293579E0,-1.288819885E-1,6.743151434E0
4.053390125E0,6.285279694E0,7.397616577E-1,-1.111588440E0,6.425544101E0
4.063469125E0,4.506828003E0,1.641336823E0,-2.048340454E0,5.215475417E0
4.073548125E0,2.211650848E0,1.239123230E0,-2.595003662E0,3.627791320E0
4.083627125E0,6.691085815E-2,6.526428223E-2,-2.127675476E0,2.129727546E0
4.093706125E0,-2.206262054E0,-8.710386658E-1,-1.716779938E0,2.928076837E0
4.103785125E0,-3.359763336E0,-1.492845612E0,-2.248623962E0,4.309629615E0
4.113864125E0,-3.505709839E0,-2.172731781E0,-3.656895447E0,5.512136535E0
4.123943125E0,-3.675606537E0,-2.767295380E0,-4.471052399E0,6.415474782E0
4.134022125E0,-4.272714844E0,-3.174598389E0,-4.263883209E0,6.820180869E0
4.144101125E0,-5.005141754E0,-3.606300659E0,-3.477119293E0,7.081469269E0
4.154180125E0,-5.748495941E0,-4.137246552E0,-2.751428375E0,7.598182198E0
4.164259125E0,-6.360423431E0,-4.825365601E0,-2.126477966E0,8.262024446E0
4.174338125E0,-6.573430481E0,-6.113137665E0,-6.800358582E-1,9.002382416E0
4.184417125E0,-5.958509216E0,-7.836952972E0,1.630858612E0,9.979046236E0
4.194496125E0,-5.020859070E0,-9.768835602E0,3.326382751E0,1.147623619E1
4.204575125E0,-4.354145508E0,-1.177211975E1,1.682650909E0,1.266383436E1
4.214654125E0,-4.176914062E0,-1.401056488E1,-6.819668427E0,1.613227872E1
4.224733125E0,-5.539081421E0,-1.537901917E1,-8.620124359E0,1.847977807E1
4.234812125E0,-7.020401001E0,-1.630050293E1,-3.359314270E0,1.806315084E1
4.244891125E0,-7.485932922E0,-1.720626938E1,-4.023632813E-1,1.876850537E1
4.254970125E0,-8.162825317E0,-1.800036804E1,-3.555705872E0,2.008203204E1
4.265049125E0,-9.527986450E0,-1.917302948E1,-7.285050659E0,2.261547144E1
4.275128125E0,-1.061203217E1,-1.947944229E1,-5.441334686E0,2.284014058E1
4.285207125E0,-1.080183746E1,-1.842862747E1,-3.056643677E0,2.157862539E1
4.295286125E0,-9.671388245E0,-1.552960602E1,-2.031275940E0,1.840734896E1
4.305365125E0,-7.549101563E0,-1.204335571E1,-1.728904724E0,1.431853564E1
4.315444125E0,-5.559588776E0,-9.401649170E0,-1.152004395E0,1.098303913E1
4.325523125E0,-4.217180328E0,-7.620203705E0,-1.622625732E-1,8.710823358E0
4.335602125E0,-3.870950317E0,-6.733148346E0,1.288819885E-1,7.767635005E0
4.345681125E0,-4.271966400E0,-6.683302002E0,-2.899470520E-1,7.937272319E0
4.355760125E0,-5.352718964E0,-6.911277924E0,-6.089337158E-1,8.762885547E0
4.365839125E0,-6.039640503E0,-7.003486176E0,-4.572990417E-1,9.259330345E0
4.375918125E0,-6.560407562E0,-7.150480499E0,-1.028361511E-1,9.704581085E0
4.385997125E0,-6.526428223E0,-7.186405792E0,-5.319937134E-1,9.722227670E0
4.396076125E0,-6.513105927E0,-7.337890778E0,-7.839198303E-1,9.842749625E0
4.406155125E0,-6.498436432E0,-7.422913971E0,-6.744973755E-1,9.888593155E0
4.416234125E0,-6.120622101E0,-7.157815247E0,-3.397933960E-1,9.424000932E0
4.426313125E0,-5.703140259E0,-6.722520447E0,2.064207458E-1,8.818202736E0
4.436392125E0,-5.574108582E0,-6.473139038E0,3.878434753E-1,8.551177582E0
4.446471125E0,-5.443130951E0,-6.124214630E0,8.205935669E-1,8.234503822E0
4.456550125E0,-5.082680511E0,-5.293442230E0,1.042432251E0,7.412208633E0
4.466629125E0,-5.152136078E0,-4.230352936E0,1.105002136E0,6.757323571E0
4.476708125E0,-5.206473083E0,-3.702700195E0,9.111552429E-1,6.453491658E0
4.486787125E0,-4.995861053E0,-3.424129486E0,4.963677979E-1,6.076978805E0
4.496866125E0,-4.367168427E0,-3.247496796E0,-3.290158081E-1,5.452214862E0
4.506945125E0,-3.597618713E0,-3.325783997E0,-1.382375336E0,5.090644475E0
4.517024125E0,-2.537822571E0,-3.629203033E0,-2.193688202E0,4.942056858E0
4.527103125E0,-1.370100861E0,-4.431384888E0,-2.796784058E0,5.416304040E0
4.537182125E0,-6.801855469E-1,-5.836961975E0,-2.662513275E0,6.451492418E0
4.547261125E0,-4.430786133E-1,-7.611072693E0,-1.953737183E0,7.870313537E0
4.557340125E0,-1.109941864E0,-9.601932678E0,-9.692344666E-1,9.714344937E0
4.567419125E0,-2.482288055E0,-1.144310394E1,2.784210205E-2,1.170927654E1
4.577498125E0,-4.548291779E0,-1.292113037E1,1.175056458E0,1.374857541E1
4.587577125E0,-6.583459625E0,-1.400906799E1,1.585502930E0,1.555987616E1
4.597656125E0,-8.067623291E0,-1.449420914E1,1.113684082E0,1.662555071E1
4.607735125E0,-8.783883820E0,-1.445933167E1,1.992356873E-1,1.691947346E1
4.617814125E0,-8.114924927E0,-1.348919907E1,-8.622070313E-1,1.576559225E1
4.627893125E0,-6.500681763E0,-1.261337036E1,-2.071392517E0,1.434038501E1
4.637972125E0,-6.111491089E0,-1.244991028E1,-2.797831879E0,1.414844347E1
4.648051125E0,-6.535708923E0,-1.245949036E1,-2.836900635E0,1.435278357E1
4.658130125E0,-7.268584900E0,-1.258552826E1,-2.332000580E0,1.471958134E1
4.668209125E0,-8.037086792E0,-1.287083496E1,-1.534608765E0,1.525149766E1
4.678288125E0,-8.832981720E0,-1.322335190E1,-6.882687378E-1,1.591704481E1
4.688367125E0,-9.686207428E0,-1.353335724E1,-6.735992432E-2,1.664268337E1
4.698446125E0,-1.058164536E1,-1.375085495E1,1.425036621E-1,1.735158602E1
4.708525125E0,-1.141630966E1,-1.374875931E1,-3.224295044E-1,1.787356902E1
4.718604125E0,-1.193543015E1,-1.325508591E1,-1.574575653E0,1.790617446E1
4.728683125E0,-1.215173035E1,-1.245215561E1,-3.563639374E0,1.776007476E1
4.738762125E0,-1.209754303E1,-1.177017380E1,-5.755082245E0,1.783279311E1
4.748841125E0,-1.203706879E1,-1.140897491E1,-7.976163483E0,1.840312249E1
4.758920125E0,-1.215457443E1,-1.138307877E1,-1.034289185E1,1.960315213E1
4.768999125E0,-1.248793121E1,-1.150447632E1,-1.174472672E1,2.064558081E1
4.779078125E0,-1.235051697E1,-1.156824371E1,-1.027044250E1,1.979498728E1
4.789157125E0,-1.218630844E1,-1.190624084E1,-7.023843842E0,1.842821388E1
4.799236125E0,-1.200638260E1,-1.238823853E1,-2.689906311E0,1.746016245E1
4.809315125E0,-1.130883316E1,-1.233569778E1,2.080673218E0,1.686381773E1
4.819394125E0,-1.039752823E1,-1.186417831E1,6.080056458E0,1.690663795E1
4.829473125E0,-9.926906891E0,-1.170266418E1,8.815917206E0,1.769791586E1
4.839552125E0,-9.842781830E0,-1.241503281E1,1.013961456E1,1.881024129E1
4.849631125E0,-9.869276733E0,-1.293834457E1,1.073627380E1,1.949540866E1
4.859710125E0,-9.713301086E0,-1.288760010E1,1.044048889E1,1.922088090E1
4.869789125E0,-9.373657379E0,-1.276485535E1,8.907227325E0,1.816991148E1
4.879868125E0,-8.833580475E0,-1.251637207E1,7.134912872E0,1.689966554E1
4.889947125E0,-9.276808777E0,-1.190968369E1,5.569019165E0,1.609079616E1
4.900026125E0,-1.017149826E1,-1.078432388E1,1.797162781E0,1.493287690E1
4.910105125E0,-1.432296524E1,-9.915380859E0,-1.256561966E1,2.147922038E1
4.920185000E0,-1.925910049E1,-9.041198730E0,-1.787642578E1,2.778889751E1
4.930264000E0,-1.591789856E1,-9.086255035E0,-4.266577606E0,1.881869309E1
4.940343000E0,-1.245544876E1,-9.436077576E0,4.218826904E0,1.618568084E1
4.950422000E0,-9.552385712E0,-9.167536011E0,6.254294128E0,1.464267682E1
4.960501000E0,-6.523883514E0,-8.802744598E0,4.917124786E0,1.200947479E1
4.970580000E0,-3.551065521E0,-7.813751221E0,3.710184631E0,9.350414134E0
4.980659000E0,-1.591490479E0,-7.230264587E0,3.339255981E0,8.121588420E0
4.990738000E0,-5.983058167E-1,-6.622678070E0,3.609593811E0,7.566174869E0
5.000817000E0,2.920426941E-1,-5.807024231E0,4.271068268E0,7.214488444E0
5.010896000E0,1.235680389E0,-5.192102966E0,4.410727844E0,6.923825485E0
5.020975000E0,2.328108673E0,-4.580325165E0,4.056414642E0,6.546294246E0
5.031054000E0,3.195704498E0,-3.794908447E0,4.090094604E0,6.429831354E0
5.041133000E0,4.120930481E0,-2.911146240E0,4.045337677E0,6.466961990E0
5.051212000E0,5.170996857E0,-1.639839935E0,3.584745483E0,6.502206063E0
5.061291000E0,5.798491974E0,3.397933960E-2,2.895428925E0,6.481294039E0
5.071370000E0,5.756429443E0,1.347048798E0,1.555714874E0,6.113204493E0
5.081449000E0,4.877756653E0,2.048340454E0,1.321751404E-1,5.292039196E0
5.091528000E0,2.864593048E0,1.280886383E0,-6.888674927E-1,3.212647145E0
5.101607000E0,4.134402466E-1,-7.481442261E-1,-2.662962341E-1,8.953023539E-1
5.111686000E0,-9.867480469E-1,-2.287243652E0,4.074526978E-1,2.524118249E0
5.121765000E0,-2.640808411E0,-2.857258301E0,-5.423222351E-1,3.928346658E0
5.131844000E0,-4.832550659E0,-3.143612823E0,-3.202739868E0,6.594951866E0
5.141923000E0,-6.302793274E0,-3.451073456E0,-6.100264435E0,9.425939594E0
5.152002000E0,-6.786437531E0,-3.752247162E0,-7.407795410E0,1.072429606E1
5.162081000E0,-6.549929352E0,-3.778891754E0,-6.938670959E0,1.026288225E1
5.172160000E0,-6.404132538E0,-3.993545380E0,-6.397546234E0,9.893933297E0
5.182239000E0,-6.738836517E0,-4.382436676E0,-5.826932831E0,9.928283590E0
5.192318000E0,-6.743925934E0,-4.646038513E0,-5.176535339E0,9.688277916E0
5.202397000E0,-6.046975250E0,-4.660109253E0,-4.741539917E0,8.986919868E0
5.212476000E0,-4.889731750E0,-4.853507080E0,-4.422553253E0,8.186878822E0
5.222555000E0,-3.575764160E0,-5.830824738E0,-3.645369415E0,7.750698331E0
5.232634000E0,-1.866318970E0,-7.598349152E0,-8.403524780E-1,7.869196186E0
5.242713000E0,1.631607056E-1,-9.711055756E0,-9.809101868E-1,9.761834361E0
5.252792000E0,1.136885834E0,-1.239437576E1,-8.701854401E0,1.518668265E1
5.262871000E0,-1.752705231E0,-1.500928802E1,-1.431607956E1,2.081587943E1
5.272950000E0,-8.294401703E0,-1.604243958E1,-8.886869659E0,2.012792636E1
5.283029000E0,-1.197689392E1,-1.564426758E1,-3.716770935E-1,1.970602040E1
5.293107000E0,-1.255454269E1,-1.479298782E1,9.101074219E-2,1.940250793E1
5.303187000E0,-1.200623291E1,-1.397598679E1,-7.337741089E-1,1.843952981E1
5.313266000E0,-1.043959076E1,-1.285736298E1,-1.960772552E0,1.667757377E1
5.323345000E0,-8.269253998E0,-1.044408142E1,-2.639610901E0,1.358038822E1
5.333424000E0,-6.099216614E0,-7.791297913E0,-1.271455994E0,9.976039635E0
5.343502000E0,-4.990322571E0,-6.540498962E0,-4.543052673E-1,8.239407704E0
5.353582000E0,-4.688250732E0,-6.634204102E0,-1.262923737E0,8.221151705E0
5.363660000E0,-4.584815826E0,-6.993457031E0,-1.976639557E0,8.592792407E0
5.373739000E0,-4.693639526E0,-7.650740204E0,-1.578766937E0,9.113538430E0
5.383818000E0,-4.683610382E0,-8.316705322E0,-8.068222046E-1,9.578870273E0
5.393897000E0,-4.568799133E0,-8.997339935E0,-6.334826660E-1,1.011075426E1
5.403976000E0,-4.400399323E0,-9.644593964E0,-7.381150818E-1,1.062668908E1
5.414055000E0,-4.020489349E0,-9.968969421E0,-1.115779724E0,1.080692603E1
5.424134000E0,-3.620670776E0,-1.018841309E1,-1.491498413E0,1.091501652E1
5.434213000E0,-2.975213013E0,-1.023511597E1,-1.600172424E0,1.077822078E1
5.444292000E0,-2.306703186E0,-9.921967163E0,-1.581012268E0,1.030853587E1
5.454371000E0,-2.033072205E0,-9.429191895E0,-1.676663361E0,9.790517984E0
5.464450000E0,-2.016007690E0,-8.853788452E0,-1.725162506E0,9.242837369E0
5.474529000E0,-2.463726654E0,-8.341553650E0,-1.080602875E0,8.764654522E0
5.484608000E0,-3.150348816E0,-7.697443085E0,-1.169068909E-1,8.317992241E0
5.494687000E0,-4.108206940E0,-7.167694702E0,2.526745605E-1,8.265413240E0
5.504766000E0,-5.305716705E0,-6.983278198E0,2.276765442E-1,8.773177347E0
5.514845000E0,-6.130351868E0,-6.876999207E0,6.197113037E-2,9.212935066E0
5.524924000E0,-6.562802582E0,-6.544989624E0,4.984634399E-2,9.268751349E0
5.535003000E0,-6.885381775E0,-5.897585907E0,5.298980713E-2,9.066025018E0
5.545082000E0,-7.108867035E0,-5.100942535E0,-3.188369751E-1,8.755413313E0
5.555161000E0,-7.771539001E0,-5.020559692E0,-5.650749207E-1,9.269420033E0
5.565240000E0,-8.409063263E0,-5.617069244E0,-5.034031677E-1,1.012507909E1
5.575319000E0,-8.748108215E0,-6.037544861E0,-6.439608765E-1,1.064875725E1
5.585398000E0,-8.734187164E0,-6.359974365E0,-8.511300659E-1,1.083788364E1
5.595477000E0,-8.245004425E0,-6.653064880E0,-8.125103760E-1,1.062560791E1
5.605556000E0,-7.679630127E0,-6.702162781E0,-4.252656555E-1,1.020179179E1
5.615635000E0,-6.840774536E0,-6.753356323E0,-6.285429382E-1,9.633228125E0
5.625714000E0,-6.049370270E0,-7.049290924E0,-1.190773773E0,9.365112139E0
5.635793000E0,-5.644162903E0,-7.587421875E0,-1.358425140E0,9.553578620E0
5.645872000E0,-5.129533081E0,-8.468639374E0,-5.390290833E-1,9.915670165E0
5.655951000E0,-4.658612366E0,-9.297465820E0,4.110452271E-1,1.040742514E1
5.666030000E0,-5.076393585E0,-9.631720734E0,1.950593719E0,1.106095077E1
5.676109000E0,-6.032156067E0,-1.027149033E1,3.157084808E0,1.232305177E1
5.686188000E0,-6.152655487E0,-1.119746475E1,3.298241272E0,1.319533182E1
5.696267000E0,-5.350473633E0,-1.230770599E1,2.340981903E0,1.362304633E1
5.706346000E0,-5.177732849E0,-1.316617081E1,5.156776428E-1,1.415707931E1
5.716425000E0,-5.691614227E0,-1.358155701E1,-1.682052155E0,1.482168893E1
5.726504000E0,-6.464906158E0,-1.383123779E1,-3.649111633E0,1.569758473E1
5.736583000E0,-7.506739655E0,-1.439900711E1,-4.891228638E0,1.695897000E1
5.746662000E0,-8.653205566E0,-1.528232025E1,-4.700674896E0,1.818030867E1
5.756741000E0,-9.336085510E0,-1.608345428E1,-3.320694580E0,1.889092393E1
5.766820000E0,-9.629924469E0,-1.658101959E1,-2.245330811E0,1.930562525E1
5.776899000E0,-9.847272491E0,-1.667562286E1,-2.308200073E0,1.950315259E1
5.786978000E0,-1.034917877E1,-1.596789459E1,-3.266806641E0,1.930676525E1
5.797057000E0,-1.104717728E1,-1.405741745E1,-4.231700134E0,1.837276237E1
5.807136000E0,-1.143082947E1,-1.178693893E1,-4.926555176E0,1.714254175E1
5.817215000E0,-1.140343643E1,-1.003558090E1,-5.044958954E0,1.600633804E1
5.827294000E0,-1.137215149E1,-9.124725037E0,-4.657564545E0,1.530618646E1
5.837373000E0,-1.157393188E1,-9.003776550E0,-3.838767242E0,1.515783709E1
5.847452000E0,-1.196925980E1,-9.646390228E0,-3.250041504E0,1.571237710E1
5.857531000E0,-1.183409088E1,-1.097382980E1,-2.477797394E0,1.632820037E1
5.867610000E0,-1.097577576E1,-1.259735367E1,-1.372495880E0,1.676438838E1
5.877689000E0,-9.627529449E0,-1.388916733E1,-2.357597351E-1,1.690129803E1
5.887768000E0,-7.763006744E0,-1.470167770E1,1.036744080E0,1.665768409E1
5.897847000E0,-6.217171326E0,-1.525582535E1,2.126178589E0,1.661066109E1
5.907926000E0,-6.180647278E0,-1.566926559E1,2.487377472E0,1.702684151E1
5.918004542E0,-6.293811951E0,-1.562780182E1,2.981649628E0,1.710936858E1
5.928083542E0,-5.295837250E0,-1.452863754E1,3.829486542E0,1.593085585E1
5.938162542E0,-4.243675232E0,-1.272863068E1,4.970114594E0,1.430834922E1
5.948241542E0,-3.903732147E0,-1.109926895E1,5.591173096E0,1.302666928E1
5.958320542E0,-3.372337189E0,-1.011222153E1,6.578669586E0,1.252631533E1
5.968399542E0,-3.361260223E0,-9.644743652E0,6.536607056E0,1.212626827E1
5.978478542E0,-3.751498718E0,-9.283395081E0,5.129832458E0,1.125034879E1
5.988557542E0,-4.999004517E0,-8.398435364E0,-1.428928528E0,9.877530028E0
5.998636542E0,-8.342152405E0,-7.751031647E0,-8.727151794E0,1.434688735E1
6.008715542E0,-9.143436127E0,-6.901398468E0,-7.671247559E0,1.378694180E1
6.018794542E0,-6.996001740E0,-5.981261902E0,-2.930306396E0,9.659514991E0
6.028873542E0,-5.031187592E0,-5.072501678E0,1.910926208E0,7.395590635E0
6.038952542E0,-4.142635345E0,-4.717140656E0,4.647834778E0,7.811223444E0
6.049031542E0,-3.593726807E0,-4.701722717E0,4.690496063E0,7.551279507E0
6.059110542E0,-3.487148438E0,-4.210444336E0,2.757116547E0,6.122886360E0
6.069189542E0,-3.220552826E0,-4.239034882E0,2.734812927E0,5.985029572E0
6.079268542E0,-2.889890442E0,-4.229903870E0,3.659739532E0,6.295811859E0
6.089347542E0,-1.779948578E0,-4.201463013E0,3.288511505E0,5.624483648E0
6.099426542E0,-1.646575928E-1,-3.906875610E0,2.598296814E0,4.694883970E0
6.109505542E0,1.337019653E0,-3.598367157E0,2.270029449E0,4.459697462E0
6.119584542E0,2.746338959E0,-2.998265076E0,1.818717957E0,4.454178504E0
6.129663542E0,4.033512268E0,-1.881437531E0,1.070873108E0,4.577750278E0
6.139742542E0,4.620591431E0,-5.032534790E-1,2.109114075E-1,4.652699523E0
6.149821542E0,4.598886566E0,5.164260864E-1,-9.770182800E-1,4.729801082E0
6.159900542E0,3.546275482E0,7.896080017E-1,-2.254012756E0,4.275526178E0
6.169979542E0,1.562450867E0,-3.718267822E-1,-2.703378296E0,3.144481210E0
6.180058542E0,1.011895752E-1,-2.138303375E0,-2.522254944E0,3.308224699E0
6.190137542E0,-1.524878998E0,-3.000809784E0,-1.517244873E0,3.692173794E0
6.200216542E0,-3.610791321E0,-3.445534973E0,-1.017434235E0,5.093593784E0
6.210295542E0,-4.738695831E0,-3.792962494E0,-1.522034912E0,6.257666733E0
6.220374542E0,-4.442312164E0,-3.866010590E0,-1.397344208E0,6.052499160E0
6.230453542E0,-3.824696503E0,-3.368894348E0,-9.882449341E-1,5.191760830E0
6.240532542E0,-3.694167938E0,-2.913840637E0,-7.194039917E-1,4.759714920E0
6.250611542E0,-3.586392059E0,-3.162473602E0,1.891766052E0,5.142200510E0
6.260690542E0,-2.709665222E0,-4.274062042E0,5.861361237E0,7.743736017E0
6.270769542E0,-1.802850952E0,-5.938151550E0,4.502936096E0,7.667356055E0
6.280848542E0,-2.217039642E0,-8.368796997E0,-5.836213531E0,1.044094902E1
6.290927542E0,-5.797294464E0,-1.282188675E1,-1.055021072E1,1.758739177E1
6.301006542E0,-1.020413040E1,-1.864223328E1,-5.715863800E0,2.200745868E1
6.311085542E0,-1.460812225E1,-2.632021683E1,-4.909490662E0,3.050006800E1
6.321164542E0,-1.808119995E1,-3.264696030E1,-6.947053528E0,3.796070812E1
6.331243542E0,-1.980651215E1,-3.225507523E1,-6.285429382E0,3.836918586E1
6.341322542E0,-1.876378052E1,-2.536340652E1,-4.366869049E0,3.185045361E1
6.351401542E0,-1.332454147E1,-1.701841003E1,-2.474055176E0,2.175524384E1
6.361480542E0,-7.231312408E0,-1.084150497E1,-1.785786438E0,1.315367410E1
6.371559542E0,-2.670895844E0,-7.091802521E0,-1.004111938E0,7.644317392E0
6.381638542E0,-2.643502808E-1,-5.465284882E0,1.728904724E-1,5.474405084E0
6.391717542E0,3.595523071E-1,-5.248984680E0,3.562591553E-1,5.273332781E0
6.401796542E0,1.818717957E-1,-5.514083405E0,-4.390370178E-1,5.534523163E0
6.411875542E0,-4.619393921E-1,-5.811065826E0,-1.137933655E0,5.939424807E0
6.421954542E0,-1.624721375E0,-6.341562653E0,-9.596543884E-1,6.616348915E0
6.432033542E0,-2.738555145E0,-7.227121124E0,-5.155279541E-1,7.745755812E0
6.442112542E0,-3.697610779E0,-7.970774689E0,-4.290078735E-1,8.797137169E0
6.452191542E0,-4.871020660E0,-8.761280823E0,-3.948788452E-1,1.003208918E1
6.462270542E0,-5.958359528E0,-9.485624542E0,-5.215155029E-1,1.121387978E1
6.472349542E0,-6.144272919E0,-9.451196136E0,-1.207688599E0,1.133735903E1
6.482428542E0,-5.526208191E0,-8.420738983E0,-1.674268341E0,1.021033773E1
6.492507542E0,-4.739743652E0,-7.196884003E0,-1.728006592E0,8.788988339E0
6.502586542E0,-4.261937256E0,-6.002517700E0,-1.960922241E0,7.618368851E0
6.512665542E0,-4.178560638E0,-4.853507080E0,-1.816023560E0,6.656939353E0
6.522744542E0,-4.461771698E0,-3.998784485E0,-1.332079926E0,6.137761886E0
6.532823542E0,-4.562961273E0,-3.198997650E0,-9.330097961E-1,5.650195468E0
6.542902542E0,-4.910089417E0,-2.431094513E0,-1.288819885E0,5.628521591E0
6.552981542E0,-5.648653564E0,-2.184257813E0,-1.781295776E0,6.312787334E0
6.563060542E0,-6.261329498E0,-2.409689026E0,-1.889071655E0,6.969895265E0
6.573139542E0,-6.569089508E0,-2.769840088E0,-1.669328613E0,7.321994885E0
6.583218542E0,-7.067852325E0,-3.131338348E0,-1.322350159E0,7.842730793E0
6.593297542E0,-7.593708801E0,-3.518433380E0,-1.105451202E0,8.441907911E0
6.603376542E0,-7.611372070E0,-3.546724548E0,-1.056802368E0,8.463395953E0
6.613455542E0,-6.940018158E0,-3.247347107E0,-1.270707550E0,7.766840602E0
6.623533542E0,-6.333778839E0,-3.015778656E0,-1.457519073E0,7.164917106E0
6.633613542E0,-5.945935364E0,-3.497926025E0,-9.810598755E-1,6.967934580E0
6.643691542E0,-5.717210999E0,-4.739294586E0,-2.378553772E-1,7.429938759E0
6.653770542E0,-5.702391815E0,-6.410120087E0,-2.833607483E-1,8.584125189E0
6.663849542E0,-5.624254303E0,-8.407266998E0,-3.261717224E-1,1.012031436E1
6.673928542E0,-5.971681824E0,-1.017449203E1,3.733236694E-1,1.180341656E1
6.684007542E0,-6.311175842E0,-1.176089310E1,1.358724518E0,1.341624684E1
6.694086542E0,-6.631509705E0,-1.320718552E1,2.040556641E0,1.491879826E1
6.704165542E0,-7.082372131E0,-1.470871307E1,2.455793152E0,1.650869938E1
6.714244542E0,-7.697143707E0,-1.617431534E1,2.674787750E0,1.811101840E1
6.724323542E0,-8.325836334E0,-1.775802200E1,2.759062500E0,1.980604256E1
6.734402542E0,-8.887318726E0,-1.944246918E1,2.380350037E0,2.150953528E1
6.744481542E0,-9.172625427E0,-2.093172226E1,7.836204529E-1,2.286674693E1
6.754560542E0,-9.362730103E0,-2.110970215E1,-2.140099640E0,2.319181464E1
6.764639542E0,-9.387428741E0,-1.886826324E1,-5.037773895E0,2.166827963E1
6.774718542E0,-9.178463287E0,-1.630379608E1,-6.958729248E0,1.996201061E1
6.784797542E0,-9.219627686E0,-1.468191879E1,-7.210355988E0,1.877630175E1
6.794876542E0,-9.253457336E0,-1.373573639E1,-6.182742920E0,1.767832675E1
6.804955542E0,-9.071735229E0,-1.295510971E1,-5.045408020E0,1.660082497E1
6.815034542E0,-9.044641571E0,-1.223196350E1,-4.794230347E0,1.595027012E1
6.825113542E0,-9.245074768E0,-1.165955383E1,-5.781427460E0,1.596375603E1
6.835192542E0,-9.760153656E0,-1.128712830E1,-7.539072418E0,1.671817806E1
6.845271542E0,-1.076770844E1,-1.101484451E1,-9.485624542E0,1.808998114E1
6.855350542E0,-1.155911270E1,-1.079270645E1,-1.049677185E1,1.898098570E1
6.865429542E0,-1.119237534E1,-1.096230377E1,-9.148824921E0,1.814228120E1
6.875508542E0,-1.011267059E1,-1.185130508E1,-5.397775269E0,1.648804162E1
6.885587542E0,-9.939780121E0,-1.334953949E1,-9.412426758E-1,1.667019410E1
6.895666542E0,-9.388925629E0,-1.443163925E1,2.700833588E0,1.742752530E1
6.905745542E0,-8.046367493E0,-1.492411514E1,4.508773956E0,1.754429495E1
6.915824542E0,-6.797364807E0,-1.441412567E1,6.289021912E0,1.713251248E1
6.925903792E0,-4.839586029E0,-1.293774582E1,6.967411194E0,1.547099475E1
6.935982792E0,-3.074306946E0,-1.116812576E1,7.930358734E0,1.403812615E1
6.946061792E0,-1.787133636E0,-1.039977356E1,7.823181610E0,1.313587862E1
6.956140792E0,-1.226699066E0,-9.890682220E0,6.887776794E0,1.211494344E1
6.966219792E0,-1.752405853E0,-9.197773132E0,5.634283447E0,1.092772194E1
6.976298792E0,-3.503913574E0,-8.142617340E0,1.682650909E0,9.022801204E0
6.986377792E0,-7.074288940E0,-7.058871002E0,-8.811276855E0,1.332335632E1
6.996456792E0,-8.754095764E0,-6.599027252E0,-1.245455063E1,1.659208199E1
7.006535792E0,-7.047794037E0,-6.944658508E0,-7.338339844E0,1.231872210E1
7.016614792E0,-4.984335022E0,-6.802903290E0,-3.641627197E0,9.186105672E0
7.026693792E0,-3.653751984E0,-6.379134521E0,9.577084351E-1,7.413532643E0
7.036772792E0,-2.820734253E0,-5.645510101E0,4.148173828E0,7.552196511E0
7.046851792E0,-2.388732605E0,-4.815785522E0,4.155059509E0,6.794288276E0
7.056930792E0,-2.077529755E0,-4.172124023E0,2.533331909E0,5.304763832E0
7.067009792E0,-2.022144928E0,-3.738026733E0,4.776567078E-1,4.276689128E0
7.077088792E0,-1.837279358E0,-3.519481201E0,2.619552612E-2,3.970268199E0
7.087167792E0,-8.449928284E-1,-3.171155548E0,1.380429382E0,3.560312580E0
7.097246792E0,4.794529724E-1,-2.536026306E0,2.973566437E0,3.937435959E0
7.107325792E0,1.694476318E0,-1.715283051E0,3.356170807E0,4.132472435E0
7.117404792E0,2.869981842E0,-1.055604858E0,2.574645996E0,3.997486635E0
7.127483792E0,3.882775726E0,-3.372486877E-1,1.818867645E0,4.300925892E0
7.137562792E0,4.673880615E0,3.240760803E-1,9.972262573E-1,4.790056943E0
7.147641792E0,4.826712799E0,7.128176880E-1,-2.086660767E-1,4.883524038E0
7.157720792E0,4.084107056E0,9.065148926E-1,-1.592388611E0,4.476315581E0
7.167799792E0,2.253414001E0,9.098080444E-1,-2.399061127E0,3.414838156E0
7.177878792E0,-1.468446350E-1,1.878593445E-1,-2.718347168E0,2.728784676E0
7.187957792E0,-2.053579559E0,-1.038989410E0,-2.940934296E0,3.734405245E0
7.198036792E0,-3.698059845E0,-1.830543365E0,-3.547922058E0,5.441901006E0
7.208115792E0,-5.406008148E0,-2.169288940E0,-5.138364716E0,7.767466161E0
7.218194792E0,-6.583908691E0,-2.355950775E0,-7.148384857E0,9.999888188E0
7.228273792E0,-6.764133911E0,-2.643802185E0,-8.499774628E0,1.117986432E1
7.238352792E0,-6.735842743E0,-2.910996552E0,-8.616681519E0,1.131780362E1
7.248431792E0,-6.674320679E0,-2.997666321E0,-7.729027405E0,1.064285791E1
7.258510792E0,-6.297105103E0,-3.069965973E0,-7.204368439E0,1.004893767E1
7.268589792E0,-5.533992004E0,-3.248544617E0,-8.402776337E0,1.057283121E1
7.278668792E0,-4.531077576E0,-4.177512817E0,-9.606872406E0,1.141377566E1
7.288747792E0,-3.826492767E0,-6.110443268E0,-8.087082825E0,1.083422690E1
7.298826792E0,-3.483406219E0,-8.567882996E0,-6.794371033E0,1.147633285E1
7.308905792E0,-3.514092407E0,-1.160327087E1,-9.462722168E0,1.537946199E1
7.318984792E0,-5.629493408E0,-1.533560944E1,-1.248673370E1,2.056187325E1
7.329063792E0,-1.103445374E1,-1.798809357E1,-1.327589264E1,2.493150627E1
7.339142792E0,-1.500090546E1,-1.773242523E1,-6.788832550E0,2.419822962E1
7.349221792E0,-1.533785477E1,-1.606339600E1,-9.843530273E-1,2.223176625E1
7.359300792E0,-1.464225128E1,-1.371747437E1,-1.934577026E0,2.015706362E1
7.369379792E0,-1.251143234E1,-1.053209839E1,-2.471061401E0,1.653986639E1
7.379458792E0,-8.701405334E0,-7.202123108E0,-1.417552185E0,1.138395741E1
7.389537792E0,-5.395230560E0,-4.897216187E0,-1.071172485E0,7.364689380E0
7.399616792E0,-3.247646484E0,-3.553161163E0,-1.842219086E0,5.154215081E0
7.409695792E0,-1.920057220E0,-3.234773254E0,-2.179018707E0,4.347240534E0
7.419774792E0,-1.250200195E0,-4.017196198E0,-2.010319519E0,4.662858607E0
7.429853792E0,-1.233584747E0,-5.423671417E0,-2.102976837E0,5.946465719E0
7.439932792E0,-2.029180298E0,-7.291636963E0,-1.996697845E0,7.827665333E0
7.450011792E0,-3.219355316E0,-9.180109863E0,-1.900298309E0,9.912103683E0
7.460090792E0,-4.418062592E0,-1.064945435E1,-2.146536255E0,1.172764993E1
7.470169792E0,-5.309907990E0,-1.139206009E1,-2.339784393E0,1.278470754E1
7.480248792E0,-5.805078278E0,-1.146675476E1,-2.233505402E0,1.304507359E1
7.490327792E0,-5.773643646E0,-1.101185074E1,-2.130669250E0,1.261489473E1
7.500406792E0,-5.094056854E0,-1.008123596E1,-1.998045044E0,1.147052387E1
7.510485792E0,-3.855083313E0,-8.760831757E0,-1.635648651E0,9.710261939E0
7.520564792E0,-3.044967957E0,-7.599247284E0,-1.251248016E0,8.281667147E0
7.530643792E0,-2.828069000E0,-6.591243439E0,-1.098116455E0,7.255916488E0
7.540722792E0,-3.096610565E0,-5.978118439E0,-9.002279663E-1,6.792444880E0
7.550801792E0,-3.727398834E0,-5.557193756E0,-8.768765259E-1,6.748690018E0
7.560880792E0,-4.651277618E0,-5.332361298E0,-5.831872559E-1,7.099899145E0
7.570959792E0,-5.481900330E0,-5.361849976E0,4.355941772E-2,7.668282976E0
7.581038792E0,-6.023773499E0,-5.466482391E0,5.037025452E-1,8.149968905E0
7.591117792E0,-6.550228729E0,-5.607189789E0,9.889933777E-1,8.678950492E0
7.601196792E0,-7.137607269E0,-5.819149017E0,1.326242065E0,9.304130848E0
7.611275792E0,-7.445516968E0,-6.038143616E0,8.807684326E-1,9.626559836E0
7.621354792E0,-7.506140900E0,-6.156248016E0,2.869532776E-1,9.712048344E0
7.631433792E0,-7.112160187E0,-6.266119537E0,-2.483335876E-1,9.482022261E0
7.641512792E0,-6.668482819E0,-6.392157440E0,-3.498225403E-1,9.243955628E0
7.651591792E0,-6.257587280E0,-6.808890839E0,-4.041595459E-1,9.256443051E0
7.661670792E0,-5.909261627E0,-7.335046692E0,-6.264472961E-1,9.440059278E0
7.671749792E0,-5.511239319E0,-7.863747253E0,-9.969268799E-1,9.654332856E0
7.681828792E0,-5.011877747E0,-8.378077698E0,-1.700763245E0,9.909778003E0
7.691907792E0,-4.349355469E0,-8.825796661E0,-2.579585724E0,1.017181607E1
7.701986792E0,-4.083208923E0,-9.229357452E0,-2.865940247E0,1.049129390E1
7.712065792E0,-4.295168152E0,-9.516011353E0,-2.416574707E0,1.071647213E1
7.722144792E0,-4.534221039E0,-9.471254425E0,-1.521436157E0,1.061030578E1
7.732223792E0,-4.508624268E0,-8.979227600E0,-8.137078857E-1,1.008049312E1
7.742302792E0,-4.681514740E0,-8.468639374E0,-4.888833618E-1,9.688830685E0
7.752381792E0,-5.231171722E0,-8.205935669E0,-1.401086426E-1,9.732531440E0
7.762460792E0,-5.886209564E0,-8.161328430E0,7.140151978E-2,1.006279499E1
7.772539792E0,-6.427933044E0,-8.324189758E0,2.085163879E-1,1.051921753E1
7.782617792E0,-6.850803680E0,-8.732839966E0,4.049079895E-1,1.110675269E1
7.792696792E0,-7.103627930E0,-9.178014221E0,5.078938293E-1,1.161703193E1
7.802775792E0,-6.985224152E0,-9.377100220E0,3.417393494E-1,1.169786950E1
7.812854792E0,-6.581663361E0,-9.240135040E0,1.624122620E-1,1.134569372E1
7.822933792E0,-6.240223389E0,-8.832083588E0,2.299218750E-1,1.081660541E1
7.833012792E0,-6.098617859E0,-8.349337463E0,7.750881958E-1,1.036847807E1
7.843091792E0,-5.993536377E0,-7.798932037E0,1.773661652E0,9.994583277E0
7.853170792E0,-5.834716644E0,-7.119794312E0,3.224295044E0,9.753536174E0
7.863249792E0,-5.585185547E0,-6.418802032E0,4.562661896E0,9.654698374E0
7.873328792E0,-5.460644531E0,-5.940995636E0,5.048850861E0,9.518663922E0
7.883407792E0,-5.685926056E0,-5.754184113E0,4.914430389E0,9.465305910E0
7.893486792E0,-5.882167969E0,-5.854924622E0,4.575086060E0,9.476890565E0
7.903565792E0,-6.067332916E0,-6.399641876E0,4.229604492E0,9.780465174E0
7.913644792E0,-6.272855530E0,-7.521409149E0,3.746558990E0,1.048603912E1
7.923723667E0,-6.368207245E0,-8.824299774E0,3.245700531E0,1.135591925E1
7.933802667E0,-6.084846497E0,-9.668394470E0,2.763852539E0,1.175338629E1
7.943881667E0,-5.607040100E0,-1.004291565E1,2.367925873E0,1.174334392E1
7.953960667E0,-5.079387360E0,-1.009096573E1,1.996847534E0,1.147236529E1
7.964039667E0,-4.341421967E0,-9.860295410E0,1.727258148E0,1.091131481E1
7.974118667E0,-3.507955170E0,-9.514514465E0,1.361568604E0,1.023159831E1
7.984197667E0,-2.213147736E0,-9.002279663E0,3.001258850E-1,9.275189355E0
7.994276667E0,-4.558021545E-1,-8.477171631E0,-9.177415466E-1,8.538878381E0
8.004355667E0,6.191125488E-1,-8.102201385E0,-4.746629333E-1,8.139672754E0
8.014434667E0,3.517684937E-1,-8.159681854E0,1.263971558E0,8.264488680E0
8.024513667E0,-1.152154083E0,-8.456963654E0,3.036286011E0,9.059068716E0
8.034592667E0,-2.686613159E0,-8.764424286E0,3.852239227E0,9.943478787E0
8.044671667E0,-3.668720856E0,-9.075477448E0,3.991000671E0,1.057127665E1
8.054750667E0,-4.321513367E0,-9.184151459E0,3.767216034E0,1.082663532E1
8.064829667E0,-4.907993774E0,-9.182804260E0,3.472329254E0,1.097585384E1
8.074908667E0,-5.545967102E0,-9.050629120E0,3.168461151E0,1.107749000E1
8.084987667E0,-6.151907043E0,-8.860374756E0,2.939138031E0,1.117992547E1
8.095066667E0,-6.501280518E0,-8.657546539E0,2.729573822E0,1.116558703E1
8.105145667E0,-6.428082733E0,-8.408614197E0,2.491419067E0,1.087346354E1
8.115224667E0,-6.008056183E0,-8.084987183E0,2.155517578E0,1.030097145E1
8.125303667E0,-5.489085388E0,-7.844886475E0,1.792672119E0,9.740943256E0
8.135382667E0,-5.062023468E0,-7.842491455E0,1.513053589E0,9.456113630E0
8.145461667E0,-4.688999176E0,-7.996521149E0,1.299747162E0,9.360577249E0
8.155540667E0,-4.382436676E0,-8.218359833E0,1.161434784E0,9.385953352E0
8.165619667E0,-4.224365387E0,-8.361462250E0,1.130748596E0,9.435989946E0
8.175698667E0,-4.269122314E0,-8.350984039E0,1.296903076E0,9.468172862E0
8.185777667E0,-4.426744537E0,-8.305778046E0,1.657652893E0,9.556664128E0
8.195856667E0,-4.668192444E0,-8.271798706E0,2.012714539E0,9.709052185E0
8.205935667E0,-4.963677979E0,-8.303083649E0,2.325563965E0,9.949248459E0
8.216014667E0,-5.203628998E0,-8.368347931E0,2.550845490E0,1.017908712E1
8.226093667E0,-5.237758026E0,-8.336164856E0,2.685715027E0,1.020484291E1
8.236172667E0,-5.136119385E0,-8.159232788E0,2.759062500E0,1.002822157E1
8.246251667E0,-4.996310120E0,-8.004304962E0,2.770438843E0,9.833989227E0
8.256330667E0,-4.802912292E0,-7.943681030E0,2.723286896E0,9.674002601E0
8.266409667E0,-4.593048706E0,-8.009693756E0,2.641856232E0,9.603681317E0
8.276488667E0,-4.453838196E0,-8.220754852E0,2.515069885E0,9.682100059E0
8.286567667E0,-4.292174377E0,-8.459358673E0,2.305505676E0,9.762113832E0
8.296646667E0,-4.201163635E0,-8.704548798E0,2.088157654E0,9.888344050E0
8.306725667E0,-4.172872467E0,-8.922196198E0,1.906585236E0,1.003262263E1
8.316804667E0,-4.103267212E0,-8.962462463E0,1.766027527E0,1.001405954E1
8.326883667E0,-4.116888885E0,-8.875643005E0,1.636995850E0,9.919958078E0
8.336962667E0,-4.304299164E0,-8.658594360E0,1.542542267E0,9.791715081E0
8.347041667E0,-4.667444000E0,-8.424481201E0,1.580114136E0,9.759799060E0
8.357120667E0,-5.001998291E0,-8.353379059E0,1.740430756E0,9.890805216E0
8.367199667E0,-5.097649384E0,-8.314609680E0,1.939367065E0,9.943837689E0
8.377278667E0,-5.125341797E0,-8.307873688E0,2.096689911E0,9.984287773E0
8.387357667E0,-5.145549774E0,-8.325986023E0,2.253114624E0,1.004366722E1
8.397436667E0,-5.061125336E0,-8.351582794E0,2.382745056E0,1.005193508E1
8.407515667E0,-4.874613190E0,-8.368796997E0,2.437381439E0,9.986963763E0
8.417594667E0,-4.658612366E0,-8.382867737E0,2.409689026E0,9.888465092E0
8.427673667E0,-4.511917419E0,-8.454269257E0,2.328857117E0,9.861827566E0
8.437752667E0,-4.406835938E0,-8.641080780E0,2.217039642E0,9.950062553E0
8.447831667E0,-4.310735779E0,-8.864116974E0,2.060614929E0,1.006981363E1
8.457910667E0,-4.080364838E0,-8.949289856E0,1.878144379E0,1.001332075E1
8.467989667E0,-3.816014557E0,-9.070986786E0,1.747316437E0,9.994892851E0
8.478068667E0,-3.618724823E0,-9.227411499E0,1.668280792E0,1.005104239E1
8.488147667E0,-3.463497620E0,-9.313482513E0,1.617236938E0,1.006738435E1
8.498226667E0,-3.342549133E0,-9.260492706E0,1.629661102E0,9.979236202E0
8.508305667E0,-3.349734192E0,-8.931925964E0,1.543141022E0,9.663400271E0
8.518384667E0,-4.296365662E0,-8.435258789E0,1.215322723E0,9.544074500E0
8.528463667E0,-4.791535950E0,-8.666677551E0,1.594783630E0,1.003062567E1
8.538542667E0,-4.177512817E0,-8.998088379E0,1.651815033E0,1.005712189E1
8.548621667E0,-3.424279175E0,-9.611213379E0,1.709445190E0,1.034520726E1
8.558700667E0,-2.362986145E0,-9.916278992E0,8.839118958E-1,1.023218417E1
8.568779667E0,-2.170187073E0,-9.490414581E0,1.296004944E0,9.821268231E0
8.578858667E0,-2.805316315E0,-9.221573639E0,2.366728363E0,9.925151039E0
8.588937667E0,-3.814218292E0,-9.124126282E0,2.668800201E0,1.024306771E1
8.599016667E0,-4.454736328E0,-8.949738922E0,2.893782349E0,1.040752030E1
8.609095667E0,-4.802163849E0,-8.671467590E0,2.898871765E0,1.032756435E1
8.619174667E0,-5.009333038E0,-8.415649567E0,2.875370636E0,1.020707262E1
8.629253667E0,-5.140011292E0,-8.224197693E0,2.816992035E0,1.009913798E1
8.639332667E0,-5.170248413E0,-8.247100067E0,2.711611176E0,1.010440317E1
8.649411667E0,-5.461392975E0,-8.165669403E0,2.348765717E0,1.010057773E1
8.659490667E0,-6.027815094E0,-7.924371185E0,2.016007690E0,1.015846940E1
8.669569667E0,-6.206842804E0,-7.853867798E0,1.838626556E0,1.017785265E1
8.679648667E0,-6.210135956E0,-7.871980133E0,1.749262390E0,1.017810290E1
8.689727667E0,-6.241720276E0,-7.948471069E0,1.730251923E0,1.025334268E1
8.699806667E0,-6.222260742E0,-8.111033020E0,1.634600830E0,1.035264726E1
8.709885667E0,-6.227649536E0,-8.296197968E0,1.450633392E0,1.047448599E1
8.719964667E0,-6.062692566E0,-8.377029877E0,1.168619843E0,1.040656250E1
8.730043667E0,-5.725593567E0,-8.369246063E0,7.200027466E-1,1.016587947E1
8.740122667E0,-5.354814606E0,-8.341254272E0,1.898052979E-1,9.913959267E0
8.750201667E0,-5.079986115E0,-8.438102875E0,-3.085084534E-1,9.854086285E0
8.760280667E0,-4.938530273E0,-8.513695679E0,-6.433621216E-1,9.863367082E0
8.770359667E0,-4.895719299E0,-8.685089264E0,-9.418414307E-1,1.001428521E1
8.780438667E0,-4.802612915E0,-8.891360321E0,-9.536668396E-1,1.015041180E1
8.790517667E0,-4.605921936E0,-9.058113556E0,-5.993536377E-1,1.017954630E1
8.800596667E0,-4.329746246E0,-9.138945465E0,-2.519261169E-1,1.011585357E1
8.810675667E0,-4.096381531E0,-9.096733246E0,-3.577560425E-2,9.976581443E0
8.820754667E0,-3.982618103E0,-9.069639587E0,-2.514770508E-2,9.905566193E0
8.830833667E0,-4.039200439E0,-9.054371338E0,-2.148033142E-1,9.916799936E0
8.840912667E0,-4.117637329E0,-9.134604492E0,-4.641847229E-1,1.003052361E1
8.850991667E0,-4.306095428E0,-9.346264343E0,-8.448431396E-1,1.032515738E1
8.861070667E0,-4.410877533E0,-9.484576721E0,-1.171014862E0,1.052541268E1
8.871149667E0,-4.354295197E0,-9.494007111E0,-1.196461945E0,1.051320973E1
8.881228667E0,-4.073179779E0,-9.414821777E0,-1.148860931E0,1.032228386E1
8.891307667E0,-3.627556458E0,-9.209448853E0,-9.177415466E-1,9.940591711E0
8.901386667E0,-3.266207886E0,-8.957822113E0,-5.846841431E-1,9.552619877E0
8.911465667E0,-3.003055115E0,-8.752149811E0,-2.776725769E-1,9.257190092E0
8.921544375E0,-2.821033630E0,-8.548573151E0,-7.753875732E-2,9.002352243E0
8.931623375E0,-2.722987518E0,-8.401878204E0,6.780899048E-2,8.832373206E0
8.941702375E0,-2.666105804E0,-8.252788239E0,3.318598938E-1,8.679099312E0
8.951781375E0,-2.693947906E0,-8.146808624E0,5.852828979E-1,8.600604755E0
8.961860375E0,-2.886297913E0,-8.163274384E0,7.204518127E-1,8.688429957E0
8.971939375E0,-3.331621857E0,-8.267308044E0,8.458909607E-1,8.953413763E0
8.982018375E0,-3.890559540E0,-8.377628632E0,8.629554749E-1,9.277165902E0
8.992096375E0,-4.503983917E0,-8.353528748E0,8.152047729E-1,9.525327946E0
9.002175375E0,-4.979844360E0,-8.163274384E0,7.885601807E-1,9.594775957E0
9.012255375E0,-5.213658142E0,-7.736511841E0,1.069076843E0,9.390355264E0
9.022333375E0,-5.326673126E0,-7.323520660E0,1.276994476E0,9.145387709E0
9.032412375E0,-5.282664642E0,-7.199578400E0,7.250921631E-1,8.959142453E0
9.042491375E0,-5.016667786E0,-7.413932648E0,-5.716612244E-1,8.969958168E0
9.052570375E0,-4.846771088E0,-7.684569855E0,-1.587299194E0,9.222977966E0
9.062649375E0,-4.947960663E0,-7.693251801E0,-1.735341339E0,9.310201263E0
9.072728375E0,-5.191055145E0,-7.401059418E0,-1.505718842E0,9.164601642E0
9.082807375E0,-5.891748047E0,-7.111711121E0,-1.086440735E0,9.298896901E0
9.092886375E0,-7.079078979E0,-6.864125977E0,-5.804928589E-1,9.877578478E0
9.102965375E0,-8.457263031E0,-6.474785614E0,-2.612068176E-1,1.065440640E1
9.113044375E0,-9.374405823E0,-5.965694275E0,1.164578247E-1,1.111227048E1
9.123123375E0,-9.660910034E0,-5.536087646E0,6.616241455E-1,1.115433528E1
9.133202375E0,-9.780211945E0,-5.257516937E0,1.132395172E0,1.116137755E1
9.143281375E0,-1.002420456E1,-5.087620239E0,1.239123230E0,1.130946432E1
9.153360375E0,-1.038270905E1,-4.719984741E0,6.014492798E-1,1.142106144E1
9.163439375E0,-1.030097900E1,-4.483925629E0,-1.254391479E0,1.130439098E1
9.173518375E0,-9.557475128E0,-5.345384216E0,-2.827170868E0,1.130979038E1
9.183597375E0,-9.116492157E0,-6.768624573E0,-3.012186127E0,1.174725385E1
9.193676375E0,-8.568930817E0,-8.633296967E0,-2.931952972E0,1.251226359E1
9.203755375E0,-7.633526001E0,-1.065574127E1,-3.124602356E0,1.347511340E1
9.213834375E0,-6.576124878E0,-1.221070770E1,-3.133733368E0,1.421854725E1
9.223913375E0,-5.753735046E0,-1.268656815E1,-2.742596741E0,1.419775740E1
9.233992375E0,-4.773722992E0,-1.220666611E1,-2.003134460E0,1.325909787E1
9.244071375E0,-3.642076263E0,-1.118279526E1,-1.336271210E0,1.183660636E1
9.254150375E0,-2.626887360E0,-1.021341110E1,-1.013991394E0,1.059445525E1
9.264229375E0,-2.029180298E0,-9.416019287E0,-5.146298218E-1,9.645923271E0
9.274308375E0,-1.970652008E0,-8.674012299E0,1.182540894E-2,8.895060345E0
9.284387375E0,-1.896855469E0,-8.138126678E0,3.555107117E-1,8.363824147E0
9.294466375E0,-1.827998657E0,-8.176147614E0,6.644682312E-1,8.404313590E0
9.304545375E0,-2.060614929E0,-8.386609955E0,1.069376221E0,8.702007005E0
9.314624375E0,-2.452649689E0,-8.625363464E0,1.326391754E0,9.064860753E0
9.324703375E0,-2.517165527E0,-9.271569672E0,1.427581329E0,9.712678051E0
9.334782375E0,-2.781066742E0,-9.874815216E0,1.393302612E0,1.035314445E1
9.344861375E0,-2.943479004E0,-1.045216461E1,1.215023346E0,1.092648596E1
9.354940375E0,-3.285966797E0,-1.074570419E1,8.309220886E-1,1.126757152E1
9.365019375E0,-4.101920013E0,-1.057311310E1,4.980143738E-1,1.135184948E1
9.375098375E0,-4.259093170E0,-1.036130356E1,5.755531311E-1,1.121729680E1
9.385177375E0,-4.020788727E0,-1.009395950E1,6.239025879E-1,1.088319874E1
9.395256375E0,-3.771706696E0,-9.726324005E0,6.089337158E-1,1.044978231E1
9.405335375E0,-3.552113342E0,-9.442963257E0,7.198530579E-1,1.011460591E1
9.415414375E0,-3.457510071E0,-9.070088654E0,6.649172974E-1,9.729491204E0
9.425493375E0,-3.037483521E0,-8.505313110E0,1.230441284E-1,9.032264229E0
9.435572375E0,-2.108964386E0,-7.910150757E0,-2.664459229E-1,8.190800279E0
9.445651375E0,-1.708247681E0,-7.601043549E0,-1.396595764E-1,7.791885392E0
9.455730375E0,-2.269131317E0,-7.578141174E0,2.451901245E-1,7.914372925E0
9.465809375E0,-3.154839478E0,-7.668253784E0,7.872129822E-1,8.329155570E0
9.475888375E0,-3.780238953E0,-7.888595581E0,1.453627167E0,8.867535098E0
9.485967375E0,-4.648283844E0,-7.747139740E0,2.550995178E0,9.387880125E0
9.496046375E0,-6.109096069E0,-6.379882965E0,3.923640747E0,9.665346251E0
9.506125375E0,-7.163802795E0,-4.043242035E0,4.640500031E0,9.444687246E0
9.516204375E0,-7.166646881E0,-3.762126617E0,4.478686523E0,9.250570641E0
9.526283375E0,-7.688461761E0,-3.371439056E0,3.456013184E0,9.078715366E0
9.536362375E0,-8.413404236E0,-3.330274658E0,2.959196320E0,9.520133560E0
9.546441375E0,-9.031618652E0,-3.925886078E0,3.148851929E0,1.033914820E1
9.556520375E0,-9.028175812E0,-6.074368286E0,3.380570068E0,1.139447948E1
9.566599375E0,-8.152496796E0,-9.138346710E0,3.453169098E0,1.272387368E1
9.576678375E0,-6.670129395E0,-1.132604736E1,3.466940460E0,1.359373573E1
9.586757375E0,-5.476062469E0,-1.123982666E1,3.832330627E0,1.307699207E1
9.596836375E0,-5.246439972E0,-9.714199219E0,3.893553314E0,1.170685937E1
9.606915375E0,-6.077212372E0,-8.709787903E0,3.883075104E0,1.130801432E1
9.616994375E0,-7.162006531E0,-8.371641083E0,3.770359497E0,1.164449753E1
9.627073375E0,-7.754474487E0,-8.978778534E0,3.536396027E0,1.237967832E1
9.637152375E0,-8.120463409E0,-9.746232605E0,3.257675629E0,1.309745878E1
9.647231375E0,-7.694598999E0,-1.018062927E1,2.822530518E0,1.306976452E1
9.657310375E0,-6.913223877E0,-1.023287064E1,2.182311859E0,1.254060568E1
9.667389375E0,-5.847140808E0,-9.904752960E0,1.456920319E0,1.159378297E1
9.677468375E0,-4.554578705E0,-8.864266663E0,-1.034349060E-1,9.966449188E0
9.687547375E0,-3.635939026E0,-7.347171478E0,-3.874542847E0,9.067141975E0
9.697626375E0,-4.663252716E0,-6.453829193E0,-4.674928436E0,9.233243906E0
9.707705375E0,-6.387217712E0,-6.725364532E0,-2.827919312E0,9.696607955E0
9.717784375E0,-7.550598450E0,-8.071515198E0,-3.651806030E0,1.164029990E1
9.727863375E0,-7.619904327E0,-1.022538620E1,-3.941453705E0,1.334752869E1
9.737942375E0,-6.560407562E0,-1.251622238E1,-3.512146454E0,1.456124798E1
9.748021375E0,-5.622308350E0,-1.297965866E1,-2.002535706E0,1.428607852E1
9.758100375E0,-5.200485535E0,-1.194441147E1,-9.830058289E-1,1.306446767E1
9.768179375E0,-4.691843262E0,-1.045650558E1,-4.638853455E-1,1.147026991E1
9.778258375E0,-4.221072235E0,-8.124055939E0,4.191284180E-3,9.155203617E0
9.788337375E0,-4.094136200E0,-6.172115021E0,4.128414917E-1,7.418045103E0
9.798416375E0,-4.523293762E0,-4.835095367E0,9.407936096E-1,6.687557573E0
9.808495375E0,-5.646557922E0,-4.166435852E0,1.273401947E0,7.131925168E0
9.818574375E0,-6.944957886E0,-4.744084625E0,1.579066315E0,8.557583151E0
9.828653375E0,-7.616162109E0,-5.925727386E0,2.038460999E0,9.862833953E0
9.838732375E0,-7.582631836E0,-7.046746216E0,2.479443970E0,1.064427453E1
9.848811375E0,-7.630831604E0,-7.588619385E0,2.640658722E0,1.108105652E1
9.858890375E0,-7.790699158E0,-7.576195221E0,2.646197205E0,1.118463620E1
9.868969375E0,-7.831564178E0,-7.156468048E0,2.759960632E0,1.096201693E1
9.879048375E0,-7.499853973E0,-7.129524078E0,2.792592773E0,1.071804542E1
9.889127375E0,-7.139553223E0,-7.407795410E0,2.375410309E0,1.055894063E1
9.899206375E0,-7.279362488E0,-6.397097168E0,1.707798615E0,9.840149720E0
9.909285375E0,-7.553442535E0,-5.167254639E0,1.032852173E0,9.209875040E0
9.919364375E0,-7.918084259E0,-5.022805023E0,4.969665527E-1,9.389973610E0
9.929443375E0,-8.255332947E0,-6.395600281E0,3.442840576E-1,1.044857677E1
9.939522375E0,-8.408614197E0,-8.590935059E0,3.502716064E-1,1.202628987E1
9.949601375E0,-7.998467102E0,-9.802066498E0,3.484753418E-1,1.265612179E1
9.959680375E0,-6.994953918E0,-9.839338989E0,2.206411743E-1,1.207438009E1
9.969759375E0,-6.150709534E0,-9.193132782E0,-1.022373962E-1,1.106143619E1
9.979838375E0,-5.664221191E0,-9.294921112E0,-7.018904114E-1,1.090741080E1
9.989917375E0,-4.868026886E0,-9.824968872E0,-1.282682648E0,1.103960932E1