"Time (s)","Acceleration x (m/s^2)","Acceleration y (m/s^2)","Acceleration z (m/s^2)","Absolute acceleration (m/s^2)"
0.000000000E0,-1.096918945E0,4.639152832E0,8.352031860E0,9.616725345E0
1.004299999E-2,-9.919871521E-1,4.570296021E0,8.094267883E0,9.348198585E0
2.008599997E-2,-1.112785950E0,4.732109528E0,7.783364410E0,9.176705002E0
3.012900008E-2,-1.090182953E0,4.855902100E0,7.533533936E0,9.028976555E0
4.017200007E-2,-9.186396790E-1,4.818330231E0,7.508086853E0,8.968365139E0
5.021500005E-2,-7.183561707E-1,4.680017853E0,7.859705658E0,9.175705734E0
6.025800004E-2,-5.427713013E-1,4.588707733E0,8.520731049E0,9.692971523E0
7.030000002E-2,-4.990621948E-1,4.657115479E0,9.375303955E0,1.048017709E1
8.034300001E-2,-1.456471252E-1,4.406985626E0,9.922865295E0,1.085845252E1
9.038600000E-2,1.706451416E-1,3.757186890E0,9.958491211E0,1.064505145E1
1.004290000E-1,-2.395019531E-1,3.648063812E0,9.798324280E0,1.045814943E1
1.104720000E-1,-8.466394043E-1,3.877536621E0,9.478738861E0,1.027611692E1
1.205150001E-1,-1.237626343E0,4.007316742E0,9.066795502E0,9.989849203E0
1.305580001E-1,-1.395997009E0,4.153862000E0,8.991053009E0,1.000212034E1
1.406000000E-1,-1.181942139E0,4.215683441E0,9.166488190E0,1.015841916E1
1.506430000E-1,-7.481442261E-1,4.090094604E0,9.317374420E0,1.020304169E1
1.606860000E-1,-3.411405945E-1,3.840713196E0,9.411528625E0,1.017075837E1
1.707290000E-1,2.170486450E-2,3.704346771E0,9.679621124E0,1.036425208E1
1.807720000E-1,-7.664062500E-2,3.886218567E0,1.018871246E1,1.090497273E1
1.908150000E-1,-3.236270142E-1,4.255201263E0,1.110869934E1,1.190019635E1
2.008580000E-1,-3.806584167E-1,4.567901001E0,1.251442612E1,1.332747093E1
2.109000001E-1,3.083587646E-2,4.614903259E0,1.411908920E1,1.485419008E1
2.209430001E-1,1.249900818E0,3.582051086E0,1.398032776E1,1.448595548E1
2.309860000E-1,1.747915192E0,1.955832825E0,1.257055939E1,1.284131819E1
2.410292500E-1,2.234403534E0,-1.728904724E-1,1.127814697E1,1.149865424E1
2.510722501E-1,9.608518982E-1,7.096742249E-1,1.117995117E1,1.124358404E1
2.611152501E-1,3.230282593E-1,1.180594940E0,9.910740509E0,9.986036707E0
2.711582500E-1,-1.424886932E0,8.256829834E-1,7.774682465E0,7.947184570E0
2.812002500E-1,-4.007466431E0,9.128018188E-1,8.617729340E0,9.547683139E0
2.912432500E-1,-3.819607086E0,1.171014862E0,9.438173218E0,1.024889203E1
3.012862500E-1,-2.721640320E0,8.473878479E-1,9.859996033E0,1.026376705E1
3.113292500E-1,-2.013762360E0,-2.597099304E-1,8.766819305E0,8.998878198E0
3.213722500E-1,-2.193538513E0,-1.559756470E0,5.218448181E0,5.871682286E0
3.314152500E-1,-1.980232086E0,-1.517394562E0,2.635419617E0,3.628945016E0
3.414582501E-1,-1.387315063E0,-9.529183960E-1,1.741179199E0,2.421652650E0
3.515012501E-1,-2.113305359E0,-6.099815369E-1,2.601290588E0,3.406589165E0
3.615432500E-1,-4.737947388E0,6.468049622E-1,7.818541260E0,9.164938054E0
3.715862500E-1,-4.555327148E0,1.720073090E0,3.712280273E0,6.122963473E0
3.816292500E-1,-1.717678070E0,3.451372833E0,3.818259888E0,5.426002300E0
3.916722500E-1,1.552272034E-1,2.258353729E0,4.117337952E0,4.698587964E0
4.017152500E-1,2.035916290E0,1.374142456E0,6.322701874E0,6.783051055E0
4.117582500E-1,2.621199188E0,2.280807037E0,9.042695618E0,9.687265350E0
4.218012501E-1,1.752705231E0,3.062032471E0,1.096874039E1,1.152220830E1
4.318432501E-1,3.222049713E0,1.727258148E0,9.460327148E0,1.014213068E1
4.418862500E-1,4.568350067E0,1.112037506E0,8.805888062E0,9.982490386E0
4.519292500E-1,5.447621613E0,8.330177307E-1,8.158484344E0,9.845372851E0
4.619722500E-1,4.403243408E0,9.050180054E-1,7.018604736E0,8.334771895E0
4.720152500E-1,2.718945923E0,1.226100311E0,5.158872070E0,5.959022566E0
4.820582500E-1,2.458038483E0,1.227597198E0,4.516108704E0,5.286226053E0
4.921012500E-1,3.768862610E0,1.427731018E0,4.905748444E0,6.348945505E0
5.021432501E-1,5.019212494E0,1.395547943E0,4.532873840E0,6.905576976E0
5.121862501E-1,6.128854980E0,2.307002563E0,5.545518036E0,8.581252501E0
5.222292501E-1,6.065985718E0,2.534978485E0,6.074817352E0,8.951296248E0
5.322722500E-1,5.740712128E0,1.267115021E0,6.394402771E0,8.686181152E0
5.423152500E-1,5.315895538E0,-1.128652954E-1,6.782994690E0,8.618613631E0
5.523582500E-1,3.873944092E0,-1.002764740E0,7.292385406E0,8.318164754E0
5.624012500E-1,3.271147614E0,-1.633852386E0,7.396119690E0,8.250604026E0
5.724432500E-1,3.086431732E0,-2.060016174E0,7.128476257E0,8.036473183E0
5.824862500E-1,2.718945923E0,-1.841171265E0,7.204967194E0,7.917962542E0
5.925292501E-1,4.098477173E0,-1.206042023E0,7.120542755E0,8.303865463E0
6.025722501E-1,6.382727051E0,-1.013242950E0,6.359375610E0,9.066836495E0
6.126152501E-1,6.455625458E0,-9.249266052E-1,6.068680115E0,8.908393099E0
6.226582500E-1,5.898783417E0,-4.698728943E-1,5.611680450E0,8.155205933E0
6.327012500E-1,5.505102081E0,-8.114625549E-1,5.176984406E0,7.600380776E0
6.427442500E-1,4.480782166E0,-1.989961853E0,4.894821167E0,6.927960107E0
6.527862500E-1,4.883893890E0,-2.805316315E0,5.326523438E0,7.752036577E0
6.628292500E-1,6.194418640E0,-2.328557739E0,5.969436493E0,8.912192518E0
6.728722500E-1,7.354955292E0,-1.842817841E0,5.982758789E0,9.658402956E0
6.829152501E-1,7.758067017E0,-1.848805389E0,5.800138550E0,9.861404180E0
6.929582501E-1,7.761360168E0,-2.185155945E0,5.802533569E0,9.933932454E0
7.030012500E-1,7.428302765E0,-2.757565613E0,5.842650146E0,9.844816444E0
7.130442500E-1,6.740034027E0,-3.398981781E0,5.905220032E0,9.583984529E0
7.230862500E-1,6.468049622E0,-3.826193390E0,6.230942688E0,9.762175400E0
7.331292500E-1,7.632777557E0,-3.426973572E0,7.297923889E0,1.110239317E1
7.431722500E-1,8.607251129E0,-3.219505005E0,8.270601196E0,1.236336640E1
7.532152500E-1,9.159153442E0,-3.435954895E0,9.093739471E0,1.335634588E1
7.632582500E-1,9.345066833E0,-3.785927124E0,9.502689056E0,1.385512965E1
7.733012501E-1,8.664731598E0,-4.631069641E0,9.485175476E0,1.365624156E1
7.833442501E-1,8.135731659E0,-5.683980103E0,9.746382294E0,1.391005849E1
7.933872500E-1,1.026729904E1,-5.187163239E0,1.066457291E1,1.568621074E1
8.034292500E-1,1.148456772E1,-4.393363953E0,1.070558762E1,1.630357472E1
8.134722500E-1,1.169832321E1,-3.944297791E0,9.781708832E0,1.575087549E1
8.235152500E-1,1.169757477E1,-3.305426331E0,8.636440430E0,1.491131121E1
8.335582500E-1,1.145597717E1,-3.145858154E0,7.900121613E0,1.426701644E1
8.436012500E-1,1.042087967E1,-3.548969879E0,7.267088013E0,1.319092447E1
8.536442501E-1,1.013572266E1,-3.737877045E0,6.776258698E0,1.275234412E1
8.636872501E-1,1.021176453E1,-3.629951477E0,6.690037994E0,1.273629816E1
8.737292500E-1,1.044093796E1,-3.480711823E0,6.977290649E0,1.303115977E1
8.837722500E-1,1.194665680E1,-3.337459717E0,7.342082062E0,1.441413941E1
8.938152500E-1,1.256217682E1,-3.169658661E0,7.179669800E0,1.481224766E1
9.038582500E-1,1.252400620E1,-3.222349091E0,7.215894470E0,1.480889590E1
9.139012500E-1,1.240814713E1,-3.550317078E0,6.813680878E0,1.459428359E1
9.239442500E-1,1.188977509E1,-3.703298950E0,6.032754822E0,1.383746022E1
9.339872500E-1,1.130329468E1,-3.808530121E0,5.381908264E0,1.308565279E1
9.440292501E-1,1.080243622E1,-4.027674408E0,4.833748169E0,1.250119637E1
9.540722501E-1,1.096424973E1,-3.906426544E0,4.638404388E0,1.252955449E1
9.641152500E-1,1.210832062E1,-3.130290527E0,4.833299103E0,1.340786811E1
9.741582500E-1,1.293355453E1,-2.727627869E0,5.153483276E0,1.418714829E1
9.842012500E-1,1.347093704E1,-2.709066467E0,5.343288574E0,1.474299558E1
9.942442500E-1,1.344698685E1,-2.658321991E0,5.304519196E0,1.469782484E1
1.004287250E0,1.307336380E1,-2.751278687E0,4.847818909E0,1.421209779E1
1.014329250E0,1.239677078E1,-2.807112579E0,3.962410126E0,1.331392132E1
1.024372250E0,1.145657593E1,-2.715054016E0,2.926264801E0,1.213209281E1
1.034415250E0,1.064376617E1,-2.800675964E0,2.048639832E0,1.119510917E1
1.044458250E0,9.808503113E0,-3.378923492E0,1.888772278E0,1.054472939E1
1.054501250E0,1.017164795E1,-2.506387939E0,2.722837830E0,1.082396639E1
1.064544250E0,1.157333313E1,-1.720671844E0,2.933599548E0,1.206270109E1
1.074587250E0,1.158081757E1,-1.343456268E0,2.495011597E0,1.192247009E1
1.084630250E0,1.082503922E1,-1.735790405E0,2.383643188E0,1.121945619E1
1.094672250E0,9.755662994E0,-2.225122833E0,2.248474274E0,1.025571883E1
1.104715250E0,8.137677612E0,-2.706222382E0,1.625769196E0,8.728605958E0
1.114758250E0,5.509592743E0,-4.493356018E0,-5.605842590E-1,7.131627809E0
1.124801250E0,2.999013519E0,-7.213050385E0,-3.609593811E0,8.605309141E0
1.134844250E0,2.635419617E0,-7.179669800E0,-1.454525299E0,7.785161452E0
1.144887250E0,3.774850159E0,-6.460116119E0,8.834628296E-1,7.534129052E0
1.154930250E0,6.003565521E0,-6.158343658E0,1.350940704E0,8.705919617E0
1.164972250E0,6.606811066E0,-5.386548615E0,1.241218872E0,8.614260428E0
1.175015250E0,6.488257599E0,-5.512287140E0,1.064735870E0,8.580003418E0
1.185058250E0,5.951024780E0,-6.389912109E0,1.344354401E0,8.834758710E0
1.195101250E0,5.758225708E0,-7.084467773E0,1.096469879E0,9.195058082E0
1.205144250E0,5.569468231E0,-6.878795471E0,3.022215271E-1,8.855966427E0
1.215187250E0,5.697003021E0,-7.442373505E0,2.812651062E-1,9.376773265E0
1.225230250E0,6.136339417E0,-6.526428223E0,8.863069153E-1,9.001914615E0
1.235272250E0,7.400610352E0,-5.542673950E0,1.801653442E0,9.419990617E0
1.245315500E0,9.342671814E0,-5.699847107E0,2.508483582E0,1.122792339E1
1.255358500E0,1.194605804E1,-5.464386749E0,3.266058197E0,1.353643090E1
1.265401500E0,1.220412140E1,-4.126319275E0,3.483406219E0,1.334545648E1
1.275444500E0,1.158934982E1,-3.434458008E0,1.174906769E0,1.214450234E1
1.285487500E0,1.046533722E1,-3.570375366E0,4.688250732E-1,1.106754988E1
1.295530500E0,9.390272827E0,-3.147205353E0,6.370751953E-1,9.924111552E0
1.305573500E0,9.741891632E0,-3.272345123E0,9.624984741E-1,1.032177787E1
1.315615500E0,1.084539688E1,-4.450395355E0,1.671274567E0,1.184152908E1
1.325658500E0,1.200383789E1,-6.713688812E0,3.644022217E0,1.422830417E1
1.335701500E0,1.189785828E1,-8.599617004E0,6.155050507E0,1.591845127E1
1.345744500E0,9.455686798E0,-9.577234039E0,7.496860199E0,1.540572418E1
1.355787500E0,6.492748260E0,-9.078022156E0,6.074068909E0,1.270671395E1
1.365830500E0,4.357139282E0,-9.084309082E0,2.925815735E0,1.049141229E1
1.375873500E0,3.604953461E0,-8.946296082E0,3.749702454E-1,9.652590622E0
1.385915500E0,3.790866852E0,-7.571405182E0,-8.366102600E-1,8.508628835E0
1.395958500E0,4.449048157E0,-6.817572784E0,-1.072968750E0,8.211247780E0
1.406001500E0,5.459147644E0,-6.327192535E0,-3.866459656E-1,8.365712969E0
1.416044500E0,5.947881317E0,-5.673352203E0,6.584806824E-1,8.246078716E0
1.426087500E0,6.889123993E0,-5.091063080E0,7.012916565E-1,8.594810217E0
1.436130500E0,8.542735291E0,-3.620072021E0,6.959028625E-1,9.304167264E0
1.446173500E0,9.984387360E0,-2.188748474E0,1.964365082E0,1.040852252E1
1.456215500E0,1.178394516E1,-1.988015900E0,4.061204681E0,1.262168587E1
1.466258500E0,1.236937775E1,-1.449286194E0,3.364104309E0,1.290035403E1
1.476301500E0,1.141705811E1,-1.622625732E-1,1.006506958E0,1.146248669E1
1.486344500E0,1.036714142E1,-2.276765442E-1,-6.274951172E-1,1.038860953E1
1.496387500E0,1.149175278E1,5.825885010E-1,-4.233197021E-1,1.151429506E1
1.506430500E0,1.137379807E1,1.706601105E0,1.913770294E0,1.165925754E1
1.516473500E0,1.054871384E1,6.542893982E-1,1.601669312E0,1.068965869E1
1.526515500E0,9.625433807E0,6.601272583E-2,-3.821553040E-1,9.633243293E0
1.536558500E0,9.213191071E0,1.901046753E-2,-9.764195251E-1,9.264806862E0
1.546601500E0,9.674531708E0,-1.423988800E0,-6.601272583E-2,9.778991029E0
1.556644500E0,9.155411224E0,-2.411634979E0,1.270108795E0,9.552523976E0
1.566687500E0,7.120243378E0,-2.843037872E0,2.329605560E0,8.012976486E0
1.576730500E0,5.020559692E0,-3.603606262E0,1.859283600E0,6.453598471E0
1.586773500E0,5.387895813E0,-4.243076477E0,1.075663147E0,6.941914036E0
1.596816500E0,6.468498688E0,-4.819228363E0,7.686515808E-1,8.102916916E0
1.606858500E0,6.265371094E0,-5.526058502E0,9.792636108E-1,8.411370562E0
1.616901500E0,5.137017517E0,-6.729705505E0,2.011517029E0,8.701958740E0
1.626944500E0,4.199966125E0,-7.993527374E0,3.404969330E0,9.650389188E0
1.636987500E0,4.562362518E0,-8.433312836E0,4.463418274E0,1.057629518E1
1.647030500E0,6.668782196E0,-8.033045197E0,4.945715332E0,1.155260019E1
1.657073500E0,8.621172180E0,-7.680677948E0,5.043761444E0,1.259987909E1
1.667116500E0,9.287736053E0,-7.053332520E0,4.472249908E0,1.249049878E1
1.677158500E0,9.883197784E0,-6.492149506E0,3.785178680E0,1.241584396E1
1.687201500E0,1.089569229E1,-6.203849030E0,2.724933472E0,1.283078781E1
1.697244500E0,1.080962128E1,-5.952222290E0,1.733096008E0,1.246115902E1
1.707287500E0,1.043120819E1,-6.182892609E0,7.289840698E-1,1.214782627E1
1.717330500E0,9.881551208E0,-6.667734375E0,-2.354603577E-1,1.192305236E1
1.727373500E0,9.057065735E0,-6.759792938E0,-1.153650970E0,1.136028833E1
1.737416500E0,8.823701019E0,-6.460714874E0,-2.032772827E0,1.112343030E1
1.747458500E0,9.038055267E0,-6.295159149E0,-1.448537750E0,1.110917339E1
1.757501500E0,9.232650604E0,-6.040987701E0,-1.064137115E0,1.108457295E1
1.767544500E0,9.114396515E0,-5.911806335E0,-9.547146606E-1,1.090564799E1
1.777587500E0,8.837921448E0,-5.808970184E0,-9.681866455E-1,1.062028133E1
1.787630500E0,8.361462250E0,-5.772745514E0,-1.123264160E0,1.022254196E1
1.797673500E0,7.795788574E0,-5.967789917E0,-1.341360626E0,9.908990076E0
1.807716500E0,7.600444794E0,-6.060746613E0,-1.719025269E0,9.871902473E0
1.817759500E0,7.337591400E0,-5.975723419E0,-2.016756134E0,9.675578703E0
1.827801500E0,7.491770782E0,-4.840484161E0,-1.927092590E0,9.125272721E0
1.837844500E0,7.101831665E0,-4.345313873E0,-1.385668488E0,8.440251348E0
1.847887500E0,6.402485962E0,-4.739593964E0,-7.289840698E-1,7.999187159E0
1.857930500E0,6.044879608E0,-5.179229736E0,-3.094065857E-1,7.966223859E0
1.867973500E0,6.105353851E0,-5.806126099E0,-2.769241333E-2,8.425390958E0
1.878016500E0,6.263574829E0,-6.010151825E0,1.011895752E-1,8.681274902E0
1.888059500E0,6.288572845E0,-5.993237000E0,2.080673218E-1,8.689552933E0
1.898101500E0,6.318510590E0,-6.238127747E0,3.037184143E-1,8.884259042E0
1.908144500E0,6.196963348E0,-5.874533844E0,4.089495850E-1,8.548669042E0
1.918187500E0,6.065686340E0,-5.705535278E0,2.609074402E-1,8.331491840E0
1.928230500E0,6.407725067E0,-5.352868652E0,2.993774414E-2,8.349433491E0
1.938273500E0,6.143674164E0,-3.901486816E0,4.866380310E-1,7.294048820E0
1.948316500E0,6.074667664E0,-3.958667908E0,6.189628601E-1,7.277070417E0
1.958359500E0,6.122867432E0,-4.382436676E0,6.463558960E-1,7.557316504E0
1.968401500E0,6.149961090E0,-4.799170074E0,9.403445435E-1,7.857372504E0
1.978444500E0,6.300997009E0,-5.195545807E0,6.650669861E-1,8.193813132E0
1.988487500E0,6.003116455E0,-4.926854553E0,5.798941040E-1,7.787655625E0
1.998530500E0,5.775739288E0,-5.486390991E0,5.782475281E-1,7.987115915E0
2.008573500E0,5.459147644E0,-6.022575989E0,8.476872253E-1,8.172654904E0
2.018616500E0,5.236410828E0,-6.915618896E0,1.344653778E0,8.778033770E0
2.028659500E0,4.678520966E0,-7.414980469E0,1.752555542E0,8.941025931E0
2.038701500E0,4.067491608E0,-7.524253235E0,2.268532562E0,8.849017726E0
2.048744500E0,3.761976929E0,-7.259902954E0,2.527044983E0,8.558306939E0
2.058787500E0,3.355721741E0,-7.106921082E0,2.573747864E0,8.270028641E0
2.068830500E0,2.642155609E0,-7.184459839E0,2.578088837E0,8.077375285E0
2.078873500E0,1.938618622E0,-7.260801086E0,2.448159027E0,7.903857109E0
2.088916500E0,1.396745453E0,-8.449030151E0,1.061293030E0,8.629214985E0
2.098959500E0,1.155447235E0,-9.348060608E0,1.496887207E-2,9.419210132E0
2.109002500E0,9.047186279E-1,-8.082143097E0,1.482517090E0,8.266644407E0
2.119044500E0,7.125183105E-1,-7.995173950E0,1.869013367E0,8.241583574E0
2.129087500E0,6.810836792E-1,-8.549471283E0,1.692081299E0,8.741880422E0
2.139130500E0,8.402027893E-1,-8.934171295E0,1.381926270E0,9.079376502E0
2.149173500E0,1.053060150E0,-9.563612366E0,1.117276611E0,9.686068562E0
2.159216500E0,1.549128571E0,-1.051248917E1,1.150806885E0,1.068815158E1
2.169259500E0,3.145409088E0,-1.292427383E1,1.469494171E0,1.338244617E1
2.179302500E0,4.033961334E0,-1.609887222E1,1.681603088E0,1.668155628E1
2.189344500E0,4.753065948E0,-1.855286911E1,2.064207458E0,1.926295773E1
2.199387500E0,5.433101807E0,-1.980037491E1,2.467917938E0,2.068004015E1
2.209430500E0,5.349575500E0,-1.923859314E1,2.806663513E0,2.016479070E1
2.219473500E0,4.278403015E0,-1.708816498E1,2.756966858E0,1.783005835E1
2.229516500E0,3.140020294E0,-1.408151733E1,2.344873810E0,1.461667852E1
2.239558833E0,2.332449646E0,-1.129206802E1,1.913470917E0,1.168813469E1
2.249601833E0,1.727108459E0,-9.403146057E0,1.525627441E0,9.681404779E0
2.259643833E0,1.368903351E0,-8.166567535E0,1.283580780E0,8.379397431E0
2.269686833E0,1.148262177E0,-7.500303040E0,1.117725677E0,7.669573808E0
2.279729833E0,1.292861481E0,-7.403604126E0,1.093925171E0,7.594834899E0
2.289772833E0,1.778900757E0,-7.749684448E0,1.165326691E0,8.036173421E0
2.299815833E0,2.465073853E0,-8.416847076E0,1.250200195E0,8.859057757E0
2.309858833E0,2.969375153E0,-9.003626862E0,1.227746887E0,9.559803757E0
2.319901833E0,3.289858704E0,-9.306297455E0,1.130000153E0,9.935151884E0
2.329943833E0,3.471730499E0,-9.405690765E0,1.069974976E0,1.008289531E1
2.339986833E0,3.373684387E0,-9.803413696E0,5.084925842E-1,1.038013637E1
2.350029833E0,2.978805542E0,-1.022044647E1,1.615141296E-1,1.064691952E1
2.360072833E0,2.911295929E0,-1.014500336E1,6.721023560E-2,1.055467926E1
2.370115833E0,3.100502472E0,-9.764494629E0,4.101470947E-2,1.024500625E1
2.380158833E0,3.191962280E0,-9.434431000E0,5.837860107E-2,9.959945760E0
2.390201833E0,3.207380219E0,-8.950637054E0,2.612068176E-1,9.511541439E0
2.400243833E0,3.349285126E0,-7.703580322E0,1.017583923E0,8.461580093E0
2.410286833E0,3.821553040E0,-7.086413727E0,2.221530304E0,8.352049092E0
2.420329833E0,4.346511383E0,-7.051236877E0,2.619702301E0,8.687631602E0
2.430372833E0,4.593348083E0,-7.635771332E0,2.444716187E0,9.240156258E0
2.440415833E0,4.528233490E0,-8.566685486E0,2.321971436E0,9.964163292E0
2.450458833E0,4.441713409E0,-9.046437836E0,2.234104156E0,1.032269717E1
2.460501833E0,4.358486481E0,-9.564809875E0,2.118544464E0,1.072241685E1
2.470544833E0,4.320016479E0,-1.003348526E1,1.979034576E0,1.110179926E1
2.480586833E0,4.526736603E0,-1.004680756E1,1.884580994E0,1.117950499E1
2.490629833E0,4.893623657E0,-9.781409454E0,1.887574768E0,1.109893968E1
2.500672833E0,5.035528564E0,-9.413773956E0,1.833088074E0,1.083216968E1
2.510715833E0,4.680167542E0,-9.104517059E0,1.662742310E0,1.037115765E1
2.520758833E0,4.059258728E0,-8.864715729E0,1.523980865E0,9.868296917E0
2.530801833E0,3.534150696E0,-8.696315918E0,1.457219696E0,9.499453717E0
2.540844833E0,3.246898041E0,-8.588689728E0,1.376088409E0,9.284479384E0
2.550886833E0,3.113226013E0,-8.597521362E0,1.338666229E0,9.241297369E0
2.560929833E0,3.160827026E0,-8.726553040E0,1.289418640E0,9.370493897E0
2.570972833E0,3.380719757E0,-8.926237793E0,1.205742645E0,9.620852485E0
2.581015833E0,3.658242645E0,-9.134903870E0,1.130898285E0,9.904955269E0
2.591058833E0,3.855083313E0,-9.218280487E0,1.036594391E0,1.004554082E1
2.601101833E0,3.972888336E0,-9.154662781E0,1.002914429E0,1.002983199E1
2.611144833E0,4.023034058E0,-8.998986511E0,1.092428284E0,9.917659039E0
2.621186833E0,4.043391724E0,-8.799750824E0,1.315614166E0,9.773201718E0
2.631229833E0,4.117787018E0,-8.649014282E0,1.547182617E0,9.703370138E0
2.641272833E0,4.225562897E0,-8.510701904E0,1.686093750E0,9.650406252E0
2.651315833E0,4.143683167E0,-8.593030701E0,1.760788422E0,9.701065028E0
2.661358833E0,3.954925690E0,-8.834029541E0,1.729802856E0,9.832280156E0
2.671401833E0,4.116140442E0,-8.842262421E0,1.701062622E0,9.900597502E0
2.681444833E0,4.333787842E0,-8.816965027E0,1.728755035E0,9.975428979E0
2.691486833E0,4.510869598E0,-8.913514252E0,1.708247681E0,1.013492925E1
2.701529833E0,4.616699524E0,-8.845106506E0,1.679507446E0,1.011783420E1
2.711572833E0,4.685855713E0,-8.525221710E0,1.720522156E0,9.879111572E0
2.721615833E0,4.562063141E0,-8.294401703E0,1.724563751E0,9.622039277E0
2.731658833E0,4.190685425E0,-8.331524506E0,1.760489044E0,9.490809586E0
2.741701833E0,3.880231018E0,-8.616681519E0,1.830992432E0,9.625794847E0
2.751744833E0,3.606749725E0,-8.789272614E0,1.942061462E0,9.696987129E0
2.761786833E0,3.312012634E0,-8.908125458E0,2.021995239E0,9.716614205E0
2.771829833E0,3.234623566E0,-8.965755615E0,2.110760651E0,9.762319083E0
2.781872833E0,3.303480377E0,-9.063352661E0,2.184557190E0,9.890886420E0
2.791915833E0,3.306174774E0,-9.239236908E0,2.221380615E0,1.006125351E1
2.801958833E0,3.067121887E0,-9.167536011E0,2.249821472E0,9.925353890E0
2.812001833E0,2.948269043E0,-9.080267487E0,2.250569916E0,9.808598928E0
2.822044833E0,2.576891327E0,-7.680977325E0,2.361638947E0,8.438905148E0
2.832087833E0,8.249345398E-1,-1.346000977E0,2.027533722E0,2.569655350E0
2.842129833E0,3.704346771E0,-3.458408203E0,2.619552612E0,5.704807463E0
2.852172833E0,6.496340790E0,-8.962911530E0,3.524869995E0,1.161726884E1
2.862215833E0,6.380032654E0,-9.298663330E0,3.568579102E0,1.182813228E1
2.872258833E0,5.996230774E0,-9.087452545E0,3.277883606E0,1.137018462E1
2.882301833E0,6.059100037E0,-9.972561951E0,3.021466827E0,1.205379388E1
2.892344833E0,5.795348511E0,-9.944570160E0,2.932252350E0,1.187765313E1
2.902387833E0,5.154381409E0,-9.103469238E0,2.872676239E0,1.084864363E1
2.912429833E0,4.424499207E0,-8.113877106E0,2.797083435E0,9.655820559E0
2.922472833E0,3.670517120E0,-7.114405518E0,2.639760590E0,8.429460111E0
2.932515833E0,3.187172241E0,-7.087611237E0,2.372715912E0,8.125397266E0
2.942558833E0,2.725232849E0,-7.951464844E0,1.515598297E0,8.541061143E0
2.952601833E0,2.196831665E0,-8.841663666E0,4.481680298E-1,9.121509761E0
2.962644833E0,2.010918274E0,-9.290580139E0,3.733236694E-1,9.513045894E0
2.972687833E0,2.256707153E0,-9.457483063E0,8.875044250E-1,9.763420362E0
2.982729833E0,2.537223816E0,-9.716743927E0,1.286724243E0,1.012463711E1
2.992772833E0,2.718047791E0,-1.002510269E1,1.471140747E0,1.049069697E1
3.002815833E0,2.904110870E0,-9.779912567E0,1.482966156E0,1.030920649E1
3.012858833E0,3.178939362E0,-9.696835327E0,1.413959656E0,1.030211399E1
3.022901833E0,3.500919800E0,-9.876162415E0,1.509011993E0,1.058641302E1
3.032944833E0,3.793411560E0,-9.984686737E0,1.793719940E0,1.083057578E1
3.042987833E0,3.987408142E0,-9.641001434E0,2.165696411E0,1.065544806E1
3.053029833E0,4.175117798E0,-9.627679138E0,2.620899811E0,1.081632701E1
3.063072833E0,4.212090912E0,-9.785151672E0,2.934497681E0,1.104998551E1
3.073115833E0,4.108356628E0,-1.022194336E1,2.997965698E0,1.141729033E1
3.083158833E0,3.983216858E0,-1.059032730E1,3.008892975E0,1.170788135E1
3.093201833E0,3.631298676E0,-1.057820251E1,2.688708801E0,1.150277591E1
3.103244833E0,3.202290802E0,-1.042222687E1,2.076182556E0,1.109900956E1
3.113287833E0,2.880010986E0,-1.021820114E1,1.642384644E0,1.074260328E1
3.123329833E0,2.768343201E0,-1.007554779E1,1.447340240E0,1.054870519E1
3.133372833E0,2.786006470E0,-9.889933777E0,1.319356384E0,1.035921442E1
3.143415833E0,2.916385345E0,-9.765243073E0,1.242117004E0,1.026684618E1
3.153458833E0,3.016078033E0,-9.758058014E0,1.215921478E0,1.028566420E1
3.163501833E0,3.037633209E0,-9.647288361E0,1.204545135E0,1.018569179E1
3.173544833E0,2.978506165E0,-9.412127380E0,1.217418365E0,9.946946681E0
3.183587833E0,2.919828186E0,-9.222172394E0,1.145867157E0,9.740989264E0
3.193629833E0,2.852468262E0,-9.103169861E0,1.077010345E0,9.600220205E0
3.203672833E0,2.713856506E0,-9.071735229E0,1.010548553E0,9.522741495E0
3.213715833E0,2.606080627E0,-8.972491608E0,1.020428009E0,9.398858186E0
3.223758833E0,2.439327393E0,-8.774902496E0,1.147364044E0,9.179633773E0
3.233801833E0,2.212998047E0,-8.369096375E0,1.333277435E0,8.758810604E0
3.243844625E0,2.258503418E0,-8.046367493E0,1.549727325E0,8.499795427E0
3.253887625E0,2.646346893E0,-7.854017487E0,1.838177490E0,8.489266108E0
3.263929625E0,3.245550842E0,-7.810757446E0,2.199526062E0,8.739533572E0
3.273972625E0,3.877985687E0,-8.023465118E0,2.436183929E0,9.238493256E0
3.284015625E0,4.335135040E0,-8.383616180E0,2.518063660E0,9.768268049E0
3.294058625E0,4.583468628E0,-8.491092682E0,2.512076111E0,9.970825742E0
3.304101625E0,4.782554626E0,-8.463699646E0,2.568508759E0,1.005506229E1
3.314144625E0,5.020709381E0,-8.549471283E0,2.653981018E0,1.026375161E1
3.324187625E0,5.152585144E0,-8.474177856E0,2.745740204E0,1.029076835E1
3.334229625E0,5.068759460E0,-8.270601196E0,2.707569580E0,1.007105256E1
3.344272625E0,4.866529999E0,-8.070467377E0,2.612816620E0,9.779691641E0
3.354315625E0,4.716392212E0,-7.904612274E0,2.493814087E0,9.536580068E0
3.364358625E0,4.650529175E0,-7.818541260E0,2.378254395E0,9.402824203E0
3.374401625E0,4.652624817E0,-7.845634918E0,2.284549255E0,9.403194684E0
3.384444625E0,4.712051239E0,-8.046367493E0,2.174827423E0,9.574827989E0
3.394487625E0,4.833149414E0,-8.339158630E0,2.071542206E0,9.858609792E0
3.404530625E0,4.862338715E0,-8.582552490E0,1.916614380E0,1.004867930E1
3.414572625E0,4.828958130E0,-8.747659149E0,1.717528381E0,1.013855418E1
3.424615625E0,4.676724701E0,-8.813522186E0,1.501527557E0,1.008982221E1
3.434658625E0,4.469256134E0,-8.800798645E0,1.313668213E0,9.957611729E0
3.444701625E0,4.267924805E0,-8.709787903E0,1.130449219E0,9.764911822E0
3.454744625E0,4.093387756E0,-8.596623230E0,9.886940002E-1,9.572631305E0
3.464787625E0,3.986809387E0,-8.538693695E0,8.843609619E-1,9.464989880E0
3.474830625E0,3.837719421E0,-8.581953735E0,7.834707642E-1,9.433548999E0
3.484872625E0,3.840563507E0,-8.727002106E0,7.188052368E-1,9.561755842E0
3.494915625E0,3.966751099E0,-8.884474640E0,7.625143433E-1,9.759632781E0
3.504958625E0,4.042194214E0,-8.987460480E0,7.382647705E-1,9.882247457E0
3.515001625E0,4.071832581E0,-8.964408417E0,5.761518860E-1,9.862676605E0
3.525044625E0,4.005221100E0,-8.876241760E0,3.656895447E-1,9.744905987E0
3.535087625E0,3.955225067E0,-8.757239227E0,2.248324585E-1,9.611638458E0
3.545130625E0,4.010160828E0,-8.601562958E0,3.056643677E-1,9.495351804E0
3.555172625E0,4.103566589E0,-8.504414978E0,6.095324707E-1,9.462339177E0
3.565215625E0,4.094585266E0,-8.538394318E0,9.315129089E-1,9.515120720E0
3.575258625E0,4.023483124E0,-8.692723389E0,1.220412140E0,9.656151519E0
3.585301625E0,4.003873901E0,-8.929381256E0,1.424437866E0,9.889078778E0
3.595344625E0,3.992347870E0,-9.098230133E0,1.613943787E0,1.006585553E1
3.605387625E0,3.945345612E0,-9.219028931E0,1.797312469E0,1.018756981E1
3.615430625E0,3.905827789E0,-9.200018463E0,1.929038544E0,1.017924458E1
3.625472625E0,3.837420044E0,-8.967851257E0,1.985471191E0,9.954408301E0
3.635515625E0,3.611988831E0,-8.620124359E0,1.922302551E0,9.541920896E0
3.645558625E0,3.525019684E0,-8.324938202E0,1.804796906E0,9.218874753E0
3.655601625E0,3.595672760E0,-8.198451233E0,1.762734375E0,9.124182029E0
3.665644625E0,3.740421753E0,-8.253536682E0,1.761836243E0,9.231234457E0
3.675687625E0,3.861070862E0,-8.333021393E0,1.839674377E0,9.366510319E0
3.685730625E0,3.993844757E0,-8.410260773E0,1.932331696E0,9.508795296E0
3.695772625E0,4.155059509E0,-8.409212952E0,2.039808197E0,9.598968667E0
3.705815625E0,4.162094879E0,-8.266110535E0,2.126328278E0,9.495940664E0
3.715858625E0,4.104614410E0,-8.110583954E0,2.146685944E0,9.340111995E0
3.725901625E0,4.137695618E0,-8.099057922E0,2.153721313E0,9.346324398E0
3.735944625E0,4.324806519E0,-8.280181274E0,2.166744232E0,9.589584659E0
3.745987625E0,4.542603607E0,-8.553213501E0,2.187101898E0,9.928550923E0
3.756030625E0,4.745132446E0,-8.819509735E0,2.251168671E0,1.026488160E1
3.766072625E0,4.868176575E0,-8.985364838E0,2.316732330E0,1.047870093E1
3.776115625E0,4.894521790E0,-8.931776276E0,2.391427002E0,1.046192593E1
3.786158625E0,4.852908325E0,-8.748108215E0,2.457290039E0,1.030137811E1
3.796201625E0,4.844525757E0,-8.498726807E0,2.461181946E0,1.008737844E1
3.806244625E0,4.976551208E0,-8.265960846E0,2.387834473E0,9.939513273E0
3.816287625E0,5.096152496E0,-8.095315704E0,2.253114624E0,9.827585264E0
3.826330625E0,5.158572693E0,-7.887248383E0,2.115401001E0,9.658906805E0
3.836372625E0,5.227728882E0,-7.615862732E0,2.035018158E0,9.458954134E0
3.846415625E0,5.338049469E0,-7.546257477E0,2.017953644E0,9.461126304E0
3.856458625E0,5.382507019E0,-7.552694092E0,1.942360840E0,9.475617947E0
3.866501625E0,5.450914764E0,-7.680079193E0,1.890418854E0,9.605715571E0
3.876544625E0,5.579497375E0,-7.932154999E0,1.892963562E0,9.880950609E0
3.886587625E0,5.553301849E0,-8.047265625E0,1.825304260E0,9.946325005E0
3.896630625E0,5.138514404E0,-7.955207062E0,1.673070831E0,9.617110568E0
3.906672625E0,4.623884583E0,-7.899522858E0,1.516047363E0,9.277993836E0
3.916715625E0,4.364773407E0,-7.963290253E0,1.410516815E0,9.189929065E0
3.926758625E0,4.133504333E0,-8.140372009E0,1.370699615E0,9.232027511E0
3.936801625E0,3.908522186E0,-8.386160889E0,1.374591522E0,9.353808956E0
3.946844625E0,3.780837708E0,-8.575367432E0,1.367855530E0,9.471150358E0
3.956887625E0,3.647465057E0,-8.746162262E0,1.417252808E0,9.581647102E0
3.966930625E0,3.549718323E0,-8.821755066E0,1.563648376E0,9.636849011E0
3.976972625E0,3.505709839E0,-8.835376740E0,1.766476593E0,9.668211994E0
3.987015625E0,3.476221161E0,-8.763825531E0,1.902543640E0,9.618129953E0
3.997058625E0,3.513044586E0,-8.660540314E0,2.030677185E0,9.563999719E0
4.007101625E0,3.548520813E0,-8.456364899E0,2.124831390E0,9.413661121E0
4.017144625E0,3.620371399E0,-8.272547150E0,2.183509369E0,9.290308852E0
4.027187625E0,3.774999847E0,-8.169860687E0,2.231110382E0,9.272275936E0
4.037230625E0,3.995641022E0,-8.109985199E0,2.296224976E0,9.327896668E0
4.047272625E0,4.177662506E0,-8.054899750E0,2.336341553E0,9.369779391E0
4.057315625E0,4.390819244E0,-8.008346558E0,2.367027740E0,9.434814707E0
4.067358625E0,4.744982758E0,-8.029752045E0,2.411784668E0,9.633716030E0
4.077401625E0,5.234464874E0,-8.100704498E0,2.469714203E0,9.955929094E0
4.087444625E0,5.720504150E0,-8.225694580E0,2.518812103E0,1.033105191E1
4.097487625E0,6.085744629E0,-8.284671936E0,2.443219299E0,1.056604928E1
4.107530625E0,6.297703857E0,-8.243058472E0,2.240690460E0,1.061271787E1
4.117572625E0,6.353986816E0,-8.142916718E0,1.965263214E0,1.051391938E1
4.127615625E0,6.289470978E0,-8.166866913E0,1.694027252E0,1.044628588E1
4.137658625E0,6.240223389E0,-8.389004974E0,1.521436157E0,1.056553645E1
4.147701625E0,6.417903900E0,-9.010213165E0,1.559157715E0,1.117158917E1
4.157744625E0,6.527326355E0,-9.613608398E0,1.694326630E0,1.174300637E1
4.167787625E0,6.462211761E0,-9.841284943E0,1.747915192E0,1.190236437E1
4.177830625E0,6.254892883E0,-9.772727509E0,1.635648651E0,1.171773163E1
4.187872625E0,6.039640503E0,-9.505682831E0,1.376387787E0,1.134591146E1
4.197915625E0,5.962101746E0,-9.487720184E0,1.003812561E0,1.125038360E1
4.207958625E0,6.354136505E0,-1.003812561E1,2.100132751E-1,1.188205042E1
4.218001625E0,7.174580383E0,-1.078656921E1,-1.485959930E0,1.303966089E1
4.228044625E0,8.228688354E0,-1.122665405E1,-2.518812103E0,1.414544053E1
4.238087625E0,8.862470398E0,-1.111333969E1,-1.887275391E0,1.433915998E1
4.248131000E0,9.135502625E0,-1.065873505E1,-1.741927643E0,1.414568319E1
4.258173000E0,9.620643768E0,-1.020592667E1,-3.101101227E0,1.436435012E1
4.268216000E0,1.021026764E1,-9.897567902E0,-5.127138062E0,1.511618207E1
4.278259000E0,1.026355682E1,-9.621242523E0,-6.010002136E0,1.529800745E1
4.288302000E0,9.504635010E0,-9.486672363E0,-5.642666016E0,1.456621842E1
4.298345000E0,8.317453766E0,-9.732161865E0,-4.916675720E0,1.371381464E1
4.308388000E0,7.030729523E0,-1.026430527E1,-4.110452271E0,1.310278360E1
4.318431000E0,6.159840546E0,-1.100122284E1,-2.666255493E0,1.288718192E1
4.328473000E0,6.153703308E0,-1.169083878E1,-5.852828979E-1,1.322445960E1
4.338516000E0,4.721032562E0,-1.254166946E1,1.931732941E0,1.353932102E1
4.348559000E0,4.106111298E0,-1.340612183E1,3.602408752E0,1.447624265E1
4.358602000E0,4.323010254E0,-1.386626495E1,4.814887390E0,1.530179277E1
4.368645000E0,4.244124298E0,-1.362032639E1,5.535039825E0,1.530237066E1
4.378688000E0,4.086202698E0,-1.255065079E1,6.268813934E0,1.461211538E1
4.388731000E0,3.756887512E0,-1.124162292E1,6.731950836E0,1.363112071E1
4.398773000E0,3.512595520E0,-1.071696396E1,6.816824341E0,1.317803999E1
4.408816000E0,3.893104248E0,-1.078761703E1,5.154082031E0,1.257352391E1
4.418859000E0,5.000351715E0,-1.109028763E1,1.213376770E0,1.222580386E1
4.428902000E0,6.478827209E0,-1.103355560E1,-1.420096893E0,1.287366406E1
4.438945000E0,7.039561157E0,-1.088835754E1,-1.654509430E0,1.307092777E1
4.448988000E0,6.714287567E0,-1.040231827E1,2.365081787E-2,1.238105174E1
4.459031000E0,6.134543152E0,-9.727072449E0,2.448308716E0,1.175766872E1
4.469073000E0,5.675148468E0,-9.034163361E0,4.140988770E0,1.144426519E1
4.479116000E0,5.024750977E0,-8.337811432E0,4.779560852E0,1.084488007E1
4.489159000E0,4.015100555E0,-7.549700317E0,4.609215088E0,9.714106808E0
4.499202000E0,2.653981018E0,-6.717431030E0,4.206253052E0,8.358233044E0
4.509245000E0,1.521136780E0,-5.859564972E0,3.858226776E0,7.178737537E0
4.519288000E0,6.099815369E-1,-5.072202301E0,3.588038635E0,6.242862717E0
4.529331000E0,1.272354126E-2,-4.478686523E0,3.586242371E0,5.737589146E0
4.539373000E0,-3.183879089E-1,-4.171225891E0,3.738775177E0,5.610609247E0
4.549416000E0,-6.406677246E-1,-4.024980011E0,3.891307983E0,5.634997519E0
4.559459000E0,-1.229543152E0,-3.930526428E0,3.673211517E0,5.518450617E0
4.569502000E0,-1.785786438E0,-3.782933350E0,3.102598114E0,5.208237033E0
4.579545000E0,-2.240540771E0,-3.612587585E0,2.500400391E0,4.931816514E0
4.589588000E0,-2.472558289E0,-3.496429138E0,1.937421112E0,4.700229970E0
4.599631000E0,-2.526595917E0,-3.343297577E0,1.354533234E0,4.404098761E0
4.609673000E0,-2.387535095E0,-3.013832703E0,8.803193665E-1,3.944423098E0
4.619716000E0,-2.148631897E0,-2.739153900E0,7.529342651E-1,3.561810372E0
4.629759000E0,-1.963916016E0,-2.704875183E0,5.665718079E-1,3.390327342E0
4.639802000E0,-1.416354675E0,-2.883753204E0,-4.951702881E-1,3.250736336E0
4.649845000E0,-5.911207581E-1,-3.899391174E0,-1.587149506E0,4.251319658E0
4.659888000E0,6.574328613E-1,-5.888454895E0,-4.381538544E0,7.369124712E0
4.669931000E0,4.360282745E0,-8.393046570E0,-1.521540939E1,1.791546760E1
4.679973000E0,1.242042160E1,-1.176807816E1,-2.919888062E1,3.384271215E1
4.690016000E0,1.717393661E1,-1.607956238E1,-1.914533707E1,3.033216703E1
4.700059000E0,1.824989914E1,-2.019899597E1,-7.689359894E0,2.828753281E1
4.710102000E0,1.877755188E1,-2.259925461E1,-4.998555450E0,2.980450167E1
4.720145000E0,1.690838882E1,-2.141581558E1,-4.278852081E0,2.761954643E1
4.730188000E0,1.327978455E1,-1.568004318E1,-3.505260773E0,2.084474238E1
4.740231000E0,9.718540192E0,-9.612111511E0,-1.879042511E0,1.379759080E1
4.750273000E0,6.882986755E0,-6.490652618E0,-9.610015869E-2,9.461147569E0
4.760316000E0,4.189338226E0,-4.536466370E0,1.158890076E0,6.282762776E0
4.770359000E0,1.619781647E0,-3.183579712E0,1.423689423E0,3.845226123E0
4.780402000E0,-2.323168945E-1,-2.873574371E0,1.313518524E0,3.168080132E0
4.790445000E0,-9.788145447E-1,-4.144880676E0,2.009870453E0,4.709319799E0
4.800488000E0,-9.952803040E-1,-6.788682861E0,3.262914734E0,7.597592410E0
4.810531000E0,-8.861572266E-2,-9.641151123E0,3.402125244E0,1.022419209E1
4.820573000E0,2.588117981E0,-1.218496124E1,3.444337463E-1,1.246155166E1
4.830616000E0,6.426585846E0,-1.466290833E1,-4.774621124E0,1.670625311E1
4.840659000E0,8.566984863E0,-1.659613815E1,-4.552183685E0,1.922361588E1
4.850702000E0,7.770790558E0,-1.596011078E1,-1.286275177E0,1.779788824E1
4.860745000E0,5.264103241E0,-1.278431488E1,2.660417633E0,1.407932214E1
4.870788000E0,2.169738007E0,-9.529483337E0,6.120023346E0,1.153141368E1
4.880831000E0,-3.861968994E-1,-7.437583466E0,6.850953369E0,1.011940502E1
4.890873000E0,-1.701212311E0,-6.356232147E0,5.297633514E0,8.447528117E0
4.900916000E0,-1.652862854E0,-6.026767273E0,3.901037750E0,7.366951534E0
4.910959000E0,-1.146914978E0,-6.349047089E0,2.957250366E0,7.097263038E0
4.921002000E0,-3.546125793E-1,-7.139852600E0,2.472707977E0,7.564226991E0
4.931045000E0,4.772076416E-1,-8.257278900E0,2.263143768E0,8.575091934E0
4.941088000E0,1.223555603E0,-9.496102753E0,2.371069336E0,9.863824086E0
4.951131000E0,1.979932709E0,-1.062804886E1,2.902613983E0,1.119378059E1
4.961173000E0,2.709066467E0,-1.126242966E1,3.600163422E0,1.213023246E1
4.971216000E0,3.359314270E0,-1.122545654E1,4.126169586E0,1.242260610E1
4.981259000E0,3.994593201E0,-1.077564194E1,4.109105072E0,1.220475229E1
4.991302000E0,4.662953339E0,-1.039019348E1,4.115541687E0,1.210937396E1
5.001345000E0,5.214855652E0,-9.986632690E0,4.330494690E0,1.206982751E1
5.011388000E0,5.607189789E0,-9.502090302E0,4.473746796E0,1.190565865E1
5.021431000E0,5.780229950E0,-8.934770050E0,4.686454468E0,1.162772676E1
5.031473000E0,6.178701324E0,-8.656648407E0,4.639901276E0,1.160355961E1
5.041516000E0,7.066954193E0,-9.003327484E0,3.572620697E0,1.199021960E1
5.051559000E0,7.935448151E0,-9.473200378E0,2.596949615E0,1.262762884E1
5.061602000E0,7.948770447E0,-9.601483612E0,1.940714264E0,1.261498359E1
5.071645000E0,7.172185364E0,-9.303453369E0,1.133143616E0,1.180163133E1
5.081688000E0,6.069278870E0,-8.674611053E0,1.676513672E-1,1.058834878E1
5.091731000E0,4.584516449E0,-7.614066467E0,-4.121229858E0,9.796751236E0
5.101773000E0,3.011737061E0,-5.833818512E0,-1.549727325E1,1.683061130E1
5.111816000E0,4.180356903E0,-5.733527069E0,-9.078022156E0,1.152211798E1
5.121859000E0,5.281018066E0,-6.227200470E0,-1.766326904E0,8.353866664E0
5.131902000E0,5.549709320E0,-6.346951447E0,9.735754395E-1,8.487102883E0
5.141945000E0,4.764891357E0,-6.662046204E0,1.362317047E0,8.303189568E0
5.151988000E0,3.799848175E0,-6.990014191E0,1.667232971E0,8.128887397E0
5.162031000E0,3.135679321E0,-7.464826813E0,2.057621155E0,8.354036687E0
5.172073000E0,3.437302094E0,-8.291407928E0,2.208956451E0,9.243483095E0
5.182116000E0,4.097579041E0,-8.886869659E0,2.353855133E0,1.006514979E1
5.192159000E0,4.555327148E0,-9.046288147E0,2.452949066E0,1.042129041E1
5.202202000E0,4.575235748E0,-8.766819305E0,2.203118591E0,1.013131948E1
5.212245000E0,4.690645752E0,-8.295449524E0,1.539249115E0,9.653285876E0
5.222288000E0,5.328918457E0,-8.090825043E0,1.055006104E0,9.745350670E0
5.232330000E0,5.884113922E0,-8.083340607E0,8.572673035E-1,1.003484426E1
5.242373625E0,6.344257050E0,-8.385113068E0,9.321116638E-1,1.055597228E1
5.252416625E0,6.812183990E0,-8.955876160E0,1.221909027E0,1.131841995E1
5.262459625E0,7.147037659E0,-9.470206604E0,1.524429932E0,1.196197505E1
5.272502625E0,7.264842682E0,-9.808802490E0,1.509610748E0,1.229916542E1
5.282545625E0,6.913672943E0,-9.911638641E0,1.257085876E0,1.214988556E1
5.292588625E0,6.696324921E0,-1.022733215E1,1.041534119E0,1.226881754E1
5.302630625E0,7.241790619E0,-1.115540222E1,8.271798706E-1,1.332556778E1
5.312673625E0,7.934849396E0,-1.229558121E1,-6.990463257E-2,1.463379783E1
5.322716625E0,8.280480652E0,-1.335462891E1,-4.383933563E0,1.631353262E1
5.332759625E0,1.042028091E1,-1.427266983E1,-1.042866348E1,2.051946345E1
5.342802625E0,1.176957504E1,-1.414977539E1,-1.007914032E1,2.098399652E1
5.352845625E0,9.793534241E0,-1.310225372E1,-8.488997040E0,1.842947195E1
5.362888625E0,7.900570679E0,-1.180340469E1,-7.704777832E0,1.615868128E1
5.372930625E0,7.124584351E0,-1.119222565E1,-3.583847351E0,1.374298290E1
5.382973625E0,6.656507721E0,-1.070304291E1,1.263073425E0,1.266726399E1
5.393016625E0,6.339317322E0,-1.068103867E1,4.388873291E0,1.317322056E1
5.403059625E0,5.864804077E0,-1.147364044E1,5.943540344E0,1.419034967E1
5.413102625E0,5.841003571E0,-1.259106674E1,5.658083954E0,1.498886915E1
5.423145625E0,5.764362946E0,-1.352033432E1,5.126389618E0,1.556621954E1
5.433188625E0,5.879323883E0,-1.453507416E1,4.458328857E0,1.630066030E1
5.443230625E0,6.280489655E0,-1.542377609E1,4.164938965E0,1.716636641E1
5.453273625E0,6.868466949E0,-1.556193878E1,4.432582397E0,1.757832653E1
5.463316625E0,7.099586334E0,-1.503488480E1,4.890480194E0,1.733114778E1
5.473359625E0,6.672075348E0,-1.422761353E1,5.178780670E0,1.654573496E1
5.483402625E0,5.960455170E0,-1.324790085E1,5.354066162E0,1.548224555E1
5.493445625E0,4.602329407E0,-1.261980698E1,2.099384308E0,1.359589565E1
5.503488625E0,2.499202881E0,-1.251622238E1,-1.718127136E0,1.287842376E1
5.513530625E0,6.045927429E-1,-1.217702774E1,-4.204756165E-1,1.219927607E1
5.523573625E0,-3.891906738E-1,-1.162886765E1,2.264041901E0,1.185360358E1
5.533616625E0,-8.213420105E-1,-1.077654007E1,4.464765472E0,1.169369699E1
5.543659625E0,-1.019230499E0,-9.804012451E0,5.520969086E0,1.129772502E1
5.553702625E0,-1.178798676E0,-8.762628021E0,5.943091278E0,1.065333516E1
5.563745625E0,-9.755213928E-1,-7.516319733E0,6.318809967E0,9.867829737E0
5.573788625E0,-4.433779907E-1,-6.167923737E0,6.196514282E0,8.754236489E0
5.583830625E0,1.616638184E-2,-4.861141205E0,5.473517761E0,7.320543139E0
5.593873625E0,5.224136353E-2,-3.881428528E0,5.178181915E0,6.471613750E0
5.603916625E0,-7.183561707E-1,-3.356021118E0,4.680167542E0,5.803695508E0
5.613959625E0,-1.342408447E0,-2.959346008E0,4.003275146E0,5.156161473E0
5.624002625E0,-1.894759827E0,-2.727328491E0,3.378175049E0,4.737140716E0
5.634045625E0,-2.189347229E0,-2.314636688E0,2.857407990E0,4.279668761E0
5.644088625E0,-2.743794250E0,-2.312241669E0,2.542762299E0,4.397784503E0
5.654130625E0,-3.665427704E0,-2.590513000E0,2.364782410E0,5.073294167E0
5.664173625E0,-4.402494965E0,-2.771935730E0,2.111808472E0,5.614741724E0
5.674216625E0,-4.763993225E0,-2.739902344E0,1.639091492E0,5.734920856E0
5.684259625E0,-4.638703766E0,-2.575993195E0,1.484912109E0,5.509834620E0
5.694302625E0,-3.691323853E0,-2.561473389E0,1.276096344E0,4.670700117E0
5.704345625E0,-1.434017944E0,-2.960393829E0,-3.412902832E-1,3.307086051E0
5.714387625E0,1.385219421E0,-4.689597931E0,-4.683161316E0,6.770757824E0
5.724430625E0,7.898624725E0,-7.464976501E0,-2.189901077E1,2.444751152E1
5.734473625E0,1.633882324E1,-1.182750458E1,-2.970482849E1,3.590576340E1
5.744516625E0,1.696317490E1,-1.664179321E1,-9.419911194E0,2.556234165E1
5.754559625E0,1.641291916E1,-2.101120697E1,-2.979853363E0,2.682786350E1
5.764602625E0,1.514281036E1,-2.318693253E1,-5.989943848E0,2.833404265E1
5.774645625E0,1.166509232E1,-1.989048752E1,-5.601202240E0,2.372929285E1
5.784687625E0,9.052874451E0,-1.200907700E1,-2.785856781E0,1.529488359E1
5.794730625E0,7.337142334E0,-7.334897003E0,-5.255570984E-1,1.038800183E1
5.804773625E0,5.069058838E0,-5.248984680E0,1.102906494E0,7.379945827E0
5.814816625E0,2.426154785E0,-4.008663940E0,1.302441559E0,4.863328864E0
5.824859625E0,5.771997070E-1,-4.662953339E0,7.524851990E-1,4.758416471E0
5.834902625E0,-2.125579834E-2,-7.134912872E0,6.855743408E-1,7.167806197E0
5.844945625E0,1.115180969E-1,-1.021386017E1,1.691482544E-1,1.021586937E1
5.854987625E0,1.429826660E0,-1.390608215E1,-3.237168274E0,1.434931300E1
5.865030625E0,4.150269470E0,-1.741283981E1,-6.644981689E0,1.909417473E1
5.875073625E0,5.778433685E0,-1.919353683E1,-4.536017303E0,2.055134071E1
5.885116625E0,5.072801056E0,-1.782493286E1,-6.227050781E-1,1.854317405E1
5.895159625E0,3.014431458E0,-1.326167221E1,4.194577332E0,1.423211951E1
5.905202625E0,8.482859802E-1,-8.771609344E0,8.935817871E0,1.255028130E1
5.915245625E0,-9.599537659E-1,-6.571933594E0,8.649463348E0,1.090527572E1
5.925287625E0,-1.857786713E0,-5.812263336E0,5.448370056E0,8.180373636E0
5.935330625E0,-1.860930176E0,-5.558540955E0,3.509302368E0,6.831957390E0
5.945373625E0,-1.016236725E0,-5.705385590E0,2.293680267E0,6.232586219E0
5.955416625E0,-6.197113037E-2,-6.557713165E0,1.835632782E0,6.810065351E0
5.965459625E0,3.357518005E-1,-7.738457794E0,2.076781311E0,8.019319106E0
5.975502625E0,5.144801331E-1,-8.755742340E0,2.715952148E0,9.181726951E0
5.985545625E0,8.415499878E-1,-9.879156189E0,3.660637665E0,1.056911545E1
5.995587625E0,1.308429108E0,-1.089748856E1,4.577780457E0,1.189215361E1
6.005630625E0,1.892065430E0,-1.149115402E1,5.063220978E0,1.269892669E1
6.015673625E0,2.445314941E0,-1.187495590E1,5.414241028E0,1.327810788E1
6.025716625E0,3.320844269E0,-1.159997772E1,5.240153046E0,1.315472135E1
6.035759625E0,4.411027222E0,-1.128009293E1,5.012626190E0,1.310816840E1
6.045802625E0,5.163063354E0,-1.085228256E1,4.777914276E0,1.293281581E1
6.055845625E0,5.517975311E0,-1.035307068E1,4.476740570E0,1.255688378E1
6.065887625E0,5.754483490E0,-9.880952454E0,4.139192505E0,1.216060098E1
6.075930625E0,5.729335785E0,-9.565408630E0,4.149521027E0,1.189709442E1
6.085973625E0,6.119424591E0,-9.591454468E0,3.748205566E0,1.197883137E1
6.096016625E0,6.829847260E0,-9.783654785E0,2.604134674E0,1.221262592E1
6.106059625E0,7.173532562E0,-9.685608673E0,1.510508881E0,1.214710755E1
6.116102625E0,6.680008850E0,-9.268426208E0,5.725593567E-1,1.143914625E1
6.126144625E0,5.800886993E0,-8.385562134E0,-4.320016479E-1,1.020561452E1
6.136187625E0,4.234843597E0,-7.322173462E0,-4.004772034E0,9.358756517E0
6.146230625E0,1.370250549E0,-5.776038666E0,-1.265303787E1,1.397639355E1
6.156273625E0,2.286944275E0,-5.734425201E0,-8.546926575E0,1.054341977E1
6.166316625E0,4.295317841E0,-6.171815643E0,-2.468516693E0,7.914204846E0
6.176359625E0,4.711751862E0,-6.110443268E0,5.707630920E-1,7.737176038E0
6.186402625E0,3.597918091E0,-6.281088409E0,1.148711243E0,7.329162552E0
6.196444625E0,2.713706818E0,-6.871760101E0,1.299597473E0,7.501616171E0
6.206487625E0,2.119442596E0,-7.618706818E0,1.562001801E0,8.060805178E0
6.216530625E0,2.233954468E0,-8.465196533E0,1.691781921E0,8.916963103E0
6.226573625E0,3.181783447E0,-9.339079285E0,1.842967529E0,1.003686590E1
6.236616625E0,4.136797485E0,-9.875413971E0,2.051783295E0,1.090168378E1
6.246658708E0,4.783901825E0,-9.926308136E0,2.184108124E0,1.123332712E1
6.256701708E0,5.139113159E0,-9.587562561E0,2.053130493E0,1.107010319E1
6.266743708E0,5.431455231E0,-9.300309906E0,1.782193909E0,1.091662427E1
6.276786708E0,5.486540680E0,-9.117539978E0,1.534010010E0,1.075103951E1
6.286829708E0,5.651797028E0,-9.057365112E0,1.364113312E0,1.076287497E1
6.296872708E0,6.060896301E0,-9.216633911E0,1.212328949E0,1.109732157E1
6.306915708E0,6.739435272E0,-9.616452484E0,1.121467896E0,1.179634844E1
6.316958708E0,7.571405182E0,-9.997260590E0,9.261241150E-1,1.257493943E1
6.327001708E0,8.175399170E0,-1.026191025E1,2.508782959E-1,1.312276242E1
6.337043708E0,8.489446106E0,-1.061517563E1,-1.460662537E0,1.367063217E1
6.347086708E0,9.396709442E0,-1.141346558E1,-3.914958801E0,1.529353613E1
6.357129708E0,1.038465500E1,-1.217942276E1,-5.375621338E0,1.688421461E1
6.367172708E0,1.072968750E1,-1.245335312E1,-6.473288727E0,1.766679554E1
6.377215708E0,1.022808060E1,-1.217897369E1,-6.613846436E0,1.722451734E1
6.387258708E0,8.848100281E0,-1.164054337E1,-7.156767426E0,1.627914151E1
6.397300708E0,7.634124756E0,-1.154579041E1,-7.146588593E0,1.557751153E1
6.407343708E0,6.889573059E0,-1.151779861E1,-3.342549133E0,1.383107142E1
6.417386708E0,6.766379242E0,-1.169967041E1,1.082249451E0,1.355866659E1
6.427429708E0,6.475534058E0,-1.216086136E1,3.995940399E0,1.434526507E1
6.437472708E0,6.427034912E0,-1.296663574E1,5.368436279E0,1.543569008E1
6.447515708E0,6.098917236E0,-1.389754990E1,5.357209625E0,1.609466929E1
6.457558708E0,5.489833832E0,-1.432760559E1,5.081333313E0,1.616287430E1
6.467600708E0,5.705086212E0,-1.476634323E1,4.607568512E0,1.648704306E1
6.477643708E0,6.142626343E0,-1.572569824E1,4.373605042E0,1.744012227E1
6.487686708E0,6.406677246E0,-1.626981674E1,4.446054382E0,1.804216865E1
6.497729708E0,6.057303772E0,-1.610366226E1,4.918771362E0,1.789450136E1
6.507772708E0,5.481750641E0,-1.529264877E1,5.508245544E0,1.715387611E1
6.517815708E0,4.975503387E0,-1.417357590E1,5.383405151E0,1.595703414E1
6.527858708E0,3.330873413E0,-1.284523819E1,2.223027191E0,1.345498836E1
6.537900708E0,1.406924286E0,-1.176882660E1,-9.815089417E-1,1.189319449E1
6.547943708E0,-1.954934692E-1,-1.143846359E1,-3.044668579E-1,1.144418486E1
6.557986708E0,-8.725355530E-1,-1.060110489E1,5.099894714E-1,1.064917050E1
6.568029708E0,-1.905986481E0,-9.917476501E0,1.863624573E0,1.026948008E1
6.578072708E0,-2.046693878E0,-9.084458771E0,3.121159515E0,9.821302546E0
6.588115708E0,-1.527872772E0,-7.976762238E0,4.194876709E0,9.141122557E0
6.598158708E0,-8.641529846E-1,-7.050039368E0,5.293741608E0,8.858527850E0
6.608200708E0,-1.302291870E-1,-6.273454285E0,5.968688049E0,8.660163124E0
6.618243708E0,4.739144897E-1,-5.328319702E0,5.401367798E0,7.601997098E0
6.628286708E0,6.512956238E-1,-4.387226715E0,4.808301086E0,6.541536790E0
6.638329708E0,5.298980713E-1,-3.670068054E0,4.504732361E0,5.834621250E0
6.648372708E0,-6.346801758E-2,-3.375480652E0,4.270768890E0,5.444021008E0
6.658415708E0,-9.195378113E-1,-3.245401154E0,4.021387482E0,5.248784213E0
6.668458708E0,-1.807042236E0,-3.195704498E0,3.780238953E0,5.269547933E0
6.678500708E0,-2.754571838E0,-3.269051971E0,3.472928009E0,5.507775936E0
6.688543708E0,-3.572770386E0,-3.375330963E0,3.099454651E0,5.810694147E0
6.698586708E0,-4.207151184E0,-3.542233887E0,2.553689575E0,6.063734199E0
6.708629708E0,-4.534969482E0,-3.585344238E0,1.785786438E0,6.050592923E0
6.718672708E0,-4.617447968E0,-3.541635132E0,1.049018555E0,5.913074079E0
6.728715708E0,-4.134252777E0,-3.478017426E0,1.136736145E0,5.520943787E0
6.738757708E0,-3.367397461E0,-3.738625488E0,1.571432190E0,5.271250832E0
6.748800708E0,-2.211201782E0,-4.812342682E0,-4.819976807E-2,5.296260816E0
6.758843708E0,3.112028503E-1,-6.769223328E0,-3.652404785E0,7.698005741E0
6.768886708E0,5.832770691E0,-9.572893066E0,-1.621278534E1,1.971080678E1
6.778929708E0,1.563348999E1,-1.431937271E1,-3.137535461E1,3.786638775E1
6.788972708E0,1.778346909E1,-1.923245590E1,-1.519924301E1,3.028458553E1
6.799015708E0,1.660122757E1,-2.237487122E1,-2.972518616E0,2.801912714E1
6.809057708E0,1.600905899E1,-2.283321808E1,-3.411256256E0,2.809417176E1
6.819100708E0,1.302366714E1,-1.879925674E1,-4.574936371E0,2.332290726E1
6.829143708E0,8.893905029E0,-1.110899872E1,-3.257076874E0,1.459862832E1
6.839186708E0,5.906118164E0,-6.609206085E0,-7.686515808E-1,8.896890586E0
6.849229708E0,3.320993958E0,-4.543352051E0,1.053060150E0,5.725380721E0
6.859272708E0,8.238867188E-1,-3.033741302E0,1.526375885E0,3.494595679E0
6.869314708E0,-8.729846191E-1,-2.542013855E0,1.556912384E0,3.106108941E0
6.879357708E0,-1.696122894E0,-3.891008606E0,1.347647552E0,4.453418324E0
6.889400708E0,-2.009271698E0,-7.260950775E0,1.138981476E0,7.619439462E0
6.899443708E0,-1.761836243E0,-1.126736938E1,-2.665956116E-1,1.140739905E1
6.909486708E0,9.198371887E-1,-1.698353256E1,-8.477920074E0,1.900425235E1
6.919529708E0,5.820945282E0,-2.208776825E1,-1.015039215E1,2.499566705E1
6.929572708E0,7.354506226E0,-2.289444077E1,-3.168910217E0,2.425461135E1
6.939614708E0,4.773273926E0,-1.803240143E1,4.508324890E0,1.919053513E1
6.949657708E0,1.597927094E0,-1.174816956E1,1.006626709E1,1.555321806E1
6.959700708E0,-6.542893982E-1,-7.766748962E0,1.008677444E1,1.274729394E1
6.969743708E0,-1.820065155E0,-5.601202240E0,7.191944275E0,9.295706867E0
6.979786708E0,-1.987117767E0,-4.526137848E0,4.681065674E0,6.807858451E0
6.989829708E0,-1.473535767E0,-4.393064575E0,2.920127563E0,5.476994523E0
6.999872708E0,-5.950126648E-1,-5.002447357E0,1.980232086E0,5.412932546E0
7.009914708E0,1.592687988E-1,-6.032754822E0,1.807790680E0,6.299809873E0
7.019957708E0,7.360194397E-1,-7.565717010E0,2.188748474E0,7.910272965E0
7.030000708E0,1.307381287E0,-9.509574738E0,3.167712708E0,1.010819773E1
7.040043708E0,2.159110107E0,-1.130748596E1,4.225263519E0,1.226270146E1
7.050086708E0,3.139271851E0,-1.274943741E1,5.066364441E0,1.407377812E1
7.060129708E0,4.110601959E0,-1.360865067E1,5.660628662E0,1.530147504E1
7.070172708E0,5.003046112E0,-1.359712463E1,5.854325867E0,1.562643274E1
7.080214708E0,5.428012390E0,-1.247191452E1,5.481002197E0,1.466469759E1
7.090257708E0,5.290448456E0,-1.096679443E1,5.335804138E0,1.329399228E1
7.100300708E0,5.057981873E0,-9.617949371E0,4.982239380E0,1.195453219E1
7.110343708E0,5.228926392E0,-9.034013672E0,3.548071747E0,1.102469443E1
7.120386708E0,5.449268188E0,-8.902137909E0,2.299518127E0,1.068786072E1
7.130429708E0,5.472020874E0,-8.671317902E0,1.514101410E0,1.036471272E1
7.140471708E0,5.048252106E0,-8.180338898E0,8.126600647E-1,9.646927500E0
7.150514708E0,4.472549286E0,-7.448061676E0,2.682421875E-1,8.691908520E0
7.160557708E0,3.907474365E0,-6.894063721E0,-3.588038635E-1,7.932541252E0
7.170600708E0,2.864593048E0,-6.693031769E0,-2.808908844E0,7.803366997E0
7.180643708E0,8.619076538E-1,-6.845564575E0,-8.807235260E0,1.118803075E1
7.190686708E0,1.895059204E0,-7.222031708E0,-6.764732666E0,1.007524687E1
7.200729708E0,3.808679810E0,-7.477999420E0,-2.729274445E0,8.824707146E0
7.210771708E0,4.430935822E0,-7.540269928E0,1.580712891E-1,8.747219522E0
7.220814708E0,4.218228149E0,-7.639513550E0,1.132844238E0,8.799940458E0
7.230857708E0,3.758534088E0,-7.885452118E0,1.327140198E0,8.835623051E0
7.240900708E0,3.382815399E0,-8.418793030E0,1.486109619E0,9.193913090E0
7.250943833E0,3.542533264E0,-9.221423950E0,1.620979156E0,1.001058315E1
7.260986833E0,4.016148376E0,-1.010877869E1,1.713636475E0,1.101151235E1
7.271028833E0,4.462071075E0,-1.075094330E1,1.786085815E0,1.177637307E1
7.281071833E0,4.787194977E0,-1.095901062E1,1.867366791E0,1.210389228E1
7.291114833E0,4.927004242E0,-1.044947021E1,1.769769745E0,1.168755250E1
7.301157833E0,4.944218445E0,-9.485624542E0,1.034199371E0,1.074671751E1
7.311200833E0,4.864284668E0,-8.414302368E0,-3.581602020E0,1.035807041E1
7.321243833E0,5.119503937E0,-7.851023712E0,-9.163344727E0,1.310781372E1
7.331286833E0,5.572462006E0,-8.527317352E0,-4.287384338E0,1.105211014E1
7.341328833E0,5.613476715E0,-9.566905518E0,7.726931763E-1,1.111907625E1
7.351371833E0,5.470224609E0,-1.024095383E1,2.654879150E0,1.191003257E1
7.361414833E0,5.417833557E0,-1.059032730E1,3.014132080E0,1.227163172E1
7.371457833E0,5.756579132E0,-1.060694275E1,2.768043823E0,1.238174077E1
7.381500833E0,6.027815094E0,-1.025981461E1,2.415227509E0,1.214214456E1
7.391543833E0,6.636748810E0,-1.013662079E1,1.808838501E0,1.225028214E1
7.401586833E0,8.361462250E0,-1.058778259E1,-6.755451965E-1,1.350820316E1
7.411628833E0,1.078761703E1,-1.079899338E1,-7.191794586E0,1.687343618E1
7.421671833E0,1.203826630E1,-1.051308792E1,-1.040142014E1,1.906920066E1
7.431714833E0,1.169068909E1,-1.026535309E1,-7.560028839E0,1.729750622E1
7.441757833E0,1.054317535E1,-1.031145721E1,-4.266427917E0,1.535210421E1
7.451800833E0,9.500892792E0,-1.074555450E1,-2.883004761E0,1.463029808E1
7.461843833E0,7.942483521E0,-1.137559433E1,-1.305135956E0,1.393522769E1
7.471886833E0,6.863826599E0,-1.247071701E1,8.837622070E-1,1.426225557E1
7.481928833E0,6.361321564E0,-1.408421173E1,2.684367828E0,1.568557499E1
7.491971833E0,6.006858673E0,-1.566028427E1,3.787124634E0,1.719503322E1
7.502014833E0,4.775070190E0,-1.639989624E1,4.664450226E0,1.770635445E1
7.512057833E0,3.901337128E0,-1.663715286E1,4.994663544E0,1.780342525E1
7.522100833E0,3.969295807E0,-1.699311264E1,5.015170898E0,1.815690297E1
7.532143833E0,4.134252777E0,-1.723950027E1,5.202730865E0,1.847595259E1
7.542185833E0,3.984264679E0,-1.714025665E1,5.788612518E0,1.852486972E1
7.552228833E0,3.642076263E0,-1.612671432E1,6.606511688E0,1.780397796E1
7.562271833E0,2.890339508E0,-1.417177963E1,7.078779602E0,1.610287307E1
7.572314833E0,1.927391968E0,-1.223166412E1,6.698121185E0,1.407811331E1
7.582357833E0,1.746717682E0,-1.060349991E1,4.593647461E0,1.168703683E1
7.592400833E0,1.846410370E0,-9.762698364E0,-1.323248291E-1,9.936650364E0
7.602443833E0,1.512754211E0,-9.145681458E0,-3.298840027E0,9.839423771E0
7.612485833E0,7.517367554E-1,-8.477620697E0,-9.083111572E-1,8.559216669E0
7.622528833E0,1.444496155E-1,-7.575746155E0,1.837728424E0,7.796796859E0
7.632571833E0,7.783813477E-3,-6.828799438E0,3.851939850E0,7.840280796E0
7.642614833E0,-1.118174744E-1,-6.102060699E0,5.310955811E0,8.090358431E0
7.652657833E0,-7.110214233E-2,-5.250182190E0,5.777834930E0,7.807230304E0
7.662700833E0,2.477348328E-1,-4.654121704E0,5.237758026E0,7.011157574E0
7.672743833E0,2.794688416E-1,-4.328848114E0,4.406686249E0,6.183519429E0
7.682785833E0,-9.610015869E-2,-4.058210907E0,3.532204742E0,5.380964723E0
7.692828833E0,-6.867718506E-1,-3.834426270E0,3.047961731E0,4.946165293E0
7.702871833E0,-1.349294128E0,-3.740721130E0,3.146157532E0,5.070689937E0
7.712914833E0,-1.944306793E0,-3.693868561E0,3.154989166E0,5.232489894E0
7.722957833E0,-2.440375214E0,-3.761228485E0,2.909200287E0,5.344690563E0
7.733000833E0,-3.004402313E0,-3.959116974E0,2.466870117E0,5.548557348E0
7.743042833E0,-3.506907349E0,-4.201762390E0,2.114502869E0,5.867224959E0
7.753085833E0,-3.904480591E0,-4.403991852E0,1.786834259E0,6.150844624E0
7.763128833E0,-4.190835114E0,-4.561314697E0,1.365610199E0,6.342994713E0
7.773171833E0,-4.330345001E0,-4.793481903E0,8.957373047E-1,6.521633377E0
7.783214833E0,-3.983366547E0,-4.977898407E0,5.616320801E-1,6.400165013E0
7.793257833E0,-3.269201660E0,-5.207670593E0,2.932402039E-1,6.155769840E0
7.803300833E0,-2.211800537E0,-5.927373962E0,-2.646496582E-1,6.332129432E0
7.813342833E0,4.589456177E-1,-7.594906311E0,-4.204456787E0,8.693140389E0
7.823385833E0,6.480773163E0,-1.006117767E1,-1.755983414E1,2.125030569E1
7.833428833E0,1.490300903E1,-1.397598679E1,-2.782339096E1,3.451911021E1
7.843471833E0,1.633059036E1,-1.874761414E1,-1.360715378E1,2.834282716E1
7.853514833E0,1.537961792E1,-2.262649796E1,-3.777095490E0,2.761806487E1
7.863557833E0,1.419872360E1,-2.374916336E1,-3.113824768E0,2.784461199E1
7.873599833E0,1.165521286E1,-2.046918411E1,-3.525768127E0,2.381727369E1
7.883642833E0,1.036579422E1,-1.361628479E1,-2.506837006E0,1.729558132E1
7.893685833E0,8.073760529E0,-7.450007629E0,-1.329235840E-1,1.098662330E1
7.903728833E0,5.573809204E0,-4.434977417E0,2.067949677E0,7.417060711E0
7.913771833E0,3.801045685E0,-2.863694916E0,3.149600372E0,5.706897526E0
7.923814833E0,2.502795410E0,-2.623594208E0,2.189646606E0,4.235774273E0
7.933857833E0,1.939367065E0,-4.611610107E0,3.772155762E-2,5.002950661E0
7.943899833E0,2.130070496E0,-7.808063049E0,-5.038522339E-1,8.109063816E0
7.953942833E0,2.722987518E0,-1.073223221E1,-4.014651489E-1,1.107955971E1
7.963985833E0,3.017874298E0,-1.325643311E1,-4.649331665E-1,1.360355640E1
7.974028833E0,3.101699982E0,-1.553364761E1,-7.872129822E-1,1.585983781E1
7.984071833E0,3.246898041E0,-1.662203430E1,6.825805664E-2,1.693632281E1
7.994114833E0,2.920277252E0,-1.587134537E1,2.361938324E0,1.630970189E1
8.004157833E0,1.729653168E0,-1.400547546E1,4.625830536E0,1.485070204E1
8.014199833E0,1.411564636E-1,-1.180535065E1,5.579048309E0,1.305802470E1
8.024242833E0,-8.592132568E-1,-9.752818909E0,5.284460907E0,1.112570228E1
8.034285833E0,-1.237626343E0,-8.264014893E0,4.471202087E0,9.477199439E0
8.044328833E0,-1.336720276E0,-7.301366730E0,3.321592712E0,8.132020374E0
8.054371833E0,-9.868977356E-1,-6.876699829E0,2.396067352E0,7.348748631E0
8.064414833E0,-2.793191528E-1,-7.013814697E0,1.753453674E0,7.235068457E0
8.074456833E0,1.209484863E-1,-7.546556854E0,1.543739777E0,7.703783576E0
8.084499833E0,3.867956543E-1,-8.292006683E0,1.564845886E0,8.447231994E0
8.094542833E0,9.092092896E-1,-9.234746246E0,1.734143829E0,9.440045264E0
8.104585833E0,1.692081299E0,-9.969268799E0,2.215542755E0,1.035171914E1
8.114628833E0,2.475851440E0,-1.025906616E1,2.844385071E0,1.093017865E1
8.124671833E0,3.193459167E0,-1.037312897E1,3.283571777E0,1.133939283E1
8.134714833E0,3.964505768E0,-1.042566971E1,3.588038635E0,1.171690728E1
8.144756833E0,4.648732910E0,-1.045575714E1,3.861220551E0,1.207653093E1
8.154799833E0,4.973707123E0,-1.012299911E1,4.242777100E0,1.205047846E1
8.164842833E0,5.166655884E0,-9.506281586E0,4.313280487E0,1.164766548E1
8.174885833E0,5.542973328E0,-9.061257019E0,3.576961670E0,1.120828207E1
8.184928833E0,5.767356720E0,-8.814869385E0,2.571352844E0,1.084325510E1
8.194971833E0,5.742957458E0,-8.718769226E0,1.627864838E0,1.056638259E1
8.205014833E0,5.528752899E0,-8.503666534E0,7.083270264E-1,1.016765363E1
8.215056833E0,5.216053162E0,-8.186775513E0,-2.100132751E-1,9.709511288E0
8.225099833E0,4.551884308E0,-7.500303040E0,-1.885479126E0,8.973807886E0
8.235142833E0,3.269950104E0,-6.316864014E0,-5.840255127E0,9.203473507E0
8.245185958E0,3.395389252E0,-5.855822754E0,-4.989424438E0,8.409142913E0
8.255228958E0,4.334386597E0,-6.211932220E0,-1.498683472E0,7.721467557E0
8.265271958E0,4.574936371E0,-6.710245972E0,6.947053528E-1,8.151077188E0
8.275313958E0,4.049828339E0,-7.166796570E0,1.213077393E0,8.320795599E0
8.285356958E0,3.384611664E0,-7.397167511E0,1.354832611E0,8.246772381E0
8.295399958E0,2.871179352E0,-7.693401489E0,1.421593781E0,8.333848224E0
8.305442958E0,2.867736511E0,-8.268355865E0,1.443448334E0,8.869789429E0
8.315485958E0,3.253783722E0,-8.964258728E0,1.502725067E0,9.654181772E0
8.325528958E0,3.629352722E0,-9.447453918E0,1.620979156E0,1.024959317E1
8.335571958E0,3.566034393E0,-9.736502838E0,1.723964996E0,1.051133408E1
8.345613958E0,3.219205627E0,-9.886790314E0,1.643432465E0,1.052676483E1
8.355656958E0,2.848875732E0,-9.795180817E0,1.367406464E0,1.029230104E1
8.365699958E0,2.700234833E0,-9.496402130E0,1.047521667E0,9.928253785E0
8.375742958E0,2.669698334E0,-9.083710327E0,8.969348145E-1,9.510287828E0
8.385785958E0,2.565365295E0,-8.822204132E0,8.634045410E-1,9.228101227E0
8.395828958E0,2.592608643E0,-8.797954559E0,9.219328308E-1,9.218220227E0
8.405870958E0,2.913241882E0,-8.969946899E0,1.086590424E0,9.493555940E0
8.415913958E0,3.474424896E0,-9.436376953E0,1.406325531E0,1.015355060E1
8.425956958E0,4.100273438E0,-1.002001328E1,1.768422546E0,1.096996931E1
8.435999958E0,4.614454193E0,-1.045575714E1,2.011367340E0,1.160438036E1
8.446042958E0,4.974156189E0,-1.060769119E1,2.001487885E0,1.188576022E1
8.456085958E0,5.113366699E0,-1.028002258E1,1.679956512E0,1.160377685E1
8.466128958E0,5.382207642E0,-9.944570160E0,-6.246510315E-1,1.132487632E1
8.476170958E0,5.873486023E0,-1.044138702E1,-5.172793121E0,1.304906854E1
8.486213958E0,6.597829742E0,-1.133398087E1,-3.624263306E0,1.360609290E1
8.496256958E0,6.568041687E0,-1.184861069E1,3.263214111E-2,1.354731751E1
8.506299958E0,6.741680603E0,-1.191597061E1,7.415579224E-1,1.371096354E1
8.516342958E0,7.544161835E0,-1.164712967E1,-3.902384949E-1,1.388244551E1
8.526385958E0,8.342601471E0,-1.108519821E1,-2.266885986E0,1.405771641E1
8.536427958E0,8.644822998E0,-1.060140427E1,-3.606450348E0,1.414670355E1
8.546470958E0,7.907156982E0,-1.042072998E1,-3.336112518E0,1.349979228E1
8.556513958E0,6.648723907E0,-1.036459671E1,-1.599423981E0,1.241726828E1
8.566556958E0,5.352868652E0,-1.055410263E1,2.014810181E-1,1.183566136E1
8.576599958E0,4.274361420E0,-1.118369339E1,1.277593231E0,1.204065645E1
8.586642958E0,3.479664001E0,-1.205907303E1,2.393073578E0,1.277717124E1
8.596685958E0,2.807262268E0,-1.289628204E1,3.300785980E0,1.360477857E1
8.606727958E0,2.641556854E0,-1.351539459E1,3.959116974E0,1.432893300E1
8.616770958E0,2.789748688E0,-1.392868515E1,4.294419708E0,1.484024961E1
8.626813958E0,2.632874908E0,-1.425710220E1,4.647834778E0,1.522495851E1
8.636856958E0,2.411185913E0,-1.427341827E1,4.996908875E0,1.531382986E1
8.646899958E0,2.016157379E0,-1.396505951E1,5.200186157E0,1.503760997E1
8.656942958E0,1.257235565E0,-1.310210403E1,5.178780670E0,1.414445264E1
8.666984958E0,4.450245667E-1,-1.251906647E1,5.674849091E0,1.375241740E1
8.677027958E0,-2.936892700E-1,-1.242775635E1,5.307662659E0,1.351690290E1
8.687070958E0,-9.566606140E-1,-1.165206940E1,3.413501587E0,1.217940532E1
8.697113958E0,-1.692979431E0,-1.132993927E1,7.948471069E-1,1.148326979E1
8.707156958E0,-2.001038818E0,-1.063074326E1,-3.740721130E-1,1.082389895E1
8.717199958E0,-1.815724182E0,-9.663903809E0,9.475296021E-1,9.878547640E0
8.727242958E0,-1.422192535E0,-8.987759857E0,2.947520599E0,9.565058104E0
8.737284958E0,-9.500743103E-1,-8.365952911E0,4.417463837E0,9.508196257E0
8.747327958E0,-7.021897888E-1,-7.549850006E0,5.379662933E0,9.296993003E0
8.757370958E0,-6.855743408E-1,-7.002138977E0,5.722749481E0,9.069168873E0
8.767413958E0,-5.144801331E-1,-6.582711182E0,5.459297333E0,8.567421063E0
8.777456958E0,-2.534230042E-1,-6.261329498E0,4.701423340E0,7.834018874E0
8.787499958E0,-2.089654541E-1,-6.247109070E0,3.677103424E0,7.251974068E0
8.797542958E0,-3.424877930E-1,-6.280040588E0,2.590962067E0,6.802153491E0
8.807584958E0,-8.957373047E-1,-6.928492126E0,1.708846436E0,7.192114057E0
8.817627958E0,-1.106199646E0,-8.157286835E0,1.008153534E0,8.293454028E0
8.827670958E0,-8.631051636E-1,-9.701625366E0,8.164022827E-1,9.774098319E0
8.837713958E0,4.207749939E-1,-1.053943314E1,1.109941864E0,1.060606776E1
8.847756958E0,1.529968414E0,-1.088835754E1,1.303040314E0,1.107226478E1
8.857799958E0,2.380948792E0,-1.070798264E1,1.088985443E0,1.102341592E1
8.867841958E0,2.617307281E0,-1.081321381E1,4.101470947E-1,1.113301895E1
8.877884958E0,2.342179413E0,-1.130374374E1,-4.858895874E-1,1.155406923E1
8.887927958E0,1.952240295E0,-1.209963867E1,-1.276096344E0,1.232237477E1
8.897970958E0,1.902843018E0,-1.213376770E1,-1.786385193E0,1.241129736E1
8.908013958E0,2.183509369E0,-9.976304169E0,-2.148482208E0,1.043601139E1
8.918056958E0,1.757046204E0,-7.560627594E0,-2.619552612E0,8.192213185E0
8.928099958E0,1.584155731E0,-5.701942749E0,-3.220852203E0,6.737624909E0
8.938141958E0,2.162403259E0,-5.042264557E0,-6.493197327E0,8.500707691E0
8.948184958E0,2.737058258E0,-6.102060699E0,-8.826245728E0,1.107380903E1
8.958227958E0,7.435038757E-1,-6.944359131E0,-5.362748108E0,8.805452233E0
8.968270958E0,-7.159611511E-1,-7.190746765E0,-2.898273010E0,7.785847793E0
8.978313958E0,-9.360035706E-1,-7.497608643E0,-1.821562042E0,7.772279351E0
8.988356958E0,-6.366261292E-1,-7.630382538E0,-1.362915802E0,7.777246941E0
8.998398958E0,-1.338217163E-1,-7.552544403E0,-9.376501465E-1,7.611703030E0
9.008441958E0,3.192860413E-1,-7.841144257E0,-7.655081177E-1,7.884889949E0
9.018484958E0,6.815327454E-1,-8.702752533E0,-5.879772949E-1,8.749177437E0
9.028527958E0,1.112785950E0,-9.700727234E0,-2.805166626E-1,9.768371975E0
9.038570958E0,1.403182068E0,-1.066397415E1,2.637515259E-1,1.075912773E1
9.048613958E0,1.619182892E0,-1.165012344E1,8.716374207E-1,1.179435803E1
9.058656958E0,2.514920197E0,-1.003333557E1,8.515791321E-1,1.037872021E1
9.068698958E0,1.812281342E0,-1.127904510E1,1.047222290E0,1.147161264E1
9.078741958E0,1.601669312E-1,-1.381537079E1,1.485959930E0,1.389597785E1
9.088784958E0,-1.422641602E0,-1.487067627E1,1.431622925E0,1.500701389E1
9.098827958E0,-2.759810944E0,-1.412208298E1,1.171613617E0,1.443684393E1
9.108870958E0,-3.444936218E0,-1.226279938E1,4.914280701E-1,1.274697359E1
9.118913958E0,-3.276237030E0,-1.021386017E1,-2.989283752E-1,1.073061167E1
9.128955958E0,-2.808459778E0,-8.567882996E0,-5.933660889E-1,9.035936513E0
9.138998958E0,-2.684816895E0,-8.615484009E0,-3.561094666E-1,9.031147237E0
9.149041958E0,-1.923050995E0,-8.545279999E0,1.781295776E-2,8.759009801E0
9.159084958E0,-9.286688232E-1,-7.689509583E0,2.903961182E-1,7.750826621E0
9.169127958E0,-2.538720703E-1,-7.818541260E0,-2.817141724E-1,7.827732835E0
9.179170958E0,7.583230591E-1,-8.027506714E0,-6.997947693E-1,8.093554882E0
9.189212958E0,1.954785004E0,-8.288863220E0,-5.993536377E-1,8.537310038E0
9.199255958E0,1.918260956E0,-9.257947998E0,-6.692582703E-1,9.478250517E0
9.209298958E0,1.174308014E0,-1.100406693E1,-4.571493530E-1,1.107598635E1
9.219341958E0,9.608518982E-1,-1.195234497E1,8.204438782E-1,1.201893984E1
9.229384958E0,1.452130280E0,-1.199904785E1,3.248843994E0,1.251562300E1
9.239427958E0,1.685045929E0,-1.322200470E1,5.469775543E0,1.440761023E1
9.249471583E0,8.020321655E-1,-1.542123138E1,5.876779175E0,1.652253511E1
9.259513583E0,-1.050216064E0,-1.731973343E1,5.400769043E0,1.817262849E1
9.269556583E0,-2.462828522E0,-1.708831467E1,4.435127106E0,1.782544179E1
9.279599583E0,-3.422333221E0,-1.560310318E1,3.184477844E0,1.628834223E1
9.289642583E0,-3.067720642E0,-1.349159409E1,1.957778778E0,1.397379400E1
9.299685583E0,-1.115929413E0,-1.002225861E1,-1.059796143E0,1.013973046E1
9.309728583E0,9.260043640E0,-7.385192413E0,-1.930595306E1,2.264970858E1
9.319770583E0,1.035441788E1,-9.160650330E0,-1.601250183E1,2.115494502E1
9.329813583E0,4.407584381E0,-1.099313965E1,-6.208938446E0,1.337261515E1
9.339856583E0,1.479523315E0,-1.071067703E1,-1.036594391E0,1.086195745E1
9.349899583E0,1.607656860E-1,-9.143735504E0,4.162993011E0,1.004809710E1
9.359942583E0,-1.571731567E-1,-1.022957748E1,7.617509308E0,1.275521097E1
9.369985583E0,1.173110504E0,-1.230785568E1,8.531508636E0,1.502152254E1
9.380028583E0,3.908971252E0,-1.201087326E1,5.576653290E0,1.380725152E1
9.390070583E0,6.063141632E0,-1.054257660E1,-4.215234375E-1,1.216902995E1
9.400113583E0,6.034551086E0,-9.638456726E0,-3.048261108E0,1.177317080E1
9.410156583E0,5.146298218E0,-1.013482452E1,-2.444416809E0,1.162644516E1
9.420199583E0,4.387376404E0,-1.082878143E1,-1.192120972E0,1.174447664E1
9.430242583E0,4.260590057E0,-1.180460220E1,2.215393066E-1,1.255190585E1
9.440285583E0,4.612807617E0,-1.257669662E1,2.282453613E0,1.358899873E1
9.450328583E0,4.609065399E0,-1.253313721E1,4.906047821E0,1.422646538E1
9.460370583E0,3.010389862E0,-1.451142334E1,3.770060120E0,1.529239052E1
9.470413583E0,1.904339905E0,-1.557406357E1,1.041234741E0,1.572457110E1
9.480456583E0,1.170416107E0,-1.572839264E1,-8.292755127E-2,1.577209833E1
9.490499583E0,8.590635681E-1,-1.496288452E1,5.089416504E-1,1.499616368E1
9.500542583E0,1.228944397E0,-1.496078888E1,1.339714050E0,1.507084410E1
9.510585583E0,1.447639618E0,-1.530776733E1,1.947899323E0,1.549895845E1
9.520627583E0,1.780397644E0,-1.473475891E1,2.771486664E0,1.509847920E1
9.530670583E0,1.211430817E0,-1.442640015E1,3.620371399E0,1.492299149E1
9.540713583E0,-2.441423035E-1,-1.394125900E1,3.993695068E0,1.450406524E1
9.550756583E0,-1.219663696E0,-1.316781738E1,2.851869507E0,1.352819847E1
9.560799583E0,-2.021845551E0,-1.233494934E1,1.137484589E0,1.255120336E1
9.570842583E0,-1.930535431E0,-1.238464600E1,-1.890568542E-1,1.253563584E1
9.580885583E0,-4.764591980E-1,-1.220367233E1,2.339634705E-1,1.221521063E1
9.590927583E0,-4.010160828E-1,-1.108265350E1,7.491920471E-1,1.111518382E1
9.600970583E0,-5.135820007E-1,-1.076471466E1,4.605921936E-1,1.078679718E1
9.611013583E0,5.284011841E-2,-1.040037231E1,1.123413849E0,1.046100354E1
9.621056583E0,1.392404480E0,-8.992849274E0,2.351909180E0,9.399021496E0
9.631099583E0,1.959275665E0,-8.859776001E0,2.108365631E0,9.315556750E0
9.641142583E0,9.994715881E-1,-1.039198975E1,1.042282562E0,1.049184194E1
9.651184583E0,-1.496887207E-3,-1.078387482E1,6.526428223E-1,1.080360592E1
9.661227583E0,-6.658154297E-1,-1.028376480E1,-4.745132446E-1,1.031621498E1
9.671270583E0,-1.872007141E0,-1.076740906E1,6.313870239E-1,1.094715297E1
9.681313583E0,9.240284729E-1,-1.060604462E1,2.271676025E0,1.088588641E1
9.691356583E0,2.135608978E0,-9.640702057E0,3.096161499E0,1.034843843E1
9.701399583E0,1.029259644E0,-1.096933914E1,4.064647522E0,1.174338691E1
9.711442583E0,4.551435242E0,-1.108355164E1,2.139351196E0,1.217117509E1
9.721484583E0,5.393733673E0,-8.410111084E0,2.240840149E-1,9.993625219E0
9.731527583E0,7.367828522E0,-7.695946198E0,-2.409988403E0,1.092339366E1
9.741570583E0,9.466314697E0,-6.160139923E0,-3.805536346E0,1.191807638E1
9.751613583E0,1.057176590E1,-4.827910309E0,-4.753365326E0,1.255648972E1
9.761656583E0,1.044782364E1,-4.474345551E0,-5.119653625E0,1.246545788E1
9.771699583E0,1.092577972E1,-4.605772247E0,-4.112248535E0,1.254975652E1
9.781741583E0,1.253613098E1,-4.157304840E0,-1.444496155E0,1.328624600E1
9.791784583E0,1.486648499E1,-3.846700745E0,1.178050232E0,1.540121050E1
9.801827583E0,1.691422668E1,-3.057691498E0,1.534908142E0,1.725678083E1
9.811870583E0,1.925401108E1,-1.554667053E0,3.243754578E-1,1.931939833E1
9.821913583E0,1.892349838E1,-9.599537659E-1,6.059399414E-1,1.895751739E1
9.831956583E0,1.869821686E1,-3.260968781E0,4.908293152E-1,1.898678868E1
9.841998583E0,1.652937698E1,-3.016676788E0,6.936575317E-1,1.681671202E1
9.852041583E0,1.363873810E1,-3.138074341E0,1.193617859E0,1.404590371E1
9.862084583E0,1.225875778E1,-3.566333771E0,1.984573059E0,1.292030995E1
9.872127583E0,1.221430023E1,-3.403472443E0,2.663411407E0,1.295633108E1
9.882170583E0,1.226145218E1,-4.573589172E0,3.095263367E0,1.344773523E1
9.892213583E0,1.020263351E1,-6.606661377E0,5.308860168E0,1.326369863E1
9.902256583E0,7.175927582E0,-7.333549805E0,8.198600922E0,1.313361894E1
9.912298583E0,5.959107971E0,-7.303162994E0,1.055559952E1,1.415160198E1
9.922341583E0,6.291117554E0,-6.791227570E0,1.170086792E1,1.492009524E1
9.932384583E0,6.493047638E0,-6.252647552E0,1.129895370E1,1.445412135E1
9.942427583E0,6.107898560E0,-6.154302063E0,9.701775055E0,1.301177536E1
9.952470583E0,5.227728882E0,-5.803880768E0,7.954757996E0,1.114864817E1
9.962513583E0,4.829556885E0,-5.562283173E0,6.614894257E0,9.900527250E0
9.972555583E0,4.431085510E0,-5.205724640E0,5.710025940E0,8.907215281E0
9.982598583E0,4.192781067E0,-5.226681061E0,5.518424377E0,8.680473236E0
9.992641583E0,4.040248260E0,-5.516179047E0,5.363346863E0,8.690070590E0
1.000268458E1,3.919599152E0,-5.035977631E0,6.031108246E0,8.780580555E0
1.001272758E1,4.056714020E0,-4.136947174E0,6.833140411E0,8.958965813E0
1.002277058E1,3.935316467E0,-3.860322418E0,6.580316162E0,8.584251025E0
1.003281258E1,3.593427429E0,-3.602857819E0,6.259383545E0,8.066795368E0
1.004285558E1,3.178190918E0,-2.909799042E0,6.321953430E0,7.650811927E0
1.005289858E1,2.692151642E0,-2.785407715E0,6.525380402E0,7.588594467E0
1.006294158E1,2.392025757E0,-3.092568970E0,6.852749634E0,7.889610104E0
1.007298458E1,2.448458405E0,-3.107687531E0,7.168143768E0,8.187487736E0
1.008302758E1,2.668500824E0,-2.711611176E0,7.401209106E0,8.321756308E0
1.009307058E1,2.709665222E0,-2.014510803E0,7.241640930E0,7.990112812E0
1.010311258E1,2.714455261E0,-1.565294952E0,6.919361115E0,7.595786588E0
1.011315558E1,2.561323700E0,-9.307644653E-1,6.792874146E0,7.319142077E0
1.012319858E1,2.294728088E0,-2.670446777E-1,6.596632233E0,6.989466838E0
1.013324158E1,1.834285583E0,2.972817993E-1,6.196813660E0,6.469426528E0
1.014328458E1,1.188977509E0,9.614506531E-1,5.246439972E0,5.464722065E0
1.015332758E1,9.400451660E-2,2.031275940E0,3.260819092E0,3.842897337E0
1.016336958E1,-3.445834351E-1,1.919009399E0,3.245850220E0,3.786407066E0
1.017341258E1,-1.627116394E-1,1.272952881E0,4.675078125E0,4.848013984E0
1.018345558E1,-1.610650635E-1,1.346150665E0,5.613476715E0,5.774875271E0
1.019349858E1,-4.340972900E-2,1.761237488E0,6.365063782E0,6.604383305E0
1.020354158E1,4.408332825E-1,2.237846375E0,7.276069336E0,7.625186907E0
1.021358458E1,1.131796417E0,2.456092529E0,8.064629517E0,8.505974540E0
1.022362658E1,1.647623749E0,2.474354553E0,8.484955444E0,8.990637539E0
1.023366958E1,1.873504028E0,2.532134399E0,8.790170746E0,9.337495580E0
1.024371258E1,1.955084381E0,2.522853699E0,9.052874451E0,9.599045866E0
1.025375496E1,1.838476868E0,2.326611786E0,9.218280487E0,9.683481540E0
1.026379796E1,1.639690247E0,1.973496094E0,9.158404999E0,9.511027971E0
1.027384096E1,1.787732391E0,1.603764954E0,8.789571991E0,9.111784947E0
1.028388396E1,2.015408936E0,1.775906982E0,8.609646149E0,9.018964774E0
1.029392596E1,2.070045319E0,2.327060852E0,8.678203583E0,9.220169047E0
1.030396896E1,2.215542755E0,2.638413391E0,8.651409302E0,9.312182227E0
1.031401196E1,2.444865875E0,2.689008179E0,8.343050537E0,9.100254194E0
1.032405496E1,2.584974518E0,2.515069885E0,7.862100677E0,8.649872649E0
1.033409796E1,2.727178802E0,2.355052643E0,7.954458618E0,8.732536234E0
1.034414096E1,4.310885468E0,2.395318909E0,9.175170135E0,1.041657493E1
1.035418296E1,3.998335419E0,2.733316040E0,9.373358002E0,1.055071291E1
1.036422596E1,2.575095062E0,3.129242706E0,9.275012512E0,1.012171584E1
1.037426896E1,2.214794312E0,3.386856995E0,9.236243134E0,1.008386341E1
1.038431196E1,1.897454224E0,3.659889221E0,8.678502960E0,9.607889220E0
1.039435496E1,1.894310760E0,3.601360931E0,8.272547150E0,9.219178388E0
1.040439796E1,2.093546448E0,3.194057922E0,8.281229095E0,9.119413253E0
1.041443996E1,1.808539124E0,2.685116272E0,8.865763550E0,9.438348716E0
1.042448296E1,1.355431366E0,2.522254944E0,9.204958191E0,9.640032131E0
1.043452596E1,1.129102020E0,2.765798492E0,9.073531494E0,9.552669075E0
1.044456896E1,1.595831451E0,3.209625549E0,9.200617218E0,9.874195227E0
1.045461196E1,2.340981903E0,3.605402527E0,9.448202362E0,1.038015662E1
1.046465496E1,2.821482697E0,3.783382416E0,9.153764648E0,1.029884238E1
1.047469796E1,2.709515533E0,3.699257355E0,8.657696228E0,9.797024210E0
1.048473996E1,2.427052917E0,3.498075714E0,8.426427155E0,9.440963624E0
1.049478296E1,1.950444031E0,3.082988892E0,8.562943268E0,9.307687674E0
1.050482596E1,1.839375000E0,2.862796783E0,8.934620361E0,9.560666651E0
1.051486896E1,2.612217865E0,3.168161774E0,9.521400146E0,1.036908829E1
1.052491196E1,3.707041168E0,3.547472992E0,9.836644592E0,1.109442633E1
1.053495496E1,3.777245178E0,3.708388367E0,9.507479095E0,1.088172248E1
1.054499696E1,3.134182434E0,3.860322418E0,8.801098022E0,1.010863567E1
1.055503996E1,2.724634094E0,3.729943542E0,8.190667419E0,9.403358047E0
1.056508296E1,2.940185852E0,3.623365173E0,7.834857330E0,9.119125913E0
1.057512596E1,3.208428040E0,4.004322968E0,6.588549042E0,8.350903627E0
1.058516896E1,3.183130646E0,3.796555023E0,5.723497925E0,7.569978814E0
1.059521196E1,2.790197754E0,3.572471008E0,7.574848022E0,8.827574705E0
1.060525396E1,2.728825378E0,3.961961060E0,9.109007721E0,1.030134191E1
1.061529696E1,3.181783447E0,4.014950867E0,9.877060547E0,1.112654041E1
1.062533996E1,3.336860962E0,3.850592651E0,9.997110901E0,1.122069210E1
1.063538296E1,2.991828461E0,3.628753967E0,9.984986115E0,1.103715727E1
1.064542596E1,2.457439728E0,3.871698761E0,8.872499542E0,9.987507669E0
1.065546896E1,2.382745056E0,3.975133667E0,7.963290253E0,9.213748060E0
1.065546896E1,-1.414708099E0,4.291276245E0,8.313561859E0,9.462122468E0
1.066551096E1,-7.542814636E-1,3.968397675E0,7.988587646E0,8.951796089E0
1.067555396E1,-3.601510620E-1,3.809128876E0,7.999215546E0,8.867165326E0
1.068559696E1,-4.050576782E-1,4.144880676E0,8.477620697E0,9.445324781E0
1.069563996E1,-4.349954224E-1,4.515809326E0,9.138047333E0,1.020223818E1
1.070568296E1,-5.936654663E-1,4.828209686E0,9.667196960E0,1.082214140E1
1.071572496E1,-1.229842529E0,5.272186432E0,1.018092865E1,1.153081830E1
1.072576796E1,-2.050136719E0,5.911806335E0,1.057071808E1,1.228383472E1
1.073581096E1,-2.110311584E0,6.300098877E0,1.090018295E1,1.276552581E1
1.074585396E1,-1.712289276E0,5.624703369E0,1.064616119E1,1.216182432E1
1.075589696E1,-1.319655762E0,4.200265503E0,9.841883698E0,1.078176221E1
1.076593996E1,-1.103355560E0,3.022514648E0,9.188492432E0,9.735572991E0
1.077598196E1,-1.395098877E0,2.453098755E0,9.598190460E0,1.000446173E1
1.078602496E1,-1.958976288E0,2.405198364E0,1.186717209E1,1.226590154E1
1.079606796E1,-1.684447174E0,9.057664490E-1,1.360625565E1,1.374001339E1
1.080611096E1,-6.697073364E-1,-1.823507996E0,1.338965607E1,1.352984031E1
1.081615396E1,-7.508386230E-1,-2.064656525E0,9.974807281E0,1.021388004E1
1.082619696E1,-9.032217407E-1,-8.095166016E-1,7.290439453E0,7.390645037E0
1.083623896E1,-2.146685944E0,1.090931396E0,8.154442749E0,8.502548347E0
1.084628196E1,-2.262395325E0,1.523082733E0,8.878487091E0,9.287935543E0
1.085632496E1,-2.305206299E0,1.501527557E0,1.041818527E1,1.077530257E1
1.086636796E1,-1.730102234E0,9.903405762E-1,1.092922256E1,1.110954248E1
1.087641096E1,-1.133143616E0,-2.456391907E-1,8.876690826E0,8.952094341E0
1.088645296E1,-1.546733551E0,-1.472937012E0,6.582860870E0,6.920692549E0
1.089649596E1,-2.550097046E0,-1.908980255E0,5.466183014E0,6.326638705E0
1.090653896E1,-4.672234039E0,-1.202898560E0,1.288236099E1,1.375616082E1
1.091658196E1,-3.038531342E0,-1.867516479E0,9.999505920E0,1.061651587E1
1.092662496E1,-3.134332123E0,-1.277593231E0,9.546547852E0,1.012881327E1
1.093666796E1,-2.726580048E0,4.864883423E-2,4.756658478E0,5.482919418E0
1.094670996E1,-5.393284607E-1,4.851411438E-1,3.502716064E-2,7.262671822E-1
1.095675296E1,5.822891235E-2,4.053570557E-1,2.193239136E0,2.231143845E0
1.096679596E1,-1.442699890E0,1.689237213E0,2.503094788E0,3.346698201E0
1.097683896E1,-1.169517975E0,2.309098206E0,3.021167450E0,3.978336283E0
1.098688196E1,3.635939026E0,1.093925171E0,3.698957977E0,5.300850403E0
1.099692396E1,5.691763916E0,1.122665405E-1,3.715274048E0,6.797943917E0
1.100696696E1,4.511019287E0,-4.526586914E-1,3.688629456E0,5.844671262E0
1.101700996E1,3.166215820E0,-8.223898315E-1,3.871249695E0,5.068315485E0
1.102705296E1,2.761307831E0,-1.862576752E0,3.655997314E0,4.945738515E0
1.103709596E1,2.777025146E0,-2.780467987E0,3.111280060E0,5.012278374E0
1.104713896E1,2.653082886E0,-2.849324799E0,2.689157867E0,4.731709061E0
1.105718196E1,3.672912140E0,-2.573747864E0,2.170935516E0,4.982712381E0
1.106722396E1,4.979844360E0,-2.922073517E0,1.636995850E0,6.001426406E0
1.107726696E1,5.459447021E0,-3.463198242E0,1.127006378E0,6.562731689E0
1.108730996E1,5.457052002E0,-4.025129700E0,6.722520447E-1,6.814177020E0
1.109735296E1,4.539310455E0,-4.607867889E0,7.426057434E-1,6.510702665E0
1.110739596E1,3.439248047E0,-5.322930908E0,1.087039490E0,6.429904776E0
1.111743796E1,2.720442810E0,-5.991141357E0,1.428030396E0,6.733042006E0
1.112748096E1,3.432062988E0,-6.581663361E0,1.780846710E0,7.633397930E0
1.113752396E1,5.247637482E0,-6.610553284E0,3.372935944E0,9.089213978E0
1.114756696E1,7.201674042E0,-6.219117279E0,6.068829803E0,1.128593035E1
1.115760996E1,8.981622620E0,-7.057523804E0,6.467301178E0,1.312646836E1
1.116765296E1,9.509574738E0,-8.141419830E0,7.513176270E0,1.460008720E1
1.117769508E1,9.741143188E0,-8.983718262E0,9.128018188E0,1.609092230E1
1.118773808E1,1.041414368E1,-9.217082977E0,1.024783951E1,1.727504621E1
1.119778108E1,1.139490417E1,-8.940009155E0,1.039917480E1,1.783004323E1
1.120782408E1,1.043255539E1,-8.364755402E0,1.010458740E1,1.676037086E1
1.121786708E1,1.002046234E1,-8.095315704E0,9.842482452E0,1.621167057E1
1.122791008E1,1.080423248E1,-8.493787079E0,9.131461029E0,1.650028603E1
1.123795208E1,1.149519562E1,-9.015152893E0,8.179440765E0,1.674263286E1
1.124799508E1,1.209095673E1,-9.476194153E0,7.933053131E0,1.728938467E1
1.125803808E1,1.295570847E1,-9.685908051E0,7.952961731E0,1.802544859E1
1.126808108E1,1.455034241E1,-9.132359161E0,7.859555969E0,1.889140196E1
1.127812408E1,1.761821274E1,-7.545059967E0,7.947273560E0,2.074821696E1
1.128816608E1,2.118304962E1,-5.335504761E0,8.444389801E0,2.342001113E1
1.129820908E1,2.340487930E1,-3.880680084E0,7.760761414E0,2.496151980E1
1.130825208E1,2.381427795E1,-2.915636902E0,6.266867981E0,2.479706449E1
1.131829508E1,2.317780151E1,-2.221829681E0,4.761747894E0,2.376596838E1
1.132833808E1,2.155607391E1,-1.921554108E0,3.608246613E0,2.194028569E1
1.133838108E1,2.159768738E1,-1.807191925E0,2.926414490E0,2.186984098E1
1.134842308E1,2.377760422E1,-7.664062500E-2,2.611619110E0,2.392072094E1
1.135846608E1,2.371174118E1,2.049987030E0,2.885848846E0,2.397451230E1
1.136850908E1,2.310505280E1,2.901865540E0,2.056273956E0,2.337718013E1
1.137855208E1,2.215288284E1,3.395239563E0,-5.565426636E-1,2.241846582E1
1.138859508E1,1.966640350E1,2.788251801E0,-3.406765594E0,2.015310960E1
1.139863808E1,1.791250076E1,1.955383759E0,-4.481680298E0,1.856789346E1
1.140868008E1,1.558888275E1,1.387315063E0,-5.300776978E0,1.652380541E1
1.141872308E1,1.179307617E1,-2.619552612E-2,-6.239325256E0,1.334190809E1
1.142876608E1,7.739056549E0,-1.319805450E0,-3.889811096E0,8.761593066E0
1.143880908E1,4.865781555E0,-2.986439667E0,-4.975204010E0,7.572800471E0
1.144885208E1,3.086880798E0,-3.512146454E0,-4.473746796E0,6.471353504E0
1.145889408E1,2.797682190E0,-2.895877991E0,-1.530118103E0,4.307481443E0
1.146893708E1,2.871927795E0,-2.673440552E0,-2.155517578E-1,3.929594916E0
1.147898008E1,6.345903625E0,-1.537003784E0,1.758094025E0,6.761935230E0
1.148902308E1,6.223607941E0,-2.320923615E0,3.905977478E0,7.705624068E0
1.149906608E1,2.251468048E0,-5.349874878E0,4.627028046E0,7.422914395E0
1.150910908E1,-1.132993927E0,-7.856262817E0,3.811972961E0,8.805434603E0
1.151915108E1,-1.073417816E0,-8.026009827E0,3.441942444E0,8.798637811E0
1.152919408E1,1.924996948E0,-5.995182953E0,3.043770447E0,6.993737943E0
1.153923708E1,3.843856659E0,-4.530329132E0,1.355281677E0,6.093923571E0
1.154928008E1,3.687581635E0,-5.659880219E0,1.194515991E-1,6.756239419E0
1.155932308E1,3.767365723E0,-7.717501373E0,-7.726931763E-1,8.622640354E0
1.156936608E1,3.711980896E0,-1.045186523E1,-1.281185760E0,1.116520157E1
1.157940808E1,3.175197144E0,-1.287427780E1,-1.849104767E0,1.338835667E1
1.158945108E1,4.721631317E0,-1.468625977E1,-1.435365143E0,1.549323405E1
1.159949408E1,9.419761505E0,-1.463222214E1,-8.312214661E-1,1.742196202E1
1.160953708E1,1.159189453E1,-1.319775513E1,3.532653809E-2,1.756570543E1
1.161958008E1,1.263297958E1,-1.230620911E1,6.971003723E-1,1.764995481E1
1.162962308E1,1.413435745E1,-1.124925705E1,9.804611206E-1,1.809107926E1
1.163966508E1,1.560564789E1,-9.076525269E0,1.038091278E0,1.808306364E1
1.164970808E1,1.526241165E1,-7.967930603E0,5.408253479E-1,1.722560941E1
1.165975108E1,1.368933289E1,-7.724836121E0,1.496887207E-1,1.571920274E1
1.166979408E1,1.187091431E1,-7.575297089E0,-3.411405945E-1,1.408616731E1
1.167983708E1,9.809401245E0,-7.226821747E0,-9.575587463E-1,1.222162936E1
1.168988008E1,8.087980957E0,-5.819897461E0,-9.226812744E-1,1.000689678E1
1.169992208E1,6.377188568E0,-4.909490662E0,-2.767744446E-1,8.052840287E0
1.170996508E1,5.194198608E0,-4.694687347E0,-2.222877502E-1,7.004941136E0
1.172000808E1,4.449497223E0,-4.257895660E0,2.544708252E-3,6.158547513E0
1.173005108E1,3.585793304E0,-3.724105682E0,2.659968567E-1,5.176642839E0
1.174009408E1,2.653681641E0,-3.534001007E0,-9.684860229E-2,4.420471583E0
1.175013708E1,2.410437469E0,-3.514691162E0,-6.873706055E-1,4.316913377E0
1.176017908E1,3.149300995E0,-3.637735291E0,-9.491761780E-1,4.904299157E0
1.177022208E1,3.922892303E0,-4.556374969E0,-4.587959290E-1,6.029936201E0
1.178026508E1,4.304598541E0,-5.402565308E0,-2.439926147E-2,6.907812666E0
1.179030808E1,4.142036591E0,-5.686075745E0,5.328918457E-1,7.054920142E0
1.180035108E1,3.684288483E0,-5.525908813E0,1.235830078E0,6.755510774E0
1.181039408E1,3.120111694E0,-4.567002869E0,1.493594055E0,5.729174058E0
1.182043608E1,3.023113403E0,-4.204007721E0,1.480720825E0,5.385668921E0
1.183047908E1,2.642005920E0,-3.754043427E0,1.615889740E0,4.866635078E0
1.184052208E1,2.268981628E0,-3.658242645E0,2.187101898E0,4.828502003E0
1.185056508E1,1.986668701E0,-3.980971527E0,2.372416534E0,5.042156983E0
1.186060808E1,1.660946045E0,-6.091582489E0,-3.577560425E-1,6.324089529E0
1.187065008E1,1.082548828E0,-4.099225616E0,2.507884827E0,4.925956651E0
1.188069308E1,5.345384216E-1,-4.278403015E0,2.630330200E0,5.050653487E0
1.189073608E1,1.082997894E0,-7.173382874E0,8.452922058E-1,7.303754186E0
1.190077908E1,-4.326004028E-1,-1.036459671E1,1.279838562E-1,1.037441025E1
1.191082208E1,-1.137185211E0,-1.645842453E1,4.090992737E-1,1.650273585E1
1.192086508E1,-7.535330200E-1,-2.259790741E1,1.483864288E0,2.265910600E1
1.193090808E1,-1.856589203E0,-2.643652496E1,3.063080292E0,2.667806658E1
1.194095008E1,-1.998943176E0,-2.715622833E1,4.321663055E0,2.757051473E1
1.195099308E1,-1.804198151E0,-2.473935425E1,5.600902863E0,2.542952796E1
1.196103608E1,-2.069147186E0,-2.042517563E1,6.979835358E0,2.168380205E1
1.197107908E1,-1.767973480E0,-1.602133347E1,7.313790894E0,1.770029360E1
1.198112208E1,-1.318757629E0,-1.224319016E1,6.507268066E0,1.392764749E1
1.199116408E1,-6.945556641E-1,-9.204060059E0,5.172793121E0,1.058087510E1
1.200120708E1,-4.846920776E-1,-7.024143219E0,3.958667908E0,8.077410846E0
1.201125008E1,-5.716612244E-1,-5.724994812E0,3.005599823E0,6.491224264E0
1.202129308E1,-8.888516235E-1,-5.260660400E0,2.468067627E0,5.878432008E0
1.203133608E1,-1.146316223E0,-5.377118225E0,2.129471741E0,5.895938533E0
1.204137908E1,-8.887019348E-1,-5.940546570E0,1.920655975E0,6.306251189E0
1.205142108E1,-3.052153015E-1,-6.623725891E0,1.800006866E0,6.870729640E0
1.206146408E1,2.435435486E-1,-7.295229492E0,1.764530640E0,7.509544273E0
1.207150708E1,7.905061340E-1,-7.979157257E0,1.798509979E0,8.217450251E0
1.208155008E1,1.266665955E0,-8.653654633E0,1.880090332E0,8.945664916E0
1.209159308E1,1.821711731E0,-9.220076752E0,1.895059204E0,9.587476119E0
1.210163608E1,2.273621979E0,-9.884544983E0,1.993105316E0,1.033663655E1
1.211167808E1,2.653232574E0,-1.043090881E1,2.106419678E0,1.096724695E1
1.212172108E1,3.151995392E0,-1.069720505E1,2.228116608E0,1.137232493E1
1.213176408E1,3.651057587E0,-1.077788727E1,2.198178864E0,1.158986910E1
1.214180708E1,3.829187164E0,-1.093027039E1,2.141596527E0,1.177794213E1
1.215185008E1,3.811823273E0,-1.083836151E1,2.046244812E0,1.166992694E1
1.216189308E1,3.716920624E0,-1.062999481E1,1.911075897E0,1.142210575E1
1.217193508E1,3.590882721E0,-1.054078033E1,1.807341614E0,1.128135508E1
1.218197833E1,3.431015167E0,-1.052626053E1,1.800904999E0,1.121683042E1
1.219202133E1,3.366798706E0,-1.027478348E1,1.857936401E0,1.097079927E1
1.220206433E1,3.340453491E0,-9.634564819E0,1.966760101E0,1.038516317E1
1.221210733E1,3.076851654E0,-9.089398499E0,2.079775085E0,9.818841356E0
1.222215033E1,2.740501099E0,-8.782386932E0,2.173480225E0,9.453289522E0
1.223219233E1,2.402503967E0,-8.664881287E0,2.281106415E0,9.276617891E0
1.224223533E1,2.083816681E0,-8.760382690E0,2.355651398E0,9.307829519E0
1.225227833E1,1.899998932E0,-8.945248260E0,2.400408325E0,9.454597956E0
1.226232133E1,1.836530914E0,-9.185498657E0,2.416574707E0,9.673989079E0
1.227236433E1,1.888323212E0,-9.360634460E0,2.420017548E0,9.851077453E0
1.228240733E1,2.034419403E0,-9.456285553E0,2.381547546E0,9.961524355E0
1.229244933E1,2.201172638E0,-9.420809326E0,2.257904663E0,9.934532843E0
1.230249233E1,2.323019257E0,-9.246421967E0,2.017953644E0,9.744992281E0
1.231253533E1,2.361788635E0,-9.029073944E0,1.688039703E0,9.484286999E0
1.232257833E1,2.304757233E0,-8.907227325E0,1.276246033E0,9.288670974E0
1.233262133E1,2.143392792E0,-8.860374756E0,8.722361755E-1,9.157574429E0
1.234266433E1,1.975442047E0,-8.917406158E0,6.903643799E-1,9.159645564E0
1.235270633E1,1.838027802E0,-9.195527802E0,8.178991699E-1,9.413024849E0
1.236274933E1,1.754501495E0,-9.565109253E0,1.153800659E0,9.792897757E0
1.237279233E1,1.755549316E0,-9.805808716E0,1.562600555E0,1.008352907E1
1.238283533E1,1.694476318E0,-9.849667511E0,1.852098541E0,1.016452011E1
1.239287833E1,1.624122620E0,-9.740694122E0,2.001188507E0,1.007589459E1
1.240292133E1,1.622925110E0,-9.508826294E0,2.063608704E0,9.864590426E0
1.241296333E1,1.755998383E0,-9.434730377E0,2.116897888E0,9.827457671E0
1.242300633E1,2.009571075E0,-9.492809601E0,2.179916840E0,9.945041350E0
1.243304933E1,2.345173187E0,-9.655820618E0,2.276466064E0,1.019396914E1
1.244309233E1,2.618804169E0,-9.879156189E0,2.429447937E0,1.050514538E1
1.245313533E1,2.796185303E0,-1.004396347E1,2.558030548E0,1.073514670E1
1.246317833E1,2.835403748E0,-1.008437943E1,2.609074402E0,1.079543848E1
1.247322033E1,2.837649078E0,-9.841284943E0,2.606380005E0,1.056864979E1
1.248326333E1,2.846031647E0,-9.456734619E0,2.526446228E0,1.019375575E1
1.249330633E1,2.911445618E0,-9.094637604E0,2.444566498E0,9.857223447E0
1.250334933E1,3.066223755E0,-8.985813904E0,2.435285797E0,9.801897599E0
1.251339233E1,3.304528198E0,-9.218280487E0,2.457739105E0,1.009638962E1
1.252343533E1,3.594175873E0,-9.793833618E0,2.551144867E0,1.073990769E1
1.253347733E1,3.827241211E0,-1.040965302E1,2.671644287E0,1.140816963E1
1.254352033E1,3.921694794E0,-1.078043198E1,2.735561371E0,1.179324805E1
1.255356333E1,4.119882660E0,-1.108190506E1,2.712808685E0,1.213018482E1
1.256360633E1,4.361629944E0,-1.136646332E1,2.616858215E0,1.245264032E1
1.257364933E1,4.603077850E0,-1.142693756E1,2.336042175E0,1.253875276E1
1.258369233E1,4.869823151E0,-1.140523270E1,1.555864563E0,1.249860892E1
1.259373533E1,5.766608276E0,-1.129042145E1,-4.123026123E0,1.333141898E1
1.260377733E1,6.730453949E0,-1.171254364E1,-1.040276733E1,1.704993423E1
1.261382033E1,6.491700439E0,-1.206416245E1,-8.836873627E0,1.630265394E1
1.262386333E1,6.246809692E0,-1.206266556E1,-5.683980103E0,1.472542568E1
1.263390633E1,5.685926056E0,-1.200578384E1,-3.726500702E0,1.379693474E1
1.264394933E1,5.087620239E0,-1.170461014E1,-3.155587921E0,1.314684423E1
1.265399233E1,3.835923157E0,-1.138487503E1,-2.628084869E0,1.229782566E1
1.266403433E1,2.603535919E0,-1.147379013E1,-1.529818726E0,1.186451030E1
1.267407733E1,2.310146027E0,-1.181717606E1,-4.020639038E-1,1.204757569E1
1.268412033E1,2.235002289E0,-1.225277023E1,8.925938416E-1,1.248688662E1
1.269416333E1,1.905687103E0,-1.286514679E1,2.671344910E0,1.327703765E1
1.270420633E1,1.904339905E0,-1.375774063E1,4.511168976E0,1.460317032E1
1.271424933E1,2.248025208E0,-1.470646774E1,5.286556549E0,1.578865070E1
1.272429133E1,2.184407501E0,-1.511796204E1,5.557942200E0,1.625469574E1
1.273433433E1,1.926194458E0,-1.485226456E1,5.514233093E0,1.595953490E1
1.274437733E1,1.759441223E0,-1.411040726E1,5.423821106E0,1.521897046E1
1.275442033E1,1.608405304E0,-1.308982956E1,5.478607178E0,1.428095733E1
1.276446333E1,1.616039429E0,-1.227013412E1,4.704267426E0,1.324001159E1
1.277450633E1,2.029329987E0,-1.198138458E1,2.737657013E0,1.245658551E1
1.278454833E1,2.480491791E0,-1.181163757E1,5.848338318E-1,1.208344538E1
1.279459133E1,2.965333557E0,-1.128802643E1,2.320175171E-1,1.167332754E1
1.280463433E1,2.439477081E0,-1.104568039E1,1.585951996E0,1.142249305E1
1.281467733E1,1.872306519E0,-1.038375687E1,2.696342926E0,1.089028023E1
1.282472033E1,1.920356598E0,-9.188941498E0,2.949466553E0,9.839906923E0
1.283476333E1,1.576820984E0,-8.332422638E0,2.938389587E0,8.974952078E0
1.284480533E1,1.304088135E0,-7.708819427E0,2.988684998E0,8.370112355E0
1.285484833E1,1.112037506E0,-7.017407227E0,3.560944977E0,7.947387038E0
1.286489133E1,8.196954346E-1,-6.195167084E0,4.093088379E0,7.470299076E0
1.287493433E1,2.580633545E-1,-5.533393250E0,4.044289856E0,6.858667362E0
1.288497733E1,-4.617897034E-1,-5.086123352E0,3.993994446E0,6.483355005E0
1.289502033E1,-1.104253693E0,-4.853357391E0,4.162693634E0,6.488641805E0
1.290506233E1,-1.619631958E0,-4.716392212E0,4.048481140E0,6.423220588E0
1.291510533E1,-2.085612946E0,-4.603826294E0,3.778292999E0,6.310348318E0
1.292514833E1,-2.400558014E0,-4.539160767E0,3.600013733E0,6.271105016E0
1.293519133E1,-2.743045807E0,-4.495900726E0,3.173999634E0,6.149121670E0
1.294523433E1,-2.992277527E0,-4.451293488E0,2.589315491E0,5.955862089E0
1.295527733E1,-3.234324188E0,-4.421954498E0,2.020797729E0,5.839362808E0
1.296531933E1,-3.507356415E0,-4.345762939E0,1.507365417E0,5.784406197E0
1.297536233E1,-3.692820740E0,-4.207899628E0,1.041384430E0,5.694543513E0
1.298540533E1,-3.730093231E0,-4.250560913E0,7.005432129E-1,5.698387876E0
1.299544833E1,-3.374881897E0,-4.439168701E0,5.860313416E-1,5.607091876E0
1.300549133E1,-2.459685059E0,-4.972808990E0,-2.583627319E-1,5.553884329E0
1.301553433E1,-7.542814636E-1,-6.132746887E0,-2.827619934E0,6.795215920E0
1.302557633E1,2.143243103E0,-8.062833252E0,-9.350755005E0,1.253153583E1
1.303561933E1,8.291407928E0,-1.097098572E1,-2.012998947E1,2.437881148E1
1.304566233E1,1.350925735E1,-1.487905884E1,-2.043655197E1,2.866250308E1
1.305570533E1,1.358574829E1,-1.871318573E1,-9.159153442E0,2.487259473E1
1.306574833E1,1.245664627E1,-2.130789001E1,-5.149291992E0,2.521327867E1
1.307579133E1,1.124551483E1,-2.149500092E1,-5.405559082E0,2.485390789E1
1.308583433E1,9.491013336E0,-1.861828308E1,-4.771327972E0,2.143560985E1
1.309587633E1,8.161478119E0,-1.311033691E1,-2.976410522E0,1.572735447E1
1.310591933E1,6.595434723E0,-7.695497131E0,-8.262817383E-1,1.016873526E1
1.311596233E1,4.921465759E0,-4.603377228E0,1.027313690E0,6.816691319E0
1.312600533E1,3.281027069E0,-2.885100403E0,2.347867584E0,4.959982375E0
1.313604833E1,1.552272034E0,-2.083068237E0,2.538870392E0,3.632435081E0
1.314609133E1,3.034190369E-1,-2.857557678E0,2.556683350E0,3.846339656E0
1.315613333E1,-1.582209778E-1,-5.284011841E0,3.396137695E0,6.283276713E0
1.316617633E1,4.041595459E-3,-7.967930603E0,4.145928497E0,8.982018567E0
1.317621908E1,5.932164001E-1,-1.050605255E1,3.111878815E0,1.097327826E1
1.318626208E1,2.761008453E0,-1.383842285E1,-3.149151306E0,1.445829411E1
1.319630508E1,4.918022919E0,-1.784379364E1,-7.934699707E0,2.013820698E1
1.320634808E1,5.265001373E0,-2.061752563E1,-6.207591248E0,2.216611811E1
1.321639008E1,3.789819031E0,-1.879716110E1,-2.076182556E-1,1.917652469E1
1.322643308E1,1.595981140E0,-1.374831024E1,5.009632416E0,1.471936165E1
1.323647608E1,-8.346643066E-1,-9.444759521E0,8.086633759E0,1.246169300E1
1.324651908E1,-2.264341278E0,-6.886279907E0,7.004833374E0,1.008046541E1
1.325656208E1,-2.644400940E0,-5.588927765E0,4.730762329E0,7.785183499E0
1.326660508E1,-2.257605286E0,-5.192102966E0,2.810854797E0,6.321045762E0
1.327664708E1,-1.495689697E0,-5.292095032E0,1.588197327E0,5.724135589E0
1.328669008E1,-7.780819702E-1,-6.120173035E0,1.191222839E0,6.283386140E0
1.329673308E1,-6.548881531E-1,-7.340285797E0,1.394200745E0,7.500164651E0
1.330677608E1,-6.845265198E-1,-8.925938416E0,2.120041351E0,9.199756980E0
1.331681908E1,-2.769241333E-1,-1.051608170E1,3.141068115E0,1.097865976E1
1.332686208E1,2.715353394E-1,-1.141960281E1,4.163591766E0,1.215798323E1
1.333690508E1,9.526190186E-1,-1.172466843E1,4.917573853E0,1.274981825E1
1.334694708E1,1.811682587E0,-1.159159515E1,5.319039001E0,1.288174864E1
1.335699008E1,2.749781799E0,-1.125823837E1,5.434748383E0,1.280022348E1
1.336703308E1,3.338208160E0,-1.101244949E1,5.145100708E0,1.260514732E1
1.337707608E1,3.365750885E0,-1.064182022E1,4.528981934E0,1.204526023E1
1.338711908E1,3.442092133E0,-1.029873367E1,3.915856934E0,1.154321658E1
1.339716208E1,3.690575409E0,-1.003378464E1,3.316054230E0,1.119345329E1
1.340720408E1,3.769910431E0,-9.996661835E0,2.690954132E0,1.101756355E1
1.341724708E1,3.696413269E0,-9.828411713E0,2.107317810E0,1.070989898E1
1.342729008E1,3.467838593E0,-9.351054382E0,2.128124542E0,1.019789374E1
1.343733308E1,3.221750336E0,-8.896000671E0,2.089504852E0,9.689403165E0
1.344737608E1,3.222049713E0,-8.716673584E0,1.396745453E0,9.397494378E0
1.345741908E1,3.283871155E0,-8.468639374E0,5.468128967E-1,9.099487181E0
1.346746108E1,3.221450958E0,-7.838749237E0,-1.076261902E-1,8.475571914E0
1.347750408E1,3.051703949E0,-6.956483917E0,-6.369255066E-1,7.623072844E0
1.348754708E1,2.830613708E0,-6.134243774E0,-1.176703033E0,6.857546987E0
1.349759008E1,2.435585175E0,-5.630092163E0,-3.065625000E0,6.857701477E0
1.350763308E1,2.294578400E0,-5.911656647E0,-5.733976135E0,8.549342469E0
1.351767608E1,3.158581696E0,-7.220235443E0,-3.582051086E0,8.656761991E0
1.352771808E1,3.883973236E0,-8.377928009E0,-4.540058899E-1,9.245596096E0
1.353776108E1,4.482728119E0,-9.503886566E0,1.143621826E0,1.057007957E1
1.354780408E1,4.840184784E0,-1.076815750E1,1.867666168E0,1.195277297E1
1.355784708E1,5.027445374E0,-1.164084274E1,2.210603027E0,1.287133220E1
1.356789008E1,4.826263733E0,-1.158006912E1,1.970801697E0,1.269940478E1
1.357793308E1,4.445455627E0,-1.063059357E1,1.218615875E0,1.158691590E1
1.358797608E1,4.184697876E0,-9.600286102E0,3.200344849E-1,1.047757661E1
1.359801808E1,3.879781952E0,-8.904383240E0,-1.141077118E0,9.779713997E0
1.360806108E1,3.943399658E0,-8.939410400E0,-2.073787537E0,9.988195729E0
1.361810408E1,4.634512482E0,-9.862241364E0,-5.014572144E-1,1.090843573E1
1.362814708E1,5.320984955E0,-1.083506836E1,1.276545410E0,1.213841651E1
1.363819008E1,5.487289124E0,-1.118040024E1,1.615290985E0,1.255869644E1
1.364823308E1,5.153034210E0,-1.099763031E1,5.523513794E-1,1.215757896E1
1.365827508E1,5.538033600E0,-1.129730713E1,-1.707199860E0,1.269698767E1
1.366831808E1,7.424261169E0,-1.216759735E1,-3.892355804E0,1.477567301E1
1.367836108E1,9.362131348E0,-1.273716293E1,-5.144352264E0,1.662375358E1
1.368840408E1,1.044617706E1,-1.263402740E1,-5.236410828E0,1.720933648E1
1.369844708E1,1.024514511E1,-1.209395050E1,-3.830234985E0,1.630635879E1
1.370849008E1,9.416618042E0,-1.175774963E1,-3.854185181E0,1.554902297E1
1.371853208E1,8.460705872E0,-1.192839478E1,-4.020489349E0,1.516688763E1
1.372857508E1,7.115453339E0,-1.207224564E1,-1.163680115E0,1.406139902E1
1.373861808E1,5.845344543E0,-1.235515732E1,1.871258698E0,1.379563606E1
1.374866108E1,5.140759735E0,-1.326840820E1,3.349135437E0,1.461830274E1
1.375870408E1,4.058959351E0,-1.435559738E1,3.497476959E0,1.532288068E1
1.376874708E1,2.656675415E0,-1.504985367E1,3.185375977E0,1.561097818E1
1.377879008E1,1.887425079E0,-1.567525314E1,3.181783447E0,1.610588962E1
1.378883208E1,1.838177490E0,-1.634615799E1,3.242407379E0,1.676570855E1
1.379887508E1,1.643582153E0,-1.689282120E1,3.420087891E0,1.731374516E1
1.380891808E1,9.039701843E-1,-1.707005264E1,3.682342529E0,1.748609464E1
1.381896108E1,7.920030212E-1,-1.681213898E1,3.444936218E0,1.717972268E1
1.382900408E1,8.264314270E-1,-1.623164612E1,2.850971375E0,1.650082914E1
1.383904708E1,4.619393921E-1,-1.508113861E1,2.142344971E0,1.523954631E1
1.384908908E1,-2.616558838E-1,-1.343635895E1,2.008523254E0,1.358817027E1
1.385913208E1,-8.740324402E-1,-1.214694031E1,1.953138428E0,1.233397103E1
1.386917508E1,-1.583257599E0,-1.086410797E1,2.261347504E0,1.120933714E1
1.387921808E1,-1.991458740E0,-9.810299377E0,3.248843994E0,1.052439400E1
1.388926108E1,-1.886976013E0,-9.072333984E0,4.018244019E0,1.010020828E1
1.389930408E1,-1.832339630E0,-8.298592987E0,4.623285828E0,9.674651721E0
1.390934708E1,-1.704655151E0,-7.364235992E0,5.511389008E0,9.354850599E0
1.391938908E1,-1.326840820E0,-6.281986542E0,5.724994812E0,8.602291966E0
1.392943208E1,-1.014590149E0,-5.175038452E0,5.979016571E0,7.972393324E0
1.393947508E1,-2.826123047E-1,-4.144431610E0,5.304369507E0,6.737397046E0
1.394951808E1,-8.187973022E-2,-3.374732208E0,4.419709167E0,5.561416267E0
1.395956108E1,-3.722758484E-1,-2.994073792E0,4.233496399E0,5.198611251E0
1.396960408E1,-9.993218994E-1,-2.959196320E0,4.495601349E0,5.474113499E0
1.397964608E1,-1.648072815E0,-2.943029938E0,4.516408081E0,5.636977131E0
1.398968908E1,-2.401755524E0,-2.903811493E0,4.195176086E0,5.639153587E0
1.399973208E1,-3.054847412E0,-2.821632385E0,3.873644714E0,5.683205557E0
1.400977508E1,-3.595223694E0,-2.809208221E0,3.871100006E0,5.983535702E0
1.401981808E1,-4.102219391E0,-2.893932037E0,3.664080505E0,6.215185638E0
1.402986108E1,-4.607568512E0,-3.001258850E0,2.930007019E0,6.230745012E0
1.403990308E1,-4.854554901E0,-3.040477295E0,2.179168396E0,6.128619777E0
1.404994608E1,-4.450994110E0,-3.203638000E0,1.927691345E0,5.812971609E0
1.405998908E1,-2.993325348E0,-3.825594635E0,1.684447174E0,5.141257943E0
1.407003208E1,-1.044677582E0,-5.267845459E0,-4.281097412E-2,5.370603300E0
1.408007508E1,2.440524902E0,-7.899822235E0,-1.096739319E1,1.373488502E1
1.409011808E1,1.408675644E1,-1.324730209E1,-3.859334473E1,4.316681569E1
1.410016108E1,1.756327698E1,-2.100551880E1,-2.336880432E1,3.599724342E1
1.411020308E1,1.412387924E1,-2.451826401E1,-2.543361053E0,2.840946885E1
1.412024608E1,1.409813278E1,-2.471435623E1,-3.563190308E0,2.867495557E1
1.413028908E1,1.201820801E1,-2.258683044E1,-4.747976532E0,2.602201980E1
1.414033208E1,9.458830261E0,-1.671349411E1,-3.791166229E0,1.957506824E1
1.415037508E1,6.932982788E0,-9.385183411E0,-1.158441010E0,1.172560888E1
1.416041808E1,4.439917145E0,-5.202730865E0,1.406774597E0,6.982856685E0
1.417046108E1,2.376158752E0,-2.978356476E0,2.361788635E0,4.482720521E0
1.418050308E1,9.725276184E-1,-2.293530579E0,2.484234009E0,3.518168713E0
1.419054608E1,5.822891235E-2,-3.882326660E0,2.997516632E0,4.905196924E0
1.420058908E1,-4.683760071E-1,-6.974745941E0,4.085154877E0,8.096600978E0
1.421063208E1,-1.194515991E-1,-1.010862900E1,4.193978577E0,1.094477525E1
1.422067508E1,1.641636200E0,-1.363843872E1,-4.255650330E-1,1.374347430E1
1.423071808E1,4.411027222E0,-1.747795441E1,-8.065377960E0,1.974807264E1
1.424076008E1,4.649181976E0,-1.899400177E1,-6.218817902E0,2.051976346E1
1.425080308E1,2.876568146E0,-1.664014664E1,1.755549316E0,1.697795859E1
1.426084608E1,3.535647583E-1,-1.213840805E1,8.141120453E0,1.461997949E1
1.427088908E1,-1.814826050E0,-8.870703278E0,9.109007721E0,1.284355838E1
1.428093208E1,-2.581232300E0,-7.332651672E0,6.504573669E0,1.013607515E1
1.429097508E1,-2.255958710E0,-6.811884613E0,4.230951691E0,8.330190507E0
1.430101708E1,-1.470242615E0,-7.007378082E0,2.799179077E0,7.687676140E0
1.431106008E1,-7.313790894E-1,-7.748337250E0,2.135309601E0,8.070389867E0
1.432110308E1,-5.598358154E-1,-8.774752808E0,2.073039093E0,9.033670021E0
1.433114608E1,-6.375242615E-1,-9.809850311E0,2.670746155E0,1.018687810E1
1.434118908E1,-3.571572876E-1,-1.075079361E1,3.735032959E0,1.138672893E1
1.435123208E1,5.514532471E-1,-1.075094330E1,4.545298004E0,1.168531627E1
1.436127508E1,4.341272278E0,-1.081770447E1,3.825295258E0,1.226793621E1
1.437131708E1,6.710096283E0,-1.488100479E1,3.493435364E0,1.669352528E1
1.438136008E1,7.394473114E0,-1.378483429E1,3.009342041E0,1.592972155E1
1.439140308E1,7.080725555E0,-1.225905716E1,4.336332550E0,1.480624655E1
1.440144608E1,3.931873627E0,-9.740544434E0,4.757556610E0,1.153135642E1
1.441148908E1,8.901988220E-1,-7.665110321E0,5.764512634E0,9.632028659E0
1.442153208E1,7.664062500E-2,-6.467750244E0,5.068160706E0,8.217293955E0
1.443157508E1,-2.779719543E-1,-6.743177490E0,3.318000183E0,7.520427932E0
1.444161708E1,-1.018032990E0,-7.517367554E0,2.121837616E0,7.877144214E0
1.445166008E1,-1.368154907E0,-8.081993408E0,1.350791016E0,8.307532827E0
1.446170308E1,-1.206191711E0,-8.433163147E0,6.749464417E-1,8.545682641E0
1.447174608E1,-9.306147766E-1,-8.636889496E0,1.194515991E-1,8.687702384E0
1.448178908E1,-9.069639587E-1,-8.752000122E0,-2.650987244E-1,8.802861301E0
1.449183208E1,-1.048569489E0,-8.768166504E0,-5.355862427E-1,8.846869188E0
1.450187408E1,-1.081650696E0,-8.610394592E0,-7.345225525E-1,8.709097924E0
1.451191708E1,-9.232800293E-1,-8.394393768E0,-8.045768738E-1,8.483256255E0
1.452196008E1,-5.011578369E-1,-8.273145905E0,-8.478369141E-1,8.331562265E0
1.453200308E1,2.314187622E-1,-8.738677826E0,-2.237996063E0,9.023672820E0
1.454204608E1,1.392254791E0,-9.366472321E0,-5.343887329E0,1.087319221E1
1.455208908E1,2.447709961E0,-9.593699799E0,-5.655539246E0,1.140243325E1
1.456213208E1,2.670147400E0,-9.756411438E0,-2.492167511E0,1.041768449E1
1.457217408E1,2.353256378E0,-9.822124786E0,-7.708969116E-2,1.010039077E1
1.458221708E1,2.292482758E0,-9.920919342E0,9.172924805E-1,1.022357781E1
1.459226008E1,2.431094513E0,-9.853858795E0,1.490600281E0,1.025819881E1
1.460230308E1,2.802771606E0,-9.682764587E0,1.753004608E0,1.023154357E1
1.461234608E1,3.373684387E0,-9.539961548E0,1.588197327E0,1.024280154E1
1.462238908E1,4.062551880E0,-9.530531158E0,1.461410980E0,1.046284254E1
1.463243108E1,4.735103302E0,-9.798174591E0,1.432371368E0,1.097620683E1
1.464247408E1,4.864434357E0,-1.039677979E1,1.560355225E0,1.158406060E1
1.465251708E1,5.193899231E0,-1.110031677E1,1.960622864E0,1.241119107E1
1.466256008E1,6.064638519E0,-1.175774963E1,2.372117157E0,1.344066429E1
1.467260308E1,7.641609192E0,-1.208796295E1,2.194736023E0,1.446823782E1
1.468264608E1,9.841584320E0,-1.187360870E1,-8.741821289E-1,1.544679773E1
1.469268908E1,1.332304459E1,-1.130718658E1,-1.073851913E1,2.051028471E1
1.470273108E1,1.416354675E1,-1.156734558E1,-1.334924011E1,2.264093090E1
1.471277408E1,1.239003479E1,-1.186627396E1,-8.505762177E0,1.914861379E1
1.472281708E1,1.018961060E1,-1.176134216E1,-3.938160553E0,1.605199184E1
1.473286008E1,8.265511780E0,-1.182451080E1,-1.694925385E0,1.452620091E1
1.474290308E1,7.342980194E0,-1.232013016E1,-1.361269226E0,1.440687402E1
1.475294608E1,7.493117981E0,-1.296753387E1,5.463638306E-2,1.497687341E1
1.476298908E1,6.933282166E0,-1.352063370E1,2.426454163E0,1.538719003E1
1.477303108E1,6.024821320E0,-1.434077820E1,3.607647858E0,1.596782748E1
1.478307408E1,5.080584869E0,-1.514789978E1,3.914809113E0,1.644983103E1
1.479311708E1,3.816313934E0,-1.570983124E1,4.032165070E0,1.666197481E1
1.480316008E1,3.117117920E0,-1.645438293E1,3.972289581E0,1.721168866E1
1.481320308E1,2.964884491E0,-1.727497650E1,4.171824646E0,1.801719940E1
1.482324608E1,2.860551453E0,-1.773661652E1,4.478686523E0,1.851564077E1
1.483328808E1,2.217638397E0,-1.764680328E1,4.930746460E0,1.845643104E1
1.484333108E1,1.550475769E0,-1.697200653E1,5.406906281E0,1.787981030E1
1.485337408E1,7.940986633E-1,-1.582868408E1,5.685476990E0,1.683753192E1
1.486341708E1,-1.160087585E-1,-1.432760559E1,5.329217834E0,1.528706325E1
1.487346008E1,-1.214274902E0,-1.250514542E1,4.788093109E0,1.344540669E1
1.488350308E1,-1.784588928E0,-1.090886490E1,3.816763000E0,1.169426230E1
1.489354608E1,-2.231260071E0,-9.769434357E0,2.165247345E0,1.025225171E1
1.490358808E1,-3.288212128E0,-8.704249420E0,1.264270935E0,9.390137271E0
1.491363108E1,-4.038601685E0,-7.914491730E0,1.562450867E0,9.021681419E0
1.492367408E1,-4.302053833E0,-7.344028015E0,2.447111206E0,8.856114719E0
1.493371708E1,-4.061803436E0,-6.584208069E0,3.660787354E0,8.558703587E0
1.494376008E1,-3.360811157E0,-5.637426910E0,4.645589447E0,8.040966056E0
1.495380308E1,-2.456840973E0,-4.645140381E0,5.549559631E0,7.642709521E0
1.496384608E1,-1.834584961E0,-3.606749725E0,5.754184113E0,7.034556160E0
1.497388808E1,-1.160536652E0,-2.687361603E0,5.263055420E0,6.022334270E0
1.498393108E1,-9.243278503E-1,-2.165546722E0,4.412973175E0,5.001830348E0
1.499397408E1,-1.240919495E0,-2.108365631E0,3.795806580E0,4.515886891E0
1.500401708E1,-1.862576752E0,-2.307451630E0,3.480711823E0,4.572622876E0
1.501406008E1,-2.562970276E0,-2.574645996E0,3.266956329E0,4.885757085E0
1.502410308E1,-3.182531891E0,-2.868484955E0,3.093317413E0,5.284442051E0
1.503414508E1,-3.659140778E0,-3.169658661E0,2.903063049E0,5.644804897E0
1.504418808E1,-4.005071411E0,-3.401077423E0,2.547851715E0,5.839475405E0
1.505423108E1,-4.097279663E0,-3.565884705E0,2.162552948E0,5.846355242E0
1.506427408E1,-3.589535522E0,-3.820804596E0,1.941163330E0,5.590297676E0
1.507431708E1,-1.646426239E0,-4.470004578E0,1.034498749E0,4.874612594E0
1.508436008E1,5.255570984E-1,-5.979166260E0,-2.321073303E0,6.435372616E0
1.509440308E1,4.512815552E0,-8.655899963E0,-1.282428177E1,1.611683316E1
1.510444508E1,1.412028671E1,-1.376986542E1,-3.120545792E1,3.691574588E1
1.511448808E1,1.709954132E1,-1.958003311E1,-1.799812271E1,3.161810290E1
1.512453108E1,1.490675125E1,-2.282333862E1,-3.111280060E0,2.743712963E1
1.513457408E1,1.383707565E1,-2.325324463E1,-3.813918915E0,2.732625159E1
1.514461708E1,1.028601013E1,-2.033461395E1,-5.187312927E0,2.337106640E1
1.515466008E1,7.108567657E0,-1.400023636E1,-3.850442963E0,1.616676416E1
1.516470308E1,5.333109741E0,-8.189469910E0,-1.262774048E0,9.854140004E0
1.517474508E1,3.772155762E0,-5.325475616E0,1.006956024E0,6.603318110E0
1.518478808E1,2.200124817E0,-3.479664001E0,2.558778992E0,4.847263218E0
1.519483108E1,8.285270691E-1,-2.396516418E0,2.845881958E0,3.811665275E0
1.520487408E1,-3.269201660E-1,-2.949017487E0,2.615660706E0,3.955409190E0
1.521491708E1,-1.243314514E0,-5.467679901E0,3.122656403E0,6.418125699E0
1.522496008E1,-1.590592346E0,-8.460107117E0,3.701652374E0,9.370465663E0
1.523500308E1,-1.278790741E0,-1.159758270E1,3.074905701E0,1.206624529E1
1.524504508E1,-2.754272461E-2,-1.624392059E1,-2.619253235E0,1.645375952E1
1.525508808E1,3.385809174E0,-2.270343796E1,-1.506123001E1,2.745451599E1
1.526513108E1,4.096082153E0,-2.454206451E1,-7.737260284E0,2.605678446E1
1.527517408E1,2.180216217E0,-1.864911896E1,2.637964325E0,1.896053365E1
1.528521708E1,-2.487826538E-1,-1.210577591E1,8.850794678E0,1.499827555E1
1.529526008E1,-2.251617737E0,-8.622669067E0,8.804690552E0,1.252768055E1
1.530530308E1,-2.856958923E0,-6.887477417E0,5.631738739E0,9.344305254E0
1.531534508E1,-2.513423309E0,-6.173911285E0,3.569177856E0,7.561316543E0
1.532538808E1,-1.759590912E0,-6.010900269E0,2.700085144E0,6.820376969E0
1.533543108E1,-1.066382446E0,-6.433321838E0,2.528691559E0,6.994217783E0
1.534547408E1,-6.963519287E-1,-7.134314117E0,2.684068451E0,7.654251589E0
1.535551708E1,-4.523593140E-1,-8.216413879E0,3.102897491E0,8.794433400E0
1.536556008E1,-9.580078125E-2,-9.558373260E0,3.911366272E0,1.032813939E1
1.537560208E1,5.168751526E-1,-1.049692154E1,4.692142639E0,1.150950582E1
1.538564508E1,1.343456268E0,-1.108385101E1,5.154680786E0,1.229745348E1
1.539568808E1,2.172133026E0,-1.134715347E1,5.484894104E0,1.278906240E1
1.540573108E1,2.664608917E0,-1.136781052E1,5.797144775E0,1.303587911E1
1.541577408E1,2.823278961E0,-1.108699448E1,6.016289062E0,1.292625563E1
1.542581708E1,2.827769623E0,-1.052865555E1,5.600902863E0,1.225638534E1
1.543586008E1,2.794239349E0,-1.012898666E1,4.556524658E0,1.145277527E1
1.544590208E1,2.913690948E0,-9.655970306E0,3.279530182E0,1.060578501E1
1.545594508E1,3.016078033E0,-9.125772858E0,2.391726379E0,9.904383475E0
1.546598808E1,3.094664612E0,-8.409662018E0,2.056423645E0,9.193924218E0
1.547603108E1,3.149899750E0,-7.648195496E0,1.898202667E0,8.486456041E0
1.548607408E1,2.897524567E0,-7.124584351E0,1.915117493E0,7.926097766E0
1.549611708E1,2.717149658E0,-7.033573608E0,1.434467010E0,7.675399376E0
1.550616008E1,2.810854797E0,-7.282056885E0,6.168672180E-1,7.830056343E0
1.551620208E1,2.970422974E0,-7.498955841E0,-5.269042969E-2,8.066010639E0
1.552624508E1,3.069666595E0,-7.510930939E0,-5.077441406E-1,8.129867200E0
1.553628808E1,3.057990875E0,-7.475005646E0,-7.643106079E-1,8.112409525E0
1.554633108E1,3.017874298E0,-7.730673981E0,-1.112187195E0,8.373042806E0
1.555637408E1,3.235671387E0,-8.709488525E0,-4.636458435E0,1.038371352E1
1.556641708E1,4.036955109E0,-1.009755203E1,-9.769284668E0,1.461836128E1
1.557646008E1,4.156406708E0,-1.022748184E1,-4.948110352E0,1.209797081E1
1.558650208E1,3.935615845E0,-9.870773621E0,5.688171387E-3,1.062644232E1
1.559654508E1,3.873345337E0,-9.745783539E0,2.019749908E0,1.068000424E1
1.560658808E1,3.517535248E0,-9.668394470E0,2.197580109E0,1.052046882E1
1.561663108E1,3.229384460E0,-9.516759796E0,1.698517914E0,1.019228160E1
1.562667408E1,3.143612823E0,-9.449549561E0,1.248403931E0,1.003667280E1
1.563671708E1,3.183579712E0,-9.551188202E0,1.184786224E0,1.013726266E1
1.564676008E1,3.498674469E0,-9.810598755E0,1.472937012E0,1.051941607E1
1.565680208E1,4.227059784E0,-1.030292496E1,1.921853485E0,1.130096535E1
1.566684508E1,5.047952728E0,-1.076935501E1,2.162552948E0,1.208873316E1
1.567688808E1,5.513334961E0,-1.094479019E1,1.678759003E0,1.236945943E1
1.568693108E1,5.544919281E0,-1.070888077E1,3.095562744E-1,1.206325338E1
1.569697408E1,5.319338379E0,-1.049826874E1,-1.419198761E0,1.185424533E1
1.570701708E1,5.181774445E0,-1.050051407E1,-2.814447327E0,1.204295212E1
1.571706008E1,5.818849640E0,-1.107172623E1,-3.463796997E0,1.297844453E1
1.572710208E1,7.180567932E0,-1.246862137E1,-3.231929169E0,1.474694683E1
1.573714508E1,8.002808075E0,-1.362975677E1,-3.242706757E0,1.613475609E1
1.574718808E1,8.175548859E0,-1.366807709E1,-3.888463898E0,1.639439178E1
1.575723108E1,7.841743011E0,-1.280901352E1,-5.024002533E0,1.583680404E1
1.576727408E1,7.497908020E0,-1.222597595E1,-6.082900543E0,1.557866463E1
1.577731708E1,7.410639496E0,-1.232956055E1,-4.526137848E0,1.508050280E1
1.578736008E1,6.961423645E0,-1.254660919E1,-2.652484131E-1,1.435092952E1
1.579740208E1,6.431675262E0,-1.299612442E1,3.210373993E0,1.485167323E1
1.580744508E1,5.433251495E0,-1.342408447E1,4.657863922E0,1.521255935E1
1.581748808E1,4.060755615E0,-1.375818970E1,4.713398438E0,1.509945843E1
1.582753108E1,3.172053680E0,-1.430155975E1,4.505181427E0,1.532622575E1
1.583757408E1,3.146756287E0,-1.482951187E1,4.471501465E0,1.580540486E1
1.584761708E1,3.245251465E0,-1.546913177E1,4.587061157E0,1.645803223E1
1.585766008E1,2.995570679E0,-1.610800323E1,4.739593964E0,1.705593629E1
1.586770208E1,2.574645996E0,-1.616428619E1,5.046306152E0,1.712828526E1
1.587774508E1,2.115999756E0,-1.552795944E1,5.302573242E0,1.654425164E1
1.588778808E1,1.486259308E0,-1.434317322E1,4.829107819E0,1.520709923E1
1.589783108E1,5.589376831E-1,-1.302905594E1,4.177512817E0,1.369380602E1
1.590787408E1,-4.282594299E-1,-1.229812592E1,3.045267334E0,1.267678825E1
1.591791708E1,-1.312470703E0,-1.126736938E1,1.027613068E0,1.139000355E1
1.592796008E1,-2.227517853E0,-1.031684601E1,-5.665718079E-1,1.056977535E1
1.593800208E1,-2.839595032E0,-9.682465210E0,6.376739502E-2,1.009046574E1
1.594804508E1,-2.716101837E0,-9.322763214E0,1.719474335E0,9.861425613E0
1.595808808E1,-2.721340942E0,-9.050479431E0,3.550017700E0,1.009551881E1
1.596813108E1,-2.820434875E0,-8.605754242E0,4.893773346E0,1.029382711E1
1.597817408E1,-2.365081787E0,-7.829318848E0,5.177732849E0,9.679915440E0
1.598821708E1,-1.717528381E0,-6.645281067E0,5.078040161E0,8.537924577E0
1.599826008E1,-1.172661438E0,-5.315895538E0,4.949158173E0,7.357176554E0
1.600830208E1,-8.033793640E-1,-4.141437836E0,4.659061432E0,6.285203193E0
1.601834508E1,-8.776249695E-1,-3.434308319E0,4.166286163E0,5.470159012E0
1.602838808E1,-1.394949188E0,-3.280727692E0,3.833827515E0,5.235197306E0
1.603843108E1,-2.034569092E0,-3.357218628E0,3.558849335E0,5.298659915E0
1.604847408E1,-2.701132965E0,-3.480262756E0,3.277584229E0,5.490984112E0
1.605851708E1,-3.248544617E0,-3.527564392E0,3.031645660E0,5.673414146E0
1.606856008E1,-3.655997314E0,-3.505709839E0,2.863245850E0,5.818461535E0
1.607860208E1,-3.976480865E0,-3.451821899E0,2.526745605E0,5.840540887E0
1.608864508E1,-4.160298615E0,-3.380869446E0,1.964664459E0,5.709489400E0
1.609868808E1,-4.143234100E0,-3.354374542E0,1.318308563E0,5.491461995E0
1.610873108E1,-3.699407043E0,-3.556753693E0,9.660910034E-1,5.222015045E0
1.611877408E1,-2.335593109E0,-4.346661072E0,1.471440125E-1,4.936609059E0
1.612881708E1,-1.895059204E-1,-6.101162567E0,-2.524949341E0,6.605714673E0
1.613886008E1,2.564916229E0,-8.632698212E0,-9.169931030E0,1.285262264E1
1.614890208E1,1.005324417E1,-1.273027725E1,-2.278382080E1,2.796837799E1
1.615894508E1,1.694985260E1,-1.821696762E1,-2.076901062E1,3.241152904E1
1.616898808E1,1.602836884E1,-2.191427902E1,-6.262227631E0,2.786323254E1
1.617903075E1,1.473311234E1,-2.286525146E1,-4.289479980E0,2.753695630E1
1.618907375E1,1.172571625E1,-2.078203354E1,-4.989873505E0,2.437794448E1
1.619911675E1,8.829089813E0,-1.547975967E1,-3.698957977E0,1.820049660E1
1.620915975E1,6.907685394E0,-9.173972626E0,-1.076710968E0,1.153417521E1
1.621920175E1,5.144501953E0,-5.046904907E0,1.318907318E0,7.326436105E0
1.622924475E1,3.361409912E0,-2.785258026E0,2.486629028E0,5.023948924E0
1.623928775E1,1.498234406E0,-1.752405853E0,2.775827637E0,3.608441724E0
1.624933075E1,1.124162292E-1,-2.414778442E0,2.490970001E0,3.471127177E0
1.625937375E1,-8.939410400E-1,-5.321284332E0,2.199376373E0,5.826873429E0
1.626941675E1,-1.000818787E0,-8.475075989E0,2.104324036E0,8.789580815E0
1.627945975E1,-4.667294312E-1,-1.155087982E1,1.515598297E0,1.165923236E1
1.628950175E1,9.144483948E-1,-1.628643219E1,-4.928501129E0,1.704037009E1
1.629954475E1,3.592678986E0,-2.108844635E1,-1.101349731E1,2.406090262E1
1.630958775E1,3.819756775E0,-2.262619858E1,-7.281907196E0,2.407408516E1
1.631963075E1,1.516646118E0,-2.003688309E1,-1.162632294E0,2.012780696E1
1.632967375E1,-9.675878906E-1,-1.528306870E1,5.491630096E0,1.626857142E1
1.633971675E1,-2.289189606E0,-1.133742371E1,8.171806641E0,1.416177916E1
1.634975975E1,-2.696642303E0,-8.684041443E0,6.514004059E0,1.118555785E1
1.635980275E1,-2.611619110E0,-6.929240570E0,4.266577606E0,8.546263144E0
1.636984475E1,-1.804347839E0,-5.772446136E0,3.117417297E0,6.804049980E0
1.637988775E1,-6.652166748E-1,-5.320086823E0,3.033890991E0,6.160384044E0
1.638993075E1,1.478924561E-1,-5.788612518E0,3.744613037E0,6.895798276E0
1.639997375E1,8.187973022E-1,-7.001540222E0,4.553680573E0,8.392139254E0
1.641001675E1,1.349892883E0,-9.069040833E0,4.979694672E0,1.043393844E1
1.642005975E1,2.066303101E0,-1.127350662E1,4.934039612E0,1.247823333E1
1.643010275E1,2.927911377E0,-1.250379822E1,5.297334137E0,1.389170198E1
1.644014475E1,3.407514038E0,-1.306722656E1,5.383554840E0,1.453775171E1
1.645018775E1,3.074456635E0,-1.446157700E1,5.575455780E0,1.580111388E1
1.646023075E1,3.249592438E0,-1.456261688E1,5.103187866E0,1.576934329E1
1.647027375E1,3.447181549E0,-1.362062576E1,4.193080444E0,1.466241557E1
1.648031675E1,3.976630554E0,-1.126242966E1,3.061733093E0,1.233004955E1
1.649035975E1,3.727398834E0,-9.313781891E0,1.770967255E0,1.018706828E1
1.650040275E1,2.880160675E0,-7.972870331E0,7.894583130E-1,8.513825888E0
1.651044475E1,2.183209991E0,-6.785090332E0,6.286926270E-2,7.127959682E0
1.652048775E1,1.584455109E0,-5.621709595E0,-9.629475403E-1,5.919576397E0
1.653053075E1,6.954537964E-1,-4.419409790E0,-4.656217346E0,6.457181959E0
1.654057375E1,-8.653504944E-1,-4.138593750E0,-6.731801147E0,7.949461390E0
1.655061675E1,-3.119512939E-1,-5.008285217E0,-3.761677551E0,6.271399559E0
1.656065975E1,8.752299500E-1,-6.601272583E0,-1.370549927E0,6.798620028E0
1.657070275E1,1.072819061E0,-8.379724274E0,-2.356100464E-1,8.451404128E0
1.658074475E1,1.905537415E-1,-1.013662079E1,1.583706665E-1,1.013964856E1
1.659078775E1,-2.791694641E-1,-1.100586319E1,5.760021973E-1,1.102446092E1
1.660083075E1,-3.412902832E-1,-1.130928223E1,6.276448059E-1,1.133182605E1
1.661087375E1,-7.691006470E-1,-1.185834045E1,1.181193695E0,1.194181614E1
1.662091675E1,-5.062472534E-1,-1.221400085E1,2.001637573E0,1.238727800E1
1.663095975E1,-1.148112488E-1,-1.229378494E1,1.023870850E0,1.233688135E1
1.664100275E1,-4.324507141E-1,-1.285811142E1,-1.353186035E-1,1.286609319E1
1.665104475E1,-3.812571716E-1,-1.332648743E1,-1.003812561E0,1.336967703E1
1.666108775E1,-1.815724182E-1,-1.309267365E1,-1.510808258E0,1.318080473E1
1.667113075E1,1.654060364E-1,-1.177286819E1,-1.523232422E0,1.187215320E1
1.668117375E1,5.523513794E-1,-1.001507355E1,-1.278191986E0,1.011140766E1
1.669121675E1,7.801776123E-1,-8.580756226E0,-1.100661163E0,8.686167711E0
1.670125975E1,1.054856415E0,-7.148833923E0,-9.833052063E-1,7.292834679E0
1.671130275E1,1.319655762E0,-6.793472900E0,-1.174757080E0,7.019460063E0
1.672134575E1,1.729353790E0,-7.132218475E0,-1.379531250E0,7.467416647E0
1.673138775E1,2.103425903E0,-7.858358459E0,-1.712289276E0,8.313250434E0
1.674143075E1,2.493215332E0,-8.647816772E0,-2.210004272E0,9.267414769E0
1.675147375E1,2.898871765E0,-9.151818695E0,-1.955832825E0,9.797169233E0
1.676151675E1,2.978057098E0,-9.462273102E0,-1.099463654E0,9.980594003E0
