"Time (s)","Acceleration x (m/s^2)","Acceleration y (m/s^2)","Acceleration z (m/s^2)","Absolute acceleration (m/s^2)"
1.458749990E-3,-6.285130005E0,2.153721313E0,7.111561432E0,9.732198142E0
1.153875003E-2,-6.596482544E0,2.254761200E0,7.257208557E0,1.006303165E1
2.161774994E-2,-6.929839325E0,2.416574707E0,7.380552063E0,1.040841271E1
3.169774998E-2,-7.075187073E0,2.536026306E0,7.203320618E0,1.041045289E1
4.177775001E-2,-7.134912872E0,2.538121948E0,6.854994965E0,1.021469533E1
5.185674992E-2,-7.137607269E0,2.561623077E0,6.549779663E0,1.002032754E1
6.193674996E-2,-7.082671509E0,2.565814362E0,6.287974091E0,9.812556099E0
7.201574999E-2,-7.040159912E0,2.547702026E0,6.142476654E0,9.684247862E0
8.209575003E-2,-7.013814697E0,2.517015839E0,6.112389221E0,9.637959708E0
9.217474994E-2,-7.041207733E0,2.536325684E0,6.249953156E0,9.750562484E0
1.022547500E-1,-7.055877228E0,2.507136383E0,6.374045105E0,9.833594831E0
1.123337500E-1,-7.081473999E0,2.411485291E0,6.581663361E0,9.963976510E0
1.224137499E-1,-7.254963226E0,2.417772217E0,6.842271423E0,1.026142252E1
1.324927500E-1,-7.265142059E0,2.512225800E0,6.875951385E0,1.031369357E1
1.425727500E-1,-7.109615479E0,2.489772491E0,6.609056396E0,1.002123873E1
1.526517500E-1,-6.961124268E0,2.415077820E0,6.259383545E0,9.667974675E0
1.627317499E-1,-6.778204651E0,2.383044434E0,6.025719452E0,9.377219949E0
1.728107500E-1,-6.679709473E0,2.348616028E0,5.880521393E0,9.204077778E0
1.828907500E-1,-6.656657410E0,2.314786377E0,5.837111664E0,9.151021605E0
1.929697499E-1,-6.653813324E0,2.301763458E0,5.882467346E0,9.174680858E0
2.030497500E-1,-6.729256439E0,2.272424469E0,6.097420349E0,9.360840780E0
2.131287500E-1,-6.866371307E0,2.236349487E0,6.358028412E0,9.621478018E0
2.232087500E-1,-6.889872437E0,2.241588593E0,6.587052155E0,9.792053804E0
2.332877499E-1,-6.829697571E0,2.198627930E0,6.547833710E0,9.713540033E0
2.433677500E-1,-6.753206635E0,2.121538239E0,6.456373901E0,9.580787457E0
2.534467500E-1,-6.719227295E0,2.127974854E0,6.423442383E0,9.536084336E0
2.635267499E-1,-6.783593445E0,2.130669250E0,6.485862579E0,9.624100211E0
2.736057499E-1,-6.796017609E0,2.109563141E0,6.516099701E0,9.648609604E0
2.836857500E-1,-6.758745117E0,2.037862244E0,6.477629700E0,9.580877027E0
2.937647500E-1,-6.562652893E0,2.040406952E0,6.411167908E0,9.398656684E0
3.038447499E-1,-6.381828918E0,1.850601654E0,6.181994476E0,9.075765672E0
3.139237500E-1,-6.211034088E0,1.553170166E0,6.028563538E0,8.793910412E0
3.240037500E-1,-6.022426300E0,1.357976074E0,5.921685791E0,8.554535649E0
3.340827500E-1,-6.097420349E0,1.189576263E0,5.723497925E0,8.447014567E0
3.441627499E-1,-6.458619232E0,1.004411316E0,5.475014648E0,8.526335079E0
3.542417500E-1,-6.654112701E0,8.026309204E-1,5.182223511E0,8.472123273E0
3.643217500E-1,-6.772366791E0,3.787124634E-1,4.645439758E0,8.221221663E0
3.744017499E-1,-6.733896790E0,-2.276765442E-1,4.048181763E0,7.860342115E0
3.844807500E-1,-6.513255615E0,-7.824229431E-1,3.718417511E0,7.540644081E0
3.945597500E-1,-6.499484253E0,-1.452729034E0,3.650009766E0,7.594490667E0
4.046397500E-1,-6.497837677E0,-1.876048737E0,3.797303467E0,7.756350105E0
4.147197499E-1,-6.490652618E0,-2.052382050E0,3.902684326E0,7.846769300E0
4.247987500E-1,-6.848258972E0,-2.387235718E0,3.606300659E0,8.099564789E0
4.348787500E-1,-7.443121948E0,-2.696492615E0,3.087629242E0,8.497328468E0
4.449577499E-1,-7.873027954E0,-2.809357910E0,2.594853973E0,8.752732612E0
4.550377500E-1,-8.137078857E0,-3.049308929E0,1.748513947E0,8.863838802E0
4.651167500E-1,-8.371192017E0,-3.250340881E0,6.610253906E-1,9.004361509E0
4.751967500E-1,-8.474327545E0,-3.323987732E0,-2.817141724E-1,9.107276468E0
4.852757499E-1,-8.635691986E0,-3.287763062E0,-1.034049683E0,9.298054677E0
4.953557500E-1,-8.781638489E0,-3.143463135E0,-1.522334290E0,9.450716201E0
5.054347500E-1,-8.968000946E0,-3.048560486E0,-1.605860596E0,9.607161405E0
5.155147499E-1,-8.977131958E0,-2.875220947E0,-1.265767822E0,9.510939063E0
5.255937499E-1,-8.958271179E0,-2.714455261E0,-8.593629456E-1,9.399861412E0
5.356737500E-1,-8.959768066E0,-2.700234833E0,-7.050338745E-1,9.384337202E0
5.457527500E-1,-9.120384064E0,-2.743045807E0,-6.146218872E-1,9.543765810E0
5.558327499E-1,-9.502539368E0,-2.609673157E0,-3.414399719E-1,9.860285476E0
5.659117500E-1,-9.797126770E0,-2.423161011E0,-4.520599365E-2,1.009244499E1
5.759917500E-1,-1.010892838E1,-2.164798279E0,2.092648315E-1,1.034024063E1
5.860707500E-1,-1.041040146E1,-1.787133636E0,4.867877197E-1,1.057389557E1
5.961507499E-1,-1.058194473E1,-1.294208679E0,7.444020081E-1,1.068675183E1
6.062297500E-1,-1.065439407E1,-8.569679260E-1,1.105900269E0,1.074586071E1
6.163097500E-1,-1.069660629E1,-4.887336731E-1,1.697769470E0,1.084152517E1
6.263887499E-1,-1.051638107E1,-6.137237549E-3,2.426154785E0,1.079261486E1
6.364687500E-1,-1.043075912E1,8.312214661E-1,2.803520050E0,1.083288464E1
6.465477500E-1,-1.037866745E1,1.573378143E0,2.519261169E0,1.079531999E1
6.566277500E-1,-1.030247589E1,2.347418518E0,2.316283264E0,1.081741889E1
6.667067499E-1,-1.040980270E1,3.374582520E0,2.604434052E0,1.124877221E1
6.767867500E-1,-1.055380325E1,4.321213989E0,3.318898315E0,1.187732038E1
6.868657500E-1,-1.046234344E1,5.263953552E0,3.862867126E0,1.233254150E1
6.969457499E-1,-1.032343231E1,5.961502991E0,3.485052795E0,1.242007913E1
7.070247500E-1,-1.042417282E1,6.609804840E0,2.583327942E0,1.261057026E1
7.171047500E-1,-1.049332901E1,7.570507050E0,1.609303436E0,1.303887987E1
7.271837500E-1,-1.066786606E1,8.589438171E0,5.185217285E-1,1.370586295E1
7.372637499E-1,-1.121767273E1,9.455237732E0,1.287322998E-2,1.467098728E1
7.473427500E-1,-1.204919357E1,1.020966888E1,5.022056580E-1,1.580103209E1
7.574227500E-1,-1.259885056E1,1.057925034E1,1.595382385E0,1.652866655E1
7.675027499E-1,-1.327843735E1,1.064406555E1,2.564616852E0,1.721017982E1
7.775817499E-1,-1.382465149E1,1.080602875E1,3.293451233E0,1.785323688E1
7.876617500E-1,-1.439481583E1,1.115615067E1,3.760779419E0,1.859607169E1
7.977407500E-1,-1.542407547E1,1.157063873E1,3.590134277E0,1.961302753E1
8.078207499E-1,-1.678983536E1,1.203691910E1,2.962040405E0,2.087006651E1
8.178997500E-1,-1.820259750E1,1.255708740E1,2.379751282E0,2.224136273E1
8.279797500E-1,-1.946716782E1,1.291753784E1,2.082918549E0,2.345574463E1
8.380587499E-1,-2.117227203E1,1.293505142E1,1.975292358E0,2.488940414E1
8.481387499E-1,-2.282124298E1,1.232147736E1,2.207459564E0,2.602884579E1
8.582177500E-1,-2.398671936E1,1.101634140E1,2.661016388E0,2.652929497E1
8.682977500E-1,-2.514965103E1,9.572893066E0,3.410657501E0,2.712522467E1
8.783767499E-1,-2.709410751E1,8.480913849E0,4.395908661E0,2.872874126E1
8.884567500E-1,-3.017036041E1,8.022866364E0,5.282514954E0,3.166262775E1
8.985357500E-1,-3.419249634E1,8.025710449E0,5.743107147E0,3.558822999E1
9.086157499E-1,-3.748130722E1,7.980654144E0,5.858816528E0,3.876680233E1
9.186947499E-1,-3.821897324E1,7.052883453E0,5.285359039E0,3.922203590E1
9.287747500E-1,-3.732188873E1,5.118605804E0,4.646188202E0,3.795669333E1
9.388537500E-1,-3.689901810E1,2.422711945E0,4.503385162E0,3.725167845E1
9.489337499E-1,-3.655488373E1,-4.842430115E-1,4.941973114E0,3.689061011E1
9.590127500E-1,-3.535123672E1,-3.162323914E0,5.625751190E0,3.593548813E1
9.690927500E-1,-3.291026276E1,-5.514233093E0,5.741011505E0,3.385928786E1
9.791717500E-1,-3.017784485E1,-7.376061401E0,5.203329620E0,3.149894031E1
9.892517499E-1,-2.735696091E1,-8.623716888E0,4.268224182E0,2.899981967E1
9.993307500E-1,-2.444162338E1,-9.198970642E0,3.276686096E0,2.632015741E1
1.009410750E0,-2.134306686E1,-9.484726410E0,2.436483307E0,2.348239743E1
1.019489750E0,-1.828567474E1,-9.653275909E0,1.861528931E0,2.076094715E1
1.029569750E0,-1.530372574E1,-9.774972839E0,1.145418091E0,1.819522185E1
1.039648750E0,-1.230650848E1,-9.870174866E0,-7.634124756E-3,1.577563188E1
1.049728750E0,-9.220076752E0,-9.905800781E0,-1.834285583E0,1.365647495E1
1.059807750E0,-6.084397430E0,-9.800569611E0,-3.821852417E0,1.215226780E1
1.069887750E0,-2.920127563E0,-9.413624268E0,-5.452860718E0,1.126397607E1
1.079966750E0,-1.856140137E-2,-8.845705261E0,-6.472689972E0,1.096095623E1
1.090046750E0,2.295775909E0,-8.352181549E0,-7.174730072E0,1.124750085E1
1.100125750E0,4.256997528E0,-7.845634918E0,-7.631879425E0,1.174400267E1
1.110205750E0,5.586083679E0,-7.083270264E0,-7.697143707E0,1.185845984E1
1.120284750E0,6.049819336E0,-6.131699066E0,-7.509883118E0,1.142787784E1
1.130364750E0,5.895639954E0,-5.216352539E0,-7.157366180E0,1.063939824E1
1.140443750E0,5.428311768E0,-4.342918854E0,-6.534212036E0,9.540620512E0
1.150523750E0,5.085823975E0,-3.779640198E0,-5.770200806E0,8.570093515E0
1.160603750E0,4.645589447E0,-3.591032410E0,-4.951253815E0,7.680620380E0
1.170682750E0,4.426744537E0,-3.507506104E0,-3.887865143E0,6.856687366E0
1.180762750E0,4.639452209E0,-3.387006683E0,-2.412084045E0,6.230126846E0
1.190841750E0,4.949457550E0,-3.303630066E0,-1.072220306E0,6.046549267E0
1.200921750E0,5.056335297E0,-3.228785706E0,1.460961914E-1,6.001077225E0
1.211000750E0,5.093158722E0,-2.893033905E0,1.304686890E0,6.001009817E0
1.221080750E0,5.080285492E0,-2.548300781E0,1.902094574E0,5.993421504E0
1.231159750E0,4.445755005E0,-2.254761200E0,1.731449432E0,5.276988040E0
1.241239750E0,3.030148773E0,-1.840123444E0,9.834548950E-1,3.678999783E0
1.251318750E0,1.618584137E0,-1.165626068E0,4.595443726E-2,1.995146749E0
1.261398750E0,6.174659729E-1,-5.102888489E-1,-1.084644470E0,1.348374044E0
1.271477750E0,-7.050338745E-2,1.478924561E-1,-2.018702087E0,2.025339730E0
1.281557750E0,-6.935078430E-1,8.195457458E-1,-2.578537903E0,2.793110466E0
1.291636750E0,-1.200503540E0,1.322649536E0,-2.675236816E0,3.216753421E0
1.301716750E0,-1.535207520E0,1.693129120E0,-2.151475983E0,3.138852856E0
1.311795750E0,-1.711690521E0,1.841171265E0,-1.278191986E0,2.820207584E0
1.321875750E0,-2.308050385E0,1.721120911E0,-3.378474426E-1,2.898878173E0
1.331954750E0,-3.504512329E0,1.826352081E0,7.271878052E-1,4.018204909E0
1.342034750E0,-5.331014099E0,2.332000580E0,1.810335388E0,6.093870055E0
1.352113750E0,-7.833210754E0,2.952310638E0,2.210004272E0,8.657912434E0
1.362193750E0,-1.034349060E1,3.634442139E0,2.004631348E0,1.114520140E1
1.372272750E0,-1.267653900E1,4.057312775E0,1.417402496E0,1.338527018E1
1.382352750E0,-1.508473114E1,3.588038635E0,4.462220764E-1,1.551200338E1
1.392431750E0,-1.741194168E1,2.347418518E0,9.190887451E-2,1.756970501E1
1.402511750E0,-1.925880112E1,1.338516541E0,7.578739929E-1,1.932012992E1
1.412590750E0,-2.046948349E1,1.047521667E0,2.100432129E0,2.060361306E1
1.422670750E0,-2.244028519E1,8.358618164E-1,4.217779083E0,2.284851690E1
1.432749750E0,-2.504995834E1,3.462300110E-1,5.864953766E0,2.572970989E1
1.442829750E0,-2.646481613E1,3.061134338E-1,6.215075684E0,2.718652909E1
1.452908750E0,-2.725996262E1,8.102650452E-1,6.384523315E0,2.800935967E1
1.462988750E0,-2.770543625E1,1.240919495E0,6.528074799E0,2.849117126E1
1.473067750E0,-2.641586792E1,1.664987640E0,6.575675812E0,2.727287616E1
1.483147750E0,-2.330877914E1,1.715283051E0,6.640790405E0,2.429694381E1
1.493226250E0,-1.962359253E1,1.385219421E0,6.599176941E0,2.074977959E1
1.503306250E0,-1.655272842E1,1.236877899E0,6.406377869E0,1.779225569E1
1.513385250E0,-1.427207108E1,1.327289886E0,6.390361176E0,1.569364289E1
1.523465250E0,-1.258073822E1,1.569486237E0,6.397097168E0,1.420074341E1
1.533544250E0,-1.148875900E1,1.955383759E0,6.142925720E0,1.317386221E1
1.543624250E0,-1.072953781E1,2.486179962E0,5.435347137E0,1.228198156E1
1.553703250E0,-1.011267059E1,3.042872314E0,4.429289246E0,1.145180255E1
1.563783250E0,-9.606273651E0,3.467539215E0,3.329975281E0,1.074211604E1
1.573862250E0,-9.076974335E0,3.709735565E0,2.280507660E0,1.006748808E1
1.583942250E0,-8.296497345E0,3.630101166E0,1.144819336E0,9.127985209E0
1.594021250E0,-7.447313232E0,3.485352173E0,1.990859985E-1,8.224949203E0
1.604101250E0,-6.652017059E0,3.394491119E0,-5.712121582E-1,7.489872112E0
1.614180250E0,-6.108647003E0,3.328478394E0,-1.152004395E0,7.051343897E0
1.624260250E0,-5.921685791E0,3.319197693E0,-1.388063507E0,6.928936154E0
1.634339250E0,-6.154002686E0,3.335513763E0,-1.231788483E0,7.107369695E0
1.644419250E0,-6.473438416E0,3.240910492E0,-9.807604980E-1,7.305531938E0
1.654498250E0,-6.985074463E0,2.890339508E0,-5.908213806E-1,7.582506026E0
1.664578250E0,-7.724985809E0,2.494562531E0,-5.733078003E-2,8.117976028E0
1.674657250E0,-8.241262207E0,2.036515045E0,3.119512939E-1,8.494887280E0
1.684737250E0,-8.786578217E0,1.446891174E0,5.207670593E-1,8.920126073E0
1.694816250E0,-9.230554962E0,9.421408081E-1,7.417076111E-1,9.308109604E0
1.704896250E0,-9.315877533E0,6.167175293E-1,9.556127930E-1,9.385047178E0
1.714975250E0,-9.292975159E0,3.957769775E-1,1.080453186E0,9.363941788E0
1.725055250E0,-9.459429016E0,3.472778320E-1,1.307680664E0,9.555701331E0
1.735134250E0,-9.928553467E0,2.917433167E-1,1.590292969E0,1.005933993E1
1.745214250E0,-1.039588165E1,3.053649902E-1,1.788331146E0,1.055299632E1
1.755293250E0,-1.104463257E1,3.387455750E-1,1.764680328E0,1.118985048E1
1.765373250E0,-1.173335037E1,4.369413757E-1,1.639690247E0,1.185542124E1
1.775452250E0,-1.225995529E1,5.493576050E-1,1.644779663E0,1.238198682E1
1.785532250E0,-1.232776428E1,4.836442566E-1,1.635199585E0,1.244514209E1
1.795611250E0,-1.216595078E1,4.433779907E-1,1.684297485E0,1.228998781E1
1.805691250E0,-1.182555862E1,4.183799744E-1,1.864073639E0,1.197888347E1
1.815770250E0,-1.117291580E1,3.484753418E-1,1.970652008E0,1.135072473E1
1.825850250E0,-1.052012329E1,2.953358459E-1,1.956880646E0,1.070465316E1
1.835929250E0,-9.941127319E0,3.008743286E-1,1.753303986E0,1.009904018E1
1.846009250E0,-9.315129089E0,3.782633972E-1,1.466201019E0,9.437396812E0
1.856088250E0,-8.836274872E0,4.264631653E-1,1.130000153E0,8.918437351E0
1.866168250E0,-8.631500702E0,4.337979126E-1,8.068222046E-1,8.679973909E0
1.876247250E0,-8.648116150E0,5.189707947E-1,6.358776855E-1,8.686977844E0
1.886327250E0,-8.699758759E0,6.598278809E-1,5.954617310E-1,8.745041450E0
1.896406250E0,-8.391699371E0,7.225474548E-1,6.357279968E-1,8.446706059E0
1.906486250E0,-7.899672546E0,8.000862122E-1,7.435038757E-1,7.974820518E0
1.916565250E0,-7.290888519E0,7.735913086E-1,7.701484680E-1,7.372152167E0
1.926645250E0,-6.924749908E0,7.683522034E-1,7.891589355E-1,7.011797076E0
1.936724250E0,-6.739734650E0,7.957452393E-1,8.318202209E-1,6.837335630E0
1.946804250E0,-6.574328613E0,9.375004578E-1,1.015188904E0,6.717984246E0
1.956883250E0,-6.446494446E0,1.111289062E0,9.892927551E-1,6.615962075E0
1.966963250E0,-6.450386353E0,1.332528992E0,7.523355103E-1,6.629413725E0
1.977042250E0,-6.661746826E0,1.532064056E0,5.313949585E-1,6.856272431E0
1.987122250E0,-6.842421112E0,1.804796906E0,2.989283752E-1,7.082752058E0
1.997201250E0,-6.819967804E0,2.223476257E0,-6.945556641E-2,7.173606596E0
2.007281250E0,-6.653813324E0,2.579735413E0,-3.766168213E-1,7.146335199E0
2.017360250E0,-6.452332306E0,2.888393555E0,-2.996768188E-1,7.075677756E0
2.027440250E0,-6.110892334E0,3.231330414E0,-9.131011963E-3,6.912639491E0
2.037519250E0,-5.732628937E0,3.394790497E0,2.769241333E-1,6.668157468E0
2.047599250E0,-5.575156403E0,3.477268982E0,7.628137207E-1,6.614805610E0
2.057678250E0,-5.657036133E0,3.543132019E0,1.321901093E0,6.804650234E0
2.067758250E0,-5.992638245E0,3.591780853E0,1.699116669E0,7.190243409E0
2.077837250E0,-6.438860321E0,3.629203033E0,1.466051331E0,7.535206925E0
2.087917250E0,-7.330406342E0,4.027524719E0,9.653425598E-1,8.419483283E0
2.097996250E0,-8.042774963E0,4.957391052E0,3.038681030E-1,9.452739866E0
2.108076250E0,-9.286388855E0,6.100713501E0,-4.540058899E-1,1.112033473E1
2.118155250E0,-1.137529495E1,7.280709686E0,-6.294410706E-1,1.352043878E1
2.128235250E0,-1.372046814E1,8.474177856E0,-1.121168518E-1,1.612685668E1
2.138314250E0,-1.581341583E1,9.481433258E0,6.918612671E-1,1.845102623E1
2.148394250E0,-1.780173111E1,9.990075531E0,2.319576416E0,2.054467509E1
2.158473250E0,-1.939202408E1,1.039154068E1,4.597090302E0,2.247594169E1
2.168553250E0,-2.052681427E1,1.053883438E1,6.199807434E0,2.389256676E1
2.178632250E0,-2.163720520E1,1.024050476E1,7.122638397E0,2.497535914E1
2.188712250E0,-2.379317184E1,9.550290070E0,7.977810059E0,2.685085697E1
2.198791250E0,-2.559632217E1,9.042845306E0,8.523275757E0,2.845331246E1
2.208871250E0,-2.713392471E1,8.801098022E0,8.509055328E0,2.976765391E1
2.218950250E0,-2.965168900E1,8.940458221E0,8.526419220E0,3.212248867E1
2.229030250E0,-3.260549652E1,8.868008881E0,8.488697662E0,3.483989054E1
2.239109250E0,-3.405747711E1,8.167765045E0,8.212671661E0,3.597321377E1
2.249189250E0,-3.429982315E1,6.938820648E0,7.891439667E0,3.587338735E1
2.259268250E0,-3.356664780E1,5.558690643E0,7.149582367E0,3.476687236E1
2.269348250E0,-3.197470825E1,3.543431396E0,6.261778564E0,3.277419327E1
2.279427250E0,-2.885549469E1,1.835483093E0,5.559139709E0,2.944337967E1
2.289507250E0,-2.508857803E1,7.809260559E-1,4.516258392E0,2.550378762E1
2.299586250E0,-2.154858948E1,4.924758911E-2,3.533102875E0,2.183636759E1
2.309666250E0,-1.804093369E1,-6.935078430E-1,2.451751556E0,1.821997056E1
2.319745250E0,-1.457309509E1,-1.276096344E0,1.459914093E0,1.470152617E1
2.329825250E0,-1.139325760E1,-1.767973480E0,8.167016602E-1,1.155850555E1
2.339904250E0,-8.859177246E0,-2.149080963E0,5.207670593E-1,9.130978523E0
2.349984250E0,-6.867119751E0,-2.222727814E0,2.950364685E-1,7.223911622E0
2.360063250E0,-5.523214417E0,-2.367327118E0,2.140548706E-2,6.009209047E0
2.370143250E0,-4.502187653E0,-2.786305847E0,-3.387455750E-1,5.305463457E0
2.380222250E0,-3.018772430E0,-3.539539490E0,-8.349636841E-1,4.726361300E0
2.390302250E0,-1.299597473E0,-4.184548187E0,-1.592987366E0,4.662296202E0
2.400381250E0,2.161505127E-1,-4.817132721E0,-2.847678223E0,5.600067853E0
2.410461250E0,1.584006042E0,-5.272036743E0,-4.365372162E0,7.025661583E0
2.420540250E0,2.910397797E0,-5.410798187E0,-5.748795319E0,8.414024006E0
2.430620250E0,3.964505768E0,-5.440586243E0,-6.842870178E0,9.599070628E0
2.440699250E0,4.700974274E0,-5.513933716E0,-7.301815796E0,1.028684296E1
2.450779250E0,4.931794281E0,-5.650749207E0,-7.049440613E0,1.029311296E1
2.460858250E0,4.941973114E0,-5.728437653E0,-6.370003510E0,9.890148680E0
2.470938250E0,4.640949097E0,-5.545218658E0,-5.521867218E0,9.098289733E0
2.481017250E0,4.086352386E0,-5.184019775E0,-4.653223572E0,8.076188858E0
2.491097792E0,3.412902832E0,-4.729115753E0,-3.763174438E0,6.940743721E0
2.501176792E0,2.609373779E0,-4.081262970E0,-2.938239899E0,5.665579640E0
2.511256792E0,1.751358032E0,-3.366349640E0,-2.242337036E0,4.407679689E0
2.521335792E0,1.104403381E0,-2.606829071E0,-1.743574219E0,3.324953487E0
2.531415792E0,5.917195129E-1,-1.959575043E0,-1.345102844E0,2.449360731E0
2.541494792E0,1.239422607E-1,-1.459165649E0,-9.999206543E-1,1.773236417E0
2.551574792E0,-1.243913269E-1,-1.041683807E0,-6.343807983E-1,1.225976082E0
2.561653792E0,-1.142124939E-1,-8.138575745E-1,-2.743794250E-1,8.664252502E-1
2.571733792E0,-2.200424194E-2,-6.649172974E-1,1.206491089E-1,6.761326841E-1
2.581812792E0,2.065704346E-2,-6.042933655E-1,4.281097412E-1,7.408610771E-1
2.591892792E0,-5.111869812E-1,-4.824467468E-1,7.155120850E-1,1.003007745E0
2.601971792E0,-1.195713501E0,-1.182540894E-1,1.233135681E0,1.721725418E0
2.612051792E0,-1.598974915E0,2.324665833E-1,1.700912933E0,2.346032032E0
2.622130792E0,-1.846859436E0,6.005511475E-1,2.141596527E0,2.891018357E0
2.632210792E0,-2.058668976E0,9.804611206E-1,2.406545563E0,3.315250142E0
2.642289792E0,-2.148482208E0,1.295855255E0,2.067949677E0,3.251404697E0
2.652369792E0,-2.486179962E0,1.784439240E0,1.354982300E0,3.346833016E0
2.662448792E0,-3.355572052E0,2.221081238E0,5.198689270E-1,4.057502848E0
2.672528792E0,-5.139711914E0,2.565365295E0,5.014572144E-2,5.744584602E0
2.682607792E0,-8.272247772E0,2.798580322E0,-1.796264648E-2,8.732837894E0
2.692687792E0,-1.269974075E1,3.057841187E0,4.590953064E-1,1.307075271E1
2.702766792E0,-1.720597000E1,3.472928009E0,1.555864563E0,1.762178615E1
2.712846792E0,-2.049912186E1,4.067491608E0,2.499352570E0,2.104768985E1
2.722925792E0,-2.285462357E1,5.054539032E0,3.277135162E0,2.363518136E1
2.733005792E0,-2.569466766E1,6.225703583E0,4.675078125E0,2.684830883E1
2.743084792E0,-2.874023438E1,6.841073914E0,6.131399689E0,3.017275967E1
2.753164792E0,-3.060760117E1,6.901997223E0,6.786437531E0,3.210169075E1
2.763243792E0,-3.048380859E1,6.741830292E0,6.491251373E0,3.188810447E1
2.773323792E0,-2.798595291E1,6.275549927E0,6.683900757E0,2.944945868E1
2.783402792E0,-2.473441452E1,5.288652191E0,7.409741364E0,2.635650528E1
2.793482792E0,-2.171189987E1,4.456532593E0,8.413104858E0,2.370754336E1
2.803561792E0,-1.894415543E1,3.963757324E0,9.297765198E0,2.147186146E1
2.813641792E0,-1.660197601E1,3.834725647E0,9.660311279E0,1.958704527E1
2.823720792E0,-1.470497086E1,4.252806244E0,9.416019287E0,1.797175417E1
2.833800792E0,-1.306617874E1,4.777914276E0,8.155191193E0,1.612639560E1
2.843879792E0,-1.163799866E1,5.030738525E0,5.737868042E0,1.391669762E1
2.853959792E0,-1.074675201E1,4.987328796E0,2.941083984E0,1.220721518E1
2.864038792E0,-9.939331055E0,5.145849152E0,2.917433167E-1,1.119621273E1
2.874117792E0,-8.564140778E0,5.112468567E0,-2.221979370E0,1.021856323E1
2.884197792E0,-6.830595703E0,4.887935486E0,-4.250411224E0,9.413551219E0
2.894276792E0,-5.306315460E0,4.610113220E0,-5.443430328E0,8.890504002E0
2.904356792E0,-4.314328308E0,4.350253601E0,-5.647006989E0,8.332275984E0
2.914435792E0,-3.772604828E0,4.136797485E0,-5.091212769E0,7.567436031E0
2.924515792E0,-3.538192291E0,3.919000397E0,-4.164190521E0,6.724422020E0
2.934594792E0,-3.446133728E0,3.765719147E0,-3.178789673E0,6.013416845E0
2.944674792E0,-3.529061279E0,3.551215210E0,-2.316283264E0,5.516391134E0
2.954753792E0,-3.927532654E0,3.338507538E0,-1.594783630E0,5.395783553E0
2.964833792E0,-4.538861389E0,2.935994568E0,-1.088087311E0,5.514096554E0
2.974912792E0,-5.065017242E0,2.358196106E0,-8.785231018E-1,5.655730844E0
2.984992792E0,-5.615572357E0,1.590442657E0,-9.756710815E-1,5.917439886E0
2.995071792E0,-6.422843628E0,7.637118530E-1,-9.587562561E-1,6.538760557E0
3.005151792E0,-7.491770782E0,-4.775070190E-2,-6.318360901E-1,7.518518899E0
3.015230792E0,-8.937913513E0,-1.046024780E0,-3.495231628E-1,9.005699987E0
3.025310792E0,-1.045351181E1,-1.754202118E0,-1.748364258E-1,1.060111796E1
3.035389792E0,-1.172556656E1,-1.725910950E0,2.535726929E-1,1.185461846E1
3.045469792E0,-1.270063889E1,-1.202000427E0,8.165519714E-1,1.278349679E1
3.055548792E0,-1.334205505E1,-8.170010376E-1,1.432371368E0,1.344357138E1
3.065628792E0,-1.373244324E1,-6.530918884E-1,2.211800537E0,1.392474732E1
3.075707792E0,-1.371507935E1,-6.123765564E-1,2.737058258E0,1.399892476E1
3.085787792E0,-1.331421295E1,-8.238867188E-1,2.793041840E0,1.362894488E1
3.095866792E0,-1.238614288E1,-1.049317932E0,2.831362152E0,1.274889075E1
3.105946792E0,-1.114447495E1,-1.153501282E0,2.861299896E0,1.156360342E1
3.116025792E0,-9.732311554E0,-1.018032990E0,2.726729736E0,1.015821512E1
3.126105792E0,-8.500223694E0,-7.421566772E-1,2.372266846E0,8.856198359E0
3.136184792E0,-7.454947357E0,-3.228785706E-1,2.268083496E0,7.799018747E0
3.146264792E0,-6.433920593E0,1.212478638E-1,2.201771393E0,6.801311088E0
3.156343792E0,-5.736969910E0,5.143304443E-1,1.861379242E0,6.053271201E0
3.166423792E0,-5.128934326E0,9.822573853E-1,1.462009735E0,5.422939181E0
3.176502792E0,-4.575385437E0,1.469194794E0,9.535171509E-1,4.899171379E0
3.186582792E0,-4.092040558E0,1.864073639E0,6.453080750E-1,4.542685216E0
3.196661792E0,-3.852089539E0,2.188299408E0,5.706134033E-1,4.466861064E0
3.206741792E0,-3.989354095E0,2.465822296E0,6.560856628E-1,4.735575371E0
3.216820792E0,-4.417014771E0,2.776725769E0,9.211843872E-1,5.298000203E0
3.226900792E0,-4.597389679E0,3.113076324E0,1.172362061E0,5.674651431E0
3.236979792E0,-4.721331940E0,3.467688904E0,1.448687439E0,6.034445866E0
3.247059792E0,-4.948858795E0,4.011508026E0,1.982477417E0,6.671852571E0
3.257138792E0,-5.314698029E0,4.581223297E0,2.535577240E0,7.460748888E0
3.267218792E0,-5.895190887E0,5.188660126E0,2.880759430E0,8.365060932E0
3.277297792E0,-6.480473785E0,5.825885010E0,2.877466278E0,9.176997810E0
3.287377792E0,-7.168592834E0,6.152655487E0,2.416724396E0,9.751125554E0
3.297456792E0,-7.479047241E0,6.433172150E0,1.736389160E0,1.001683078E1
3.307536792E0,-7.585326233E0,6.461912384E0,1.132395172E0,1.002874890E1
3.317615792E0,-7.978708191E0,6.421945496E0,9.105564880E-1,1.028252311E1
3.327695792E0,-8.678952026E0,6.654861145E0,1.571731567E0,1.104905993E1
3.337774792E0,-9.941277008E0,7.073241119E0,2.693498840E0,1.249458541E1
3.347853792E0,-1.128727798E1,7.485184479E0,3.795806580E0,1.406551736E1
3.357933792E0,-1.290286835E1,8.039481812E0,4.296515350E0,1.579801644E1
3.368012792E0,-1.552212158E1,8.860524445E0,4.139042816E0,1.834603029E1
3.378092792E0,-1.859822479E1,9.980495453E0,3.853137360E0,2.145578995E1
3.388171792E0,-2.113904114E1,1.128727798E1,3.182681580E0,2.417418389E1
3.398251792E0,-2.283396652E1,1.206865311E1,2.031126251E0,2.590690813E1
3.408330792E0,-2.462334549E1,1.243075012E1,1.874402161E0,2.764680949E1
3.418410792E0,-2.655777283E1,1.220037918E1,3.164419556E0,2.939690631E1
3.428489792E0,-2.801409439E1,1.133308273E1,5.084327087E0,3.064438987E1
3.438569792E0,-2.903586960E1,1.018422180E1,7.186854858E0,3.159827495E1
3.448648792E0,-2.935560471E1,9.463620300E0,8.613238678E0,3.202342139E1
3.458728792E0,-2.992052994E1,9.137598267E0,8.693022766E0,3.247002400E1
3.468807792E0,-3.077240845E1,8.748557281E0,7.711513824E0,3.290814218E1
3.478887792E0,-3.042872314E1,8.507109375E0,5.790408783E0,3.212175176E1
3.488966625E0,-2.962100281E1,8.246052246E0,4.132905579E0,3.102389552E1
3.499046625E0,-2.895698364E1,7.771239624E0,3.005599823E0,3.013192157E1
3.509125625E0,-2.804133774E1,6.963818665E0,2.707569580E0,2.901968858E1
3.519205625E0,-2.583432724E1,5.955365753E0,3.195105743E0,2.670369911E1
3.529284625E0,-2.268218216E1,4.999004517E0,3.423530731E0,2.347747849E1
3.539364625E0,-1.981040405E1,4.073479156E0,3.477268982E0,2.052161643E1
3.549443625E0,-1.662891998E1,3.280428314E0,3.404819641E0,1.728800123E1
3.559523625E0,-1.359772339E1,2.448907471E0,3.030747528E0,1.414498709E1
3.569602625E0,-1.092847412E1,1.961670685E0,2.387535095E0,1.135693719E1
3.579682625E0,-8.948391724E0,1.810036011E0,1.471739502E0,9.247484088E0
3.589761625E0,-7.758516083E0,1.553619232E0,4.944218445E-1,7.927973101E0
3.599841625E0,-7.191495209E0,1.187630310E0,-3.168910217E-1,7.295785702E0
3.609920625E0,-6.656507721E0,7.060816956E-1,-5.432203674E-1,6.715856964E0
3.620000625E0,-5.911207581E0,-2.844085693E-2,-2.489323425E-1,5.916515128E0
3.630079625E0,-4.960983582E0,-8.542735291E-1,1.330732727E-1,5.035757128E0
3.640159625E0,-4.041894836E0,-1.598076782E0,4.496649170E-1,4.369549383E0
3.650238625E0,-3.082390137E0,-2.375859375E0,4.848417664E-1,3.921850107E0
3.660318625E0,-2.055974579E0,-3.201692047E0,2.549198914E-1,3.813508566E0
3.670397625E0,-9.298663330E-1,-4.166435852E0,-3.397933960E-1,4.282440736E0
3.680477625E0,3.212319946E-1,-5.104984131E0,-1.093326416E0,5.230622871E0
3.690556625E0,1.476529541E0,-5.973478088E0,-1.916913757E0,6.444931211E0
3.700636625E0,2.610421600E0,-6.697372742E0,-2.797083435E0,7.713156184E0
3.710715625E0,3.653901672E0,-7.278015289E0,-3.608695679E0,8.907479356E0
3.720794625E0,4.455933838E0,-7.635771332E0,-4.176464996E0,9.777689403E0
3.730874625E0,5.073250122E0,-7.829169159E0,-4.460723877E0,1.034078401E1
3.740953625E0,5.508694611E0,-7.790399780E0,-4.494403839E0,1.054683417E1
3.751033625E0,5.525310059E0,-7.702382813E0,-4.293521576E0,1.040625196E1
3.761112625E0,5.456004181E0,-7.563920746E0,-3.954027557E0,1.012991671E1
3.771192625E0,5.338947601E0,-7.349267120E0,-3.497776337E0,9.733988288E0
3.781271625E0,4.901108093E0,-7.035818939E0,-2.900668030E0,9.051932595E0
3.791351625E0,4.344715118E0,-6.613097992E0,-2.288890228E0,8.237028165E0
3.801430625E0,3.614832916E0,-6.146518250E0,-1.711241455E0,7.333147409E0
3.811510625E0,2.692750397E0,-5.624553680E0,-1.138083344E0,6.338907043E0
3.821589625E0,1.871258698E0,-5.085524597E0,-7.432044983E-1,5.469599845E0
3.831669625E0,1.406325531E0,-4.665498047E0,-4.730163574E-1,4.895749994E0
3.841748625E0,1.164578247E0,-4.316573639E0,-1.562750244E-1,4.473641957E0
3.851828625E0,9.138496399E-1,-4.032464447E0,1.586700439E-1,4.137761093E0
3.861907625E0,3.216810608E-1,-3.749552765E0,3.296145630E-1,3.777733501E0
3.871987625E0,-6.848258972E-1,-3.283721466E0,4.622387695E-1,3.386071153E0
3.882066625E0,-1.811233521E0,-2.650238800E0,4.683760071E-1,3.244026610E0
3.892146625E0,-2.660267944E0,-2.109114075E0,4.203259277E-1,3.420827619E0
3.902225625E0,-3.261268158E0,-1.674867096E0,4.189787292E-1,3.690066797E0
3.912305625E0,-3.924688568E0,-1.260229340E0,5.405259705E-1,4.157346109E0
3.922384625E0,-5.185067596E0,-1.028062134E0,1.068178711E0,5.392851147E0
3.932464625E0,-7.197782135E0,-7.469467163E-1,1.604214020E0,7.412118434E0
3.942543625E0,-1.033630554E1,-2.481838989E-1,1.556163940E0,1.045573784E1
3.952623625E0,-1.472877136E1,9.334588623E-1,1.238374786E0,1.481018647E1
3.962702625E0,-1.952090607E1,2.889591064E0,9.241781616E-1,1.975524273E1
3.972782625E0,-2.414134781E1,5.732329559E0,9.684860229E-1,2.483147683E1
3.982861625E0,-2.926893494E1,9.016799469E0,1.789828033E0,3.067860345E1
3.992941625E0,-3.428365677E1,1.142184814E1,3.380869446E0,3.629404930E1
4.003020625E0,-3.671070969E1,1.282413208E1,4.539609833E0,3.915025705E1
4.013100625E0,-3.591346756E1,1.257145752E1,5.240901489E0,3.840944864E1
4.023179625E0,-3.204356506E1,1.115285751E1,6.593189392E0,3.456365778E1
4.033258625E0,-2.702255630E1,9.451944580E0,8.425229645E0,2.984195537E1
4.043338625E0,-2.235211853E1,8.240663452E0,1.009156448E1,2.587209714E1
4.053417625E0,-1.866842880E1,7.794441376E0,1.097637451E1,2.301617578E1
4.063497625E0,-1.640363846E1,7.756570129E0,1.078222824E1,2.110687520E1
4.073576625E0,-1.501332962E1,7.526648254E0,9.654922485E0,1.937183596E1
4.083656625E0,-1.395248566E1,7.139104156E0,7.730823669E0,1.747582040E1
4.093735625E0,-1.278955399E1,6.790030060E0,5.494773560E0,1.548772856E1
4.103815625E0,-1.158905045E1,6.359375610E0,3.183579712E0,1.359716618E1
4.113894625E0,-1.042162811E1,5.909860382E0,1.174457703E0,1.203811169E1
4.123974625E0,-9.241332550E0,5.619314575E0,-3.924838257E-1,1.082279849E1
4.134053625E0,-8.357570343E0,5.463338928E0,-1.742825775E0,1.013580268E1
4.144133625E0,-7.858059082E0,5.257367249E0,-2.874921570E0,9.882012799E0
4.154212625E0,-7.563471680E0,5.147046661E0,-3.260968781E0,9.712471908E0
4.164292625E0,-7.624993744E0,5.104085999E0,-2.938090210E0,9.634552276E0
4.174371625E0,-7.800728302E0,4.808450775E0,-2.481689301E0,9.493752824E0
4.184451625E0,-7.880961456E0,4.412075043E0,-2.128274231E0,9.279305516E0
4.194530625E0,-7.899073792E0,3.964505768E0,-1.695524139E0,8.999304132E0
4.204610625E0,-7.683372345E0,3.584895172E0,-1.161734161E0,8.557763157E0
4.214689625E0,-7.352260895E0,3.197051697E0,-7.045848083E-1,8.048187347E0
4.224769625E0,-7.033573608E0,2.771636353E0,-2.938389587E-1,7.565676910E0
4.234848625E0,-6.800358582E0,2.304008789E0,2.276765442E-1,7.183673847E0
4.244928625E0,-6.694977722E0,1.826950836E0,9.325607300E-1,7.002152924E0
4.255007625E0,-6.868616638E0,1.145717468E0,1.550775146E0,7.134105872E0
4.265087625E0,-7.209158478E0,4.773573303E-1,2.231260071E0,7.561637222E0
4.275166625E0,-7.366181946E0,1.451980591E-2,2.894979858E0,7.914654488E0
4.285245625E0,-7.646848297E0,-3.632945251E-1,3.216062164E0,8.303573185E0
4.295325625E0,-8.124654694E0,-5.745053101E-1,3.326831818E0,8.798174821E0
4.305404625E0,-8.317453766E0,-4.605921936E-1,3.378175049E0,8.989118365E0
4.315484625E0,-8.073910217E0,-3.911366272E-1,3.196452942E0,8.692429204E0
4.325563625E0,-7.903714142E0,-3.736230469E-1,3.002755737E0,8.463145599E0
4.335643625E0,-7.785160675E0,-3.400927734E-1,2.928061066E0,8.324537911E0
4.345722625E0,-7.868836670E0,-3.974235535E-1,2.946622467E0,8.411844030E0
4.355802625E0,-8.242010651E0,-5.204676819E-1,2.897225189E0,8.751887795E0
4.365881625E0,-8.536598053E0,-5.637277222E-1,2.790347443E0,8.998740696E0
4.375961625E0,-8.882229309E0,-4.568499756E-1,2.561772766E0,9.255559902E0
4.386040625E0,-9.295070801E0,-2.055226135E-1,2.254312134E0,9.566739462E0
4.396120625E0,-9.120533752E0,5.867797852E-2,1.825603638E0,9.301634678E0
4.406199625E0,-8.675359497E0,1.576222229E-1,1.280137939E0,8.770716066E0
4.416279625E0,-8.263416138E0,1.851649475E-1,8.653504944E-1,8.310665665E0
4.426358625E0,-7.992629242E0,1.252894592E-1,6.119274902E-1,8.016999121E0
4.436438625E0,-7.889344025E0,8.352630615E-2,4.498146057E-1,7.902598241E0
4.446517625E0,-7.956105194E0,1.736389160E-2,3.799099731E-1,7.965189449E0
4.456597625E0,-8.342751160E0,7.095245361E-2,1.863624573E-1,8.345134039E0
4.466676625E0,-8.783285065E0,1.157093811E-1,1.706451416E-2,8.784063774E0
4.476756625E0,-9.189390564E0,1.423539734E-1,-1.215472412E-1,9.191296825E0
4.486835625E0,-9.411678314E0,2.342628479E-1,-7.050338745E-2,9.414857328E0
4.496915667E0,-9.359287262E0,1.374142456E-1,1.167572021E-2,9.360303256E0
4.506994667E0,-9.180259552E0,7.095245361E-2,1.155596924E-1,9.181261010E0
4.517074667E0,-9.128616943E0,-4.610412598E-2,2.115101624E-1,9.131183354E0
4.527153667E0,-9.441017303E0,-3.384461975E-1,1.886077881E-2,9.447100575E0
4.537232667E0,-9.883497162E0,-6.478527832E-1,-3.312611389E-1,9.910245371E0
4.547312667E0,-1.054197784E1,-1.134939880E0,-7.791297913E-1,1.063148290E1
4.557391667E0,-1.162886765E1,-1.848506012E0,-1.381177826E0,1.185559739E1
4.567471667E0,-1.281559982E1,-2.502046967E0,-1.939217377E0,1.320077278E1
4.577550667E0,-1.396461044E1,-2.913541260E0,-2.681972809E0,1.451523495E1
4.587630667E0,-1.498593658E1,-3.402125244E0,-3.624862061E0,1.578899542E1
4.597709667E0,-1.577569427E1,-3.911815338E0,-3.960314484E0,1.672898443E1
4.607789667E0,-1.633133881E1,-4.498445435E0,-3.113824768E0,1.722337200E1
4.617868667E0,-1.683803513E1,-4.765789490E0,-1.071471863E0,1.753226250E1
4.627948667E0,-1.786385193E1,-5.123096466E0,6.304888916E-1,1.859464545E1
4.638027667E0,-1.864148483E1,-5.242098999E0,2.206262054E0,1.948979607E1
4.648107667E0,-1.952225327E1,-4.801116028E0,3.970193939E0,2.049223091E1
4.658186667E0,-2.100896164E1,-3.803141327E0,4.966522064E0,2.192046292E1
4.668266667E0,-2.236394394E1,-2.373015289E0,4.773273926E0,2.299046181E1
4.678345667E0,-2.308873672E1,-9.060658264E-1,3.988306274E0,2.344818342E1
4.688425667E0,-2.404524765E1,5.147795105E-1,3.528312836E0,2.430818636E1
4.698504667E0,-2.534140228E1,1.673519897E0,3.220403137E0,2.559996748E1
4.708584667E0,-2.649759796E1,2.456391907E0,3.096161499E0,2.679072181E1
4.718663667E0,-2.710174164E1,2.656825104E0,3.447331238E0,2.744899292E1
4.728743667E0,-2.660672104E1,2.472258911E0,4.698279877E0,2.713122744E1
4.738822667E0,-2.496628235E1,1.784588928E0,6.271658020E0,2.580375372E1
4.748902667E0,-2.251962021E1,9.360035706E-1,7.681426392E0,2.381204965E1
4.758981667E0,-1.993434631E1,2.501298523E-1,8.527766418E0,2.168325455E1
4.769060667E0,-1.761342270E1,-4.281097412E-2,8.765921173E0,1.967424372E1
4.779140667E0,-1.572150696E1,-3.447331238E-1,8.371192017E0,1.781464223E1
4.789219667E0,-1.369427261E1,-7.264393616E-1,7.677684174E0,1.571647705E1
4.799299667E0,-1.134415970E1,-1.037941589E0,7.204069061E0,1.347834905E1
4.809378667E0,-8.916508026E0,-1.751058655E0,6.626120911E0,1.124614601E1
4.819458667E0,-5.745651855E0,-2.180216217E0,5.529950409E0,8.267176636E0
4.829537667E0,-2.648292847E0,-2.407144318E0,3.820804596E0,5.235107117E0
4.839617667E0,-6.041436768E-1,-2.992576904E0,2.215991821E0,3.772416449E0
4.849696667E0,9.448352051E-1,-3.682791595E0,4.623884583E-1,3.830074488E0
4.859776667E0,2.397564240E0,-4.570595398E0,-1.320104828E0,5.327413381E0
4.869855667E0,3.749552765E0,-5.490282898E0,-2.255958710E0,7.020804935E0
4.879935667E0,5.023553467E0,-6.325396271E0,-2.318827972E0,8.403790251E0
4.890014667E0,5.588029633E0,-7.103777618E0,-1.401236115E0,9.146212018E0
4.900094667E0,5.268893280E0,-7.317982178E0,2.953358459E-1,9.022268163E0
4.910173667E0,3.876937866E0,-6.624923401E0,1.775607605E0,7.878644531E0
4.920253667E0,2.029779053E0,-5.742508392E0,2.392325134E0,6.543670620E0
4.930332667E0,5.424719238E-1,-5.098098450E0,2.301763458E0,5.619875320E0
4.940412667E0,-5.204676819E-1,-4.683011627E0,1.880389709E0,5.073199185E0
4.950491667E0,-1.031954041E0,-4.305945740E0,1.281934204E0,4.609712915E0
4.960571667E0,-1.355131989E0,-4.259542236E0,6.240522766E-1,4.513260907E0
4.970650667E0,-1.529818726E0,-4.522695007E0,6.197113037E-1,4.814473758E0
4.980729667E0,-1.691781921E0,-4.790338440E0,1.496138763E0,5.296026778E0
4.990809667E0,-2.136806488E0,-4.554578705E0,3.249742126E0,5.989236432E0
5.000888667E0,-3.126548309E0,-3.923491058E0,4.684807892E0,6.864146808E0
5.010968667E0,-3.982468414E0,-3.386557617E0,5.220394135E0,7.387918657E0
5.021047667E0,-4.505480804E0,-2.832709351E0,5.049748993E0,7.336454487E0
5.031127667E0,-4.503684540E0,-2.450853424E0,4.499942322E0,6.821974629E0
5.041206667E0,-4.269272003E0,-2.100132751E0,3.818559265E0,6.100707817E0
5.051286667E0,-4.359833679E0,-1.895807648E0,3.205733643E0,5.734018184E0
5.061365667E0,-4.291575623E0,-1.577120361E0,3.395389252E0,5.695050318E0
5.071445667E0,-3.994443512E0,-1.499581604E0,3.602857819E0,5.584344941E0
5.081524667E0,-4.003275146E0,-1.401385803E0,3.699407043E0,5.628117495E0
5.091604667E0,-4.872667236E0,-1.197958832E0,3.997736664E0,6.415597384E0
5.101683667E0,-6.384523315E0,-6.364764404E-1,4.346062317E0,7.749548238E0
5.111763667E0,-7.782316589E0,3.456312561E-1,4.543651428E0,9.018241556E0
5.121842667E0,-9.038055267E0,1.365011444E0,4.649032288E0,1.025491104E1
5.131922667E0,-9.995763702E0,2.520009613E0,4.855303345E0,1.139472295E1
5.142001667E0,-1.045156586E1,3.507805481E0,5.178630981E0,1.218023592E1
5.152081667E0,-1.095661560E1,4.030219116E0,5.622607727E0,1.295777022E1
5.162160667E0,-1.173409882E1,4.431983643E0,6.096671906E0,1.394636018E1
5.172239667E0,-1.291948380E1,5.173391876E0,6.594087524E0,1.539996868E1
5.182319667E0,-1.458327393E1,6.164929962E0,6.566095734E0,1.714035744E1
5.192398667E0,-1.762180527E1,7.290439453E0,6.357130280E0,2.010203059E1
5.202478667E0,-2.142120438E1,8.969946899E0,6.585704956E0,2.413916846E1
5.212557667E0,-2.448203934E1,1.054646851E1,6.979835358E0,2.755569541E1
5.222637667E0,-2.526236664E1,1.098864899E1,7.089557190E0,2.844643028E1
5.232716667E0,-2.351265518E1,1.050111282E1,6.978937225E0,2.668002791E1
5.242796667E0,-2.086391327E1,9.844129028E0,7.267237701E0,2.418723831E1
5.252875667E0,-1.850766312E1,9.324409790E0,7.627688141E0,2.208302149E1
5.262955667E0,-1.671753571E1,8.771908722E0,8.114176483E0,2.054902048E1
5.273034667E0,-1.522588760E1,8.435558167E0,9.079668732E0,1.963228665E1
5.283114667E0,-1.412627426E1,8.133486328E0,9.639055481E0,1.893717547E1
5.293193667E0,-1.362017670E1,7.825426941E0,9.444759521E0,1.832893893E1
5.303273667E0,-1.267653900E1,7.571554871E0,8.621471558E0,1.709832904E1
5.313352667E0,-1.113714020E1,7.213349762E0,6.971452789E0,1.498897797E1
5.323432667E0,-9.230854340E0,6.675667877E0,4.856650543E0,1.238387128E1
5.333511667E0,-7.498656464E0,6.128106537E0,2.970273285E0,1.012946503E1
5.343591667E0,-6.295458527E0,5.460045776E0,1.515598297E0,8.470061165E0
5.353670667E0,-5.475164337E0,4.823868713E0,5.029541016E-1,7.314376030E0
5.363749667E0,-4.847369843E0,4.329446869E0,5.463638306E-2,6.499545347E0
5.373829667E0,-4.417613525E0,4.097129974E0,2.245330811E-1,6.029278430E0
5.383908667E0,-4.325405273E0,3.971092072E0,5.204676819E-1,5.894878254E0
5.393988667E0,-4.500990143E0,3.886068878E0,8.243357849E-1,6.003330166E0
5.404067667E0,-4.710254974E0,3.925886078E0,8.747808838E-1,6.193894172E0
5.414147667E0,-5.145699463E0,3.830534363E0,4.956193542E-1,6.434038779E0
5.424226667E0,-5.727539520E0,3.639830933E0,1.948947144E-1,6.789039853E0
5.434306667E0,-6.522536316E0,3.346141663E0,6.451583862E-2,7.331050833E0
5.444385667E0,-7.592810669E0,2.999612274E0,1.407073975E-2,8.163862176E0
5.454465667E0,-8.575217743E0,2.878364410E0,-1.881587219E-1,9.047361202E0
5.464544667E0,-8.799451447E0,2.780617676E0,-6.370751953E-1,9.250299737E0
5.474624667E0,-8.585097198E0,2.496658173E0,-1.177152100E0,9.017920104E0
5.484703667E0,-8.642128601E0,2.160457306E0,-1.376387787E0,9.013789762E0
5.494783250E0,-9.213340759E0,1.782044220E0,-1.221160583E0,9.463221582E0
5.504862250E0,-9.866732025E0,1.383123779E0,-7.438032532E-1,9.990929663E0
5.514942250E0,-1.046922913E1,9.759704590E-1,5.029541016E-2,1.051474234E1
5.525021250E0,-1.097772171E1,5.686674500E-1,9.451345825E-1,1.103299760E1
5.535100250E0,-1.114297806E1,3.625460815E-1,1.847907257E0,1.130098053E1
5.545180250E0,-1.072265213E1,2.610571289E-1,2.717299347E0,1.106467963E1
5.555259250E0,-9.894125061E0,3.628454590E-1,3.479065247E0,1.049424902E1
5.565339250E0,-9.196425934E0,3.767665100E-1,3.707041168E0,9.922618464E0
5.575418250E0,-8.535699921E0,3.852987671E-1,4.064198456E0,9.461730146E0
5.585498250E0,-7.726931763E0,5.938151550E-1,4.605622559E0,9.014979204E0
5.595577250E0,-7.084168396E0,7.717950439E-1,4.440964966E0,8.396623088E0
5.605657250E0,-6.753206635E0,1.111887817E0,3.736380157E0,7.797604186E0
5.615736250E0,-6.472091217E0,1.586101685E0,2.740800476E0,7.205252981E0
5.625816250E0,-6.217021637E0,2.080822906E0,1.682052155E0,6.768344070E0
5.635895250E0,-5.737868042E0,2.633473663E0,5.542973328E-1,6.337630372E0
5.645975250E0,-4.893024902E0,3.131488037E0,-4.375401306E-1,5.825748998E0
5.656054250E0,-4.392316132E0,3.991449738E0,-9.199868774E-1,6.005871116E0
5.666134250E0,-4.205504608E0,4.769531708E0,-5.828878784E-1,6.385488235E0
5.676213250E0,-4.086951141E0,5.326074371E0,4.728666687E-1,6.730069890E0
5.686293250E0,-4.003574524E0,5.784121857E0,1.611399078E0,7.216736216E0
5.696372250E0,-4.328399048E0,6.079308014E0,2.363435211E0,7.828080879E0
5.706451250E0,-4.628524933E0,6.389013977E0,2.773282928E0,8.362645566E0
5.716531250E0,-4.712799683E0,6.744674377E0,2.469115448E0,8.590555535E0
5.726610250E0,-4.720882874E0,7.118297424E0,1.975591736E0,8.766975307E0
5.736690250E0,-5.124144287E0,7.642058258E0,1.851948853E0,9.385500714E0
5.746769250E0,-5.969137115E0,8.387657776E0,2.018402710E0,1.049082220E1
5.756849250E0,-7.408843231E0,9.192384338E0,2.310295715E0,1.203030981E1
5.766928250E0,-9.194629669E0,9.887389069E0,2.482886810E0,1.372830668E1
5.777008250E0,-1.124536514E1,1.033855087E1,2.615061951E0,1.549781986E1
5.787087250E0,-1.289732986E1,1.089688980E1,2.882106628E0,1.712862702E1
5.797167250E0,-1.333516937E1,1.118129837E1,3.000211029E0,1.765925937E1
5.807246250E0,-1.347303268E1,1.102292770E1,2.825374603E0,1.763548373E1
5.817326250E0,-1.425321030E1,1.088386688E1,3.043471069E0,1.818997741E1
5.827405250E0,-1.586505844E1,1.090886490E1,3.376678162E0,1.954751565E1
5.837484250E0,-1.858984222E1,1.114657059E1,3.296445007E0,2.192475358E1
5.847564250E0,-2.258772858E1,1.137694153E1,2.819237366E0,2.544775786E1
5.857643250E0,-2.730696487E1,1.157932068E1,2.075583801E0,2.973313045E1
5.867723250E0,-3.130589905E1,1.159743301E1,1.359023895E0,3.341267295E1
5.877802250E0,-3.373759232E1,1.067969147E1,1.119821320E0,3.540529544E1
5.887882250E0,-3.497701492E1,8.940757599E0,1.380279694E0,3.612802086E1
5.897961250E0,-3.596780457E1,7.296876068E0,2.138902130E0,3.676278373E1
5.908041250E0,-3.650324112E1,5.558091888E0,2.968926086E0,3.704313053E1
5.918120250E0,-3.633948166E1,3.509601746E0,4.440066833E0,3.677756687E1
5.928200250E0,-3.468257721E1,1.971400452E0,5.868396606E0,3.523074879E1
5.938279250E0,-3.283556808E1,8.674461365E-1,6.066734161E0,3.340257861E1
5.948359250E0,-3.110322052E1,-8.863069153E-1,5.622607727E0,3.161976572E1
5.958438250E0,-2.797098404E1,-2.349663849E0,4.839136963E0,2.848357623E1
5.968518250E0,-2.431798050E1,-3.454815674E0,3.880530396E0,2.486681409E1
5.978597250E0,-2.087304428E1,-4.244273987E0,2.988235931E0,2.150877480E1
5.988676250E0,-1.754247025E1,-4.688999176E0,2.115401001E0,1.828113500E1
5.998756250E0,-1.442640015E1,-5.309758301E0,1.043180695E0,1.540788046E1
6.008835250E0,-1.130524063E1,-5.911806335E0,-1.489402771E-1,1.275853060E1
6.018915250E0,-8.044720917E0,-6.245462494E0,-1.416204987E0,1.028245948E1
6.028994250E0,-4.789589996E0,-6.342011719E0,-2.840942230E0,8.439919296E0
6.039074250E0,-2.095193024E0,-6.153852997E0,-3.977378998E0,7.620976591E0
6.049153250E0,-4.074526978E-1,-5.725443878E0,-4.507726135E0,7.298377917E0
6.059233250E0,3.597019958E-1,-5.322182465E0,-4.445455627E0,6.943852493E0
6.069312250E0,9.003776550E-1,-5.008434906E0,-4.155807953E0,6.570071527E0
6.079392250E0,1.178948364E0,-4.723427582E0,-3.785328369E0,6.166798053E0
6.089471250E0,1.225351868E0,-4.405488739E0,-3.303480377E0,5.641170165E0
6.099551250E0,1.205592957E0,-4.135599976E0,-2.896776123E0,5.191141824E0
6.109630250E0,1.418300629E0,-3.968098297E0,-2.430795135E0,4.864786302E0
6.119710250E0,1.954036560E0,-3.838767242E0,-2.009271698E0,4.753058550E0
6.129789250E0,2.835104370E0,-3.709286499E0,-1.650168457E0,4.951734954E0
6.139869250E0,3.848047943E0,-3.583697662E0,-1.296004944E0,5.415717009E0
6.149948250E0,4.679119720E0,-3.513343964E0,-1.187480621E0,5.970582668E0
6.160027250E0,5.262905731E0,-3.496129761E0,-1.339414673E0,6.458725238E0
6.170107250E0,5.563630371E0,-3.388503571E0,-1.659449158E0,6.722329273E0
6.180186250E0,5.407055969E0,-3.141966248E0,-1.963317261E0,6.554603025E0
6.190266250E0,4.621639252E0,-2.841540985E0,-2.328108673E0,5.903727173E0
6.200345250E0,3.253184967E0,-2.364033966E0,-2.429447937E0,4.698306748E0
6.210425250E0,1.910327454E0,-1.615290985E0,-2.173629913E0,3.314088554E0
6.220504250E0,5.911207581E-1,-9.683363342E-1,-2.026036835E0,2.322051736E0
6.230584250E0,-4.881349182E-1,-3.309617615E-1,-1.796114960E0,1.890460350E0
6.240663250E0,-8.183482361E-1,1.592687988E-1,-1.349144440E0,1.585954320E0
6.250743250E0,-5.825885010E-1,4.192781067E-1,-9.930349731E-1,1.225284436E0
6.260822250E0,-2.128573608E-1,5.496569824E-1,-4.842430115E-1,7.628383502E-1
6.270902250E0,-9.220825195E-2,6.256988525E-1,2.511776733E-1,6.805083683E-1
6.280981250E0,-7.557783508E-1,7.774832153E-1,1.021625519E0,1.489765004E0
6.291061250E0,-1.942360840E0,1.195264435E0,1.784289551E0,2.895705769E0
6.301140250E0,-3.344644775E0,1.656754761E0,2.163301392E0,4.314088307E0
6.311219250E0,-4.685855713E0,1.903292084E0,1.993105316E0,5.436196586E0
6.321299250E0,-5.950426025E0,2.007924500E0,1.583107910E0,6.476539302E0
6.331378250E0,-7.118746490E0,2.152523804E0,1.267713776E0,7.544336189E0
6.341458250E0,-8.574918365E0,2.064506836E0,8.586145020E-1,8.861638241E0
6.351537250E0,-1.106005051E1,1.961371307E0,4.959187317E-1,1.124355949E1
6.361617250E0,-1.398481842E1,2.316732330E0,8.900491333E-1,1.420332998E1
6.371696250E0,-1.673669586E1,3.315006409E0,1.872456207E0,1.716427534E1
6.381776250E0,-2.069087311E1,4.650229797E0,4.165537720E0,2.161223199E1
6.391855250E0,-2.515548889E1,6.866970062E0,7.147636414E0,2.703779957E1
6.401935250E0,-2.929587891E1,9.367819519E0,8.947942657E0,3.203233119E1
6.412014250E0,-3.267659866E1,1.157677597E1,8.948242035E0,3.580297303E1
6.422094250E0,-3.399864944E1,1.249721191E1,8.077951813E0,3.711255549E1
6.432173250E0,-3.197785172E1,1.216954330E1,7.293882294E0,3.498401783E1
6.442252250E0,-2.801110062E1,1.109507767E1,7.385940857E0,3.102055171E1
6.452332250E0,-2.406545563E1,9.895621948E0,7.776329041E0,2.715770207E1
6.462411250E0,-2.075748459E1,8.915759583E0,7.876770172E0,2.392503801E1
6.472491250E0,-1.804722061E1,8.180338898E0,7.739206238E0,2.127241005E1
6.482570250E0,-1.562450867E1,7.673043823E0,7.160210266E0,1.882204781E1
6.492650625E0,-1.336810089E1,7.048991547E0,5.920039215E0,1.623087390E1
6.502729625E0,-1.112441666E1,6.358926544E0,4.229454803E0,1.349358665E1
6.512809625E0,-9.107361145E0,5.788462830E0,2.585573273E0,1.109664445E1
6.522888625E0,-7.356901245E0,5.414241028E0,1.124311981E0,9.203373255E0
6.532968625E0,-5.938301239E0,4.946463776E0,-3.011737061E-1,7.734444459E0
6.543047625E0,-4.867128754E0,4.552782440E0,-1.568288727E0,6.846626891E0
6.553127625E0,-3.938609619E0,4.090693359E0,-2.262095947E0,6.112568688E0
6.563206625E0,-3.197650452E0,3.494632874E0,-2.667752380E0,5.436389436E0
6.573285625E0,-2.595003662E0,2.908002777E0,-2.687361603E0,4.734177494E0
6.583365625E0,-2.064357147E0,2.460583191E0,-2.229463806E0,3.909801649E0
6.593444625E0,-1.757794647E0,1.919608154E0,-1.676214294E0,3.095873358E0
6.603524625E0,-1.820813599E0,1.391356659E0,-1.314266968E0,2.641691348E0
6.613603625E0,-2.198029175E0,8.355624390E-1,-1.036893768E0,2.569950492E0
6.623683625E0,-2.906954956E0,1.194515991E-1,-8.699908447E-1,3.036698844E0
6.633762625E0,-3.925437012E0,-6.038442993E-1,-6.553372192E-1,4.025313720E0
6.643842625E0,-5.289550323E0,-1.031055908E0,-2.565664673E-1,5.395205766E0
6.653921625E0,-6.671027527E0,-1.231489105E0,1.661544800E-1,6.785777847E0
6.664001625E0,-7.967481537E0,-1.428329773E0,3.730242920E-1,8.103087998E0
6.674080625E0,-9.196276245E0,-1.688339081E0,4.555027771E-1,9.361061286E0
6.684160625E0,-1.060379929E1,-1.847607880E0,6.641688538E-1,1.078403146E1
6.694239625E0,-1.201730988E1,-1.736987915E0,1.074166260E0,1.218961430E1
6.704318625E0,-1.270348297E1,-1.521585846E0,1.466051331E0,1.287800488E1
6.714398625E0,-1.269031036E1,-1.303938446E0,1.546733551E0,1.285054930E1
6.724477625E0,-1.220861206E1,-9.991722107E-1,1.611698456E0,1.235500407E1
6.734557625E0,-1.168200714E1,-5.761518860E-1,1.850302277E0,1.184165784E1
6.744636625E0,-1.139954453E1,-2.206411743E-1,2.157613220E0,1.160403347E1
6.754716625E0,-1.105032074E1,2.293231201E-1,2.420316925E0,1.131459728E1
6.764795625E0,-1.055769516E1,6.477030945E-1,2.675835571E0,1.091075352E1
6.774875625E0,-1.010099487E1,1.169068909E0,2.801873474E0,1.054738425E1
6.784954625E0,-9.195976868E0,1.659000092E0,2.555485840E0,9.687557986E0
6.795034625E0,-7.750582581E0,2.070344696E0,2.108515320E0,8.294799235E0
6.805113625E0,-6.112389221E0,2.507435760E0,1.670226746E0,6.814557467E0
6.815193625E0,-4.523742828E0,2.997965698E0,1.202299805E0,5.558558475E0
6.825272625E0,-3.261417847E0,3.375330963E0,6.255491638E-1,4.735083657E0
6.835351625E0,-2.254162445E0,3.844754791E0,4.281097412E-1,4.477350297E0
6.845431625E0,-1.661395111E0,4.094585266E0,5.532495117E-1,4.453307449E0
6.855510625E0,-1.175505524E0,4.380041656E0,8.881031799E-1,4.621180088E0
6.865590625E0,-1.027313690E0,4.761747894E0,1.056203613E0,4.984494207E0
6.875669625E0,-1.300046539E0,5.100942535E0,9.122030640E-1,5.342457317E0
6.885749625E0,-1.608105927E0,5.473966827E0,6.533912659E-1,5.742581096E0
6.895828625E0,-2.154320068E0,5.953569489E0,2.887495422E-1,6.337938222E0
6.905908625E0,-2.797981567E0,6.504873047E0,-4.146377563E-2,7.081228245E0
6.915987625E0,-3.993994446E0,7.212601318E0,1.890568542E-1,8.246778274E0
6.926067625E0,-5.723647614E0,7.925868073E0,8.556207275E-1,9.813848049E0
6.936146625E0,-7.150031433E0,8.456963654E0,1.598974915E0,1.118927632E1
6.946226625E0,-7.769892426E0,8.796607361E0,2.572550354E0,1.201538783E1
6.956305625E0,-8.195008392E0,9.316027222E0,3.552113342E0,1.290596897E1
6.966384625E0,-8.774752808E0,9.831405487E0,3.727099457E0,1.369467382E1
6.976464625E0,-9.989027710E0,1.051218979E1,3.453318787E0,1.490678434E1
6.986543625E0,-1.149295029E1,1.123578506E1,2.965183868E0,1.634390063E1
6.996623625E0,-1.363499588E1,1.188708069E1,2.521955566E0,1.826406471E1
7.006702625E0,-1.575189377E1,1.258118729E1,2.368824005E0,2.029826983E1
7.016782625E0,-1.809152847E1,1.299851944E1,2.729873199E0,2.244364315E1
7.026861625E0,-2.084669907E1,1.309402084E1,4.428840179E0,2.501305397E1
7.036941625E0,-2.281241135E1,1.310075684E1,6.971303101E0,2.721461019E1
7.047020625E0,-2.415676575E1,1.228061234E1,8.453221436E0,2.838696397E1
7.057100625E0,-2.465912109E1,1.138262970E1,8.367599487E0,2.841924055E1
7.067179625E0,-2.646915710E1,1.082114731E1,8.502169647E0,2.983287441E1
7.077258625E0,-2.965767654E1,9.792785797E0,8.603209534E0,3.239585847E1
7.087338625E0,-3.214490433E1,8.605155487E0,8.457861786E0,3.433480743E1
7.097417625E0,-3.325290024E1,7.591613159E0,7.869884491E0,3.500461465E1
7.107497625E0,-3.356799500E1,6.087840271E0,6.894961853E0,3.480535284E1
7.117576625E0,-3.278347641E1,4.308789825E0,6.345753937E0,3.366883705E1
7.127656625E0,-3.084111557E1,3.154390411E0,6.244714050E0,3.162469039E1
7.137735625E0,-2.970123596E1,2.158361664E0,6.015989685E0,3.038114670E1
7.147815625E0,-2.868784332E1,9.437873840E-1,6.312523041E0,2.938930139E1
7.157894625E0,-2.595078506E1,-2.874023438E-2,6.616840210E0,2.678108747E1
7.167974625E0,-2.275268555E1,-8.093669128E-1,6.335575104E0,2.363216635E1
7.178053625E0,-1.966146378E1,-1.564696198E0,5.571414185E0,2.049541627E1
7.188133625E0,-1.654733963E1,-2.275717621E0,4.826712799E0,1.738650327E1
7.198212625E0,-1.353620132E1,-2.806962891E0,4.322860565E0,1.448429876E1
7.208291625E0,-1.077189972E1,-3.061433716E0,3.646267548E0,1.177715870E1
7.218371625E0,-8.684041443E0,-3.126548309E0,2.448907471E0,9.549085187E0
7.228450625E0,-7.260651398E0,-3.048111420E0,1.200353851E0,7.965481236E0
7.238530625E0,-6.416706390E0,-3.071762238E0,2.758763123E-1,7.119406709E0
7.248609625E0,-5.566175079E0,-2.855761414E0,-4.490661621E-3,6.256012982E0
7.258689625E0,-4.518952789E0,-2.889141998E0,-3.686833191E-1,5.376244339E0
7.268768625E0,-3.428620148E0,-3.238066406E0,-1.137185211E0,4.851154540E0
7.278848625E0,-2.335293732E0,-3.654650116E0,-1.764380951E0,4.682211489E0
7.288927625E0,-1.313368835E0,-3.935765533E0,-2.289488983E0,4.738876221E0
7.299007625E0,-3.299139404E-1,-4.295317841E0,-3.185525665E0,5.357814137E0
7.309086625E0,1.035696259E0,-4.678221588E0,-4.256398773E0,6.409005733E0
7.319165625E0,2.471211090E0,-4.887336731E0,-4.962330780E0,7.390376942E0
7.329245625E0,3.649560699E0,-5.104834442E0,-5.037474518E0,8.047035324E0
7.339324625E0,4.611310730E0,-5.229974213E0,-4.566104736E0,8.334634328E0
7.349404625E0,5.353916473E0,-5.225932617E0,-3.773952026E0,8.379588726E0
7.359483625E0,5.948779449E0,-4.976700897E0,-2.959495697E0,8.301454303E0
7.369563625E0,6.239924011E0,-4.617298279E0,-2.304607544E0,8.097364447E0
7.379642625E0,6.182892609E0,-4.062102814E0,-1.643432465E0,7.578239277E0
7.389722625E0,5.495671692E0,-3.557502136E0,-1.409618683E0,6.696659886E0
7.399801625E0,4.315226440E0,-2.981949005E0,-1.361418915E0,5.419101453E0
7.409881625E0,3.231031036E0,-2.259251862E0,-1.143921204E0,4.105159711E0
7.419960625E0,2.199975128E0,-1.529519348E0,-9.949809265E-1,2.858199966E0
7.430040625E0,1.304237823E0,-7.849676514E-1,-7.807763672E-1,1.710795794E0
7.440119625E0,5.634283447E-1,5.748046875E-2,-5.536985779E-1,7.920464753E-1
7.450198625E0,1.320254517E-1,9.437873840E-1,-7.937992859E-1,1.240275233E0
7.460278625E0,-3.339555359E-1,1.645827484E0,-1.260528717E0,2.099811195E0
7.470357625E0,-7.442523193E-1,2.164947968E0,-1.177900543E0,2.574560333E0
7.480437625E0,-7.732919312E-1,2.567161560E0,-3.519181824E-1,2.704097871E0
7.490516625E0,-8.217910767E-1,2.878364410E0,1.728904724E-1,2.998368451E0
7.500596417E0,-1.348096619E0,3.121758270E0,5.632786560E-1,3.446740784E0
7.510675417E0,-2.349065094E0,3.692371674E0,1.265917511E0,4.555684640E0
7.520755417E0,-3.477867737E0,4.599335632E0,1.438059540E0,5.942850115E0
7.530834417E0,-4.861141205E0,5.565726013E0,1.270707550E0,7.498179615E0
7.540914417E0,-6.962770844E0,6.408024445E0,1.706900482E0,9.615428454E0
7.550993417E0,-9.102571106E0,6.964417419E0,2.211650848E0,1.167267365E1
7.561072417E0,-1.082099762E1,7.222181396E0,2.569855957E0,1.326114826E1
7.571152417E0,-1.302636154E1,7.145091705E0,2.731669464E0,1.510630493E1
7.581231417E0,-1.604243958E1,7.305558014E0,2.971321106E0,1.787623547E1
7.591311417E0,-1.930580338E1,9.048832855E0,4.608766022E0,2.181366875E1
7.601390417E0,-2.294772995E1,1.077728851E1,8.134534149E0,2.662553104E1
7.611470417E0,-2.654325302E1,1.185399948E1,1.299283127E1,3.184140777E1
7.621549417E0,-2.917987015E1,1.194471085E1,1.678489563E1,3.571937374E1
7.631629417E0,-3.038261902E1,1.061203217E1,1.822849365E1,3.698644003E1
7.641708417E0,-2.903676773E1,9.230255585E0,1.784304520E1,3.530872074E1
7.651787417E0,-2.657019699E1,7.307803345E0,1.783436325E1,3.282444014E1
7.661867417E0,-2.351684647E1,5.287903748E0,1.922332489E1,3.083083219E1
7.671946417E0,-2.014316208E1,3.117117920E0,2.083247864E1,2.914542106E1
7.682026417E0,-1.588376953E1,1.340163116E0,2.159753769E1,2.684294704E1
7.692105417E0,-1.094778397E1,1.350192261E-1,1.937660614E1,2.225589966E1
7.702185417E0,-7.053931274E0,-5.810916138E-1,1.503099289E1,1.661404108E1
7.712264417E0,-4.828958130E0,-6.806346130E-1,1.100242035E1,1.203475607E1
7.722344417E0,-4.089645538E0,-2.754272461E-2,8.639434204E0,9.558545004E0
7.732423417E0,-4.542902985E0,5.683680725E-1,7.414232025E0,8.713888129E0
7.742503417E0,-5.749693451E0,1.194815369E0,6.636299744E0,8.861547993E0
7.752582417E0,-6.993906097E0,1.975142670E0,5.415887604E0,9.063539574E0
7.762662417E0,-7.211403809E0,2.171683960E0,3.250340881E0,8.202760021E0
7.772741417E0,-6.767277374E0,1.975741425E0,1.505120087E0,7.208674199E0
7.782820417E0,-6.049220581E0,1.779349823E0,6.965016174E-1,6.343837162E0
7.792900417E0,-5.257367249E0,1.287472687E0,7.009922791E-1,5.457919611E0
7.802979417E0,-4.239184570E0,6.755451965E-1,1.702858887E0,4.618092195E0
7.813059417E0,-3.395838318E0,2.628533936E-1,3.004552002E0,4.541821498E0
7.823138417E0,-3.040626984E0,9.490264893E-2,3.898493042E0,4.944963798E0
7.833218417E0,-3.010539551E0,1.401086426E-1,4.424050140E0,5.353055059E0
7.843297417E0,-3.426225128E0,4.478686523E-1,4.187242584E0,5.428867784E0
7.853377417E0,-3.833228760E0,8.475375366E-1,3.518283691E0,5.271648958E0
7.863456417E0,-4.182901611E0,1.174457703E0,2.942730560E0,5.247445087E0
7.873536417E0,-4.162843323E0,1.389111328E0,2.655328217E0,5.129294566E0
7.883615417E0,-3.962410126E0,1.467548218E0,2.879711609E0,5.113426515E0
7.893694417E0,-4.007915497E0,1.434167633E0,3.493435364E0,5.506751680E0
7.903774417E0,-3.810625763E0,1.398841095E0,4.488565979E0,6.051846798E0
7.913853417E0,-3.563040619E0,1.261726227E0,5.624703369E0,6.776761728E0
7.923933417E0,-3.234473877E0,1.229692841E0,6.544390869E0,7.402906023E0
7.934012417E0,-3.194057922E0,1.360371094E0,7.280110931E0,8.065521105E0
7.944092417E0,-3.652105408E0,1.559157715E0,7.926466827E0,8.865535689E0
7.954171417E0,-4.130510559E0,1.838626556E0,8.196205902E0,9.360526496E0
7.964251417E0,-4.707261200E0,2.027084656E0,7.770341492E0,9.308361140E0
7.974330417E0,-5.129084015E0,2.209106140E0,7.226821747E0,9.133159658E0
7.984409417E0,-5.080584869E0,2.425855408E0,7.340884552E0,9.251254136E0
7.994489417E0,-4.609514465E0,2.163002014E0,8.127199402E0,9.590493806E0
8.004568417E0,-3.806135101E0,1.820364532E0,8.848848724E0,9.803189031E0
8.014648417E0,-2.911445618E0,1.727108459E0,9.031319275E0,9.644902647E0
8.024727417E0,-2.117496643E0,1.858086090E0,8.586743774E0,9.037059511E0
8.034807417E0,-1.570983124E0,2.034718781E0,7.935298462E0,8.341284683E0
8.044886417E0,-1.744921417E0,2.304308167E0,7.179071045E0,7.739098652E0
8.054966417E0,-2.304906921E0,2.735261993E0,6.428980865E0,7.357040781E0
8.065045417E0,-2.604284363E0,3.361260223E0,5.877976685E0,7.254721031E0
8.075125417E0,-2.459834747E0,3.820355530E0,5.554050293E0,7.175888657E0
8.085204417E0,-2.422412567E0,3.924239502E0,5.585035858E0,7.242952703E0
8.095283417E0,-2.451152802E0,4.039499817E0,5.853876801E0,7.522870624E0
8.105363417E0,-2.477048950E0,4.090992737E0,5.882317657E0,7.581138048E0
8.115442417E0,-2.341131592E0,4.176464996E0,6.123615875E0,7.773186501E0
8.125522417E0,-2.359094238E0,4.539011078E0,6.765930176E0,8.482084551E0
8.135601417E0,-2.302062836E0,4.858746185E0,7.574698334E0,9.288862290E0
8.145681417E0,-2.464175720E0,5.277575226E0,8.412057037E0,1.023169907E1
8.155760417E0,-2.806663513E0,5.825585632E0,9.202263794E0,1.124706482E1
8.165840417E0,-2.811453552E0,6.184539185E0,9.197773132E0,1.143467650E1
8.175919417E0,-2.991379395E0,6.608008575E0,8.718170471E0,1.134110331E1
8.185998417E0,-3.149300995E0,6.944508820E0,8.624315643E0,1.151186865E1
8.196078417E0,-3.195105743E0,7.298522644E0,9.527537384E0,1.241978672E1
8.206157417E0,-3.192111969E0,7.458539886E0,1.079719711E1,1.350551227E1
8.216237417E0,-3.240910492E0,7.524702301E0,1.159204422E1,1.419507431E1
8.226316417E0,-3.092868347E0,7.337142334E0,1.201536392E1,1.441417575E1
8.236396417E0,-3.249742126E0,7.236850891E0,1.225336899E1,1.459718761E1
8.246475417E0,-3.823798370E0,7.311844940E0,1.255678802E1,1.502522665E1
8.256555417E0,-4.046385498E0,7.523504791E0,1.238524475E1,1.504561888E1
8.266634417E0,-4.363276520E0,7.771389313E0,1.231279541E1,1.519992121E1
8.276714417E0,-4.666096802E0,7.949967957E0,1.313563431E1,1.604740909E1
8.286793417E0,-5.025349731E0,8.084538116E0,1.397209488E1,1.690660616E1
8.296872417E0,-5.432503052E0,7.982300720E0,1.451980591E1,1.743714363E1
8.306952417E0,-5.719755707E0,8.185278625E0,1.504760834E1,1.805948250E1
8.317031417E0,-6.213429108E0,8.321495361E0,1.574231369E1,1.885933261E1
8.327111417E0,-6.300697632E0,8.173303528E0,1.631068176E1,1.930129583E1
8.337190417E0,-6.286327515E0,7.858358459E0,1.653491547E1,1.935652708E1
8.347270417E0,-5.917195129E0,7.528294830E0,1.655766815E1,1.912706971E1
8.357349417E0,-5.140759735E0,7.180717621E0,1.574620560E1,1.805361756E1
8.367429417E0,-4.528383179E0,7.082970886E0,1.430964294E1,1.659640359E1
8.377508417E0,-4.372257843E0,7.263645172E0,1.302336777E1,1.553979690E1
8.387587417E0,-3.973936157E0,7.399412842E0,1.158066788E1,1.430578021E1
8.397667417E0,-3.894900513E0,7.513775024E0,1.031654663E1,1.334384500E1
8.407746417E0,-4.095184021E0,7.669151917E0,9.708361359E0,1.303221791E1
8.417826417E0,-4.204307098E0,7.650889893E0,9.149423676E0,1.264611671E1
8.427905417E0,-4.182302856E0,7.430248718E0,8.502169647E0,1.204106066E1
8.437985417E0,-3.659889221E0,7.033872986E0,8.135432281E0,1.136025601E1
8.448064417E0,-2.795736237E0,6.603368225E0,7.914192352E0,1.067965606E1
8.458144417E0,-1.943258972E0,6.223757629E0,7.554939423E0,9.979404999E0
8.468223417E0,-1.405277710E0,5.779930573E0,7.233707428E0,9.365304374E0
8.478303417E0,-1.393152924E0,5.484445038E0,6.848558350E0,8.883848485E0
8.488382417E0,-1.444047089E0,5.297633514E0,6.058950348E0,8.176862000E0
8.498461375E0,-1.278491364E0,4.934189301E0,4.608017578E0,6.871287377E0
8.508541375E0,-1.098864899E0,4.547094269E0,3.046614532E0,5.582600690E0
8.518620375E0,-8.409512329E-1,4.071832581E0,1.869013367E0,4.558533811E0
8.528700375E0,-6.984475708E-1,3.507655792E0,1.573228455E0,3.907240194E0
8.538779375E0,-4.099974060E-1,2.978356476E0,1.760189667E0,3.483815844E0
8.548859375E0,-5.318440247E-1,2.298919373E0,1.949096832E0,3.060533746E0
8.558938375E0,-6.771917725E-1,1.830543365E0,2.017654266E0,2.807206164E0
8.569018375E0,-5.661227417E-1,1.501976624E0,1.991608429E0,2.557915728E0
8.579097375E0,-5.242098999E-1,1.109043732E0,1.827549591E0,2.201070541E0
8.589176375E0,-5.287005615E-1,7.433541870E-1,1.734592896E0,1.959824544E0
8.599256375E0,-3.664379883E-1,4.995112610E-1,1.528770905E0,1.649523803E0
8.609335375E0,3.258723450E-1,4.230203247E-1,9.889933777E-1,1.123942561E0
8.619415375E0,1.055006104E0,4.632865906E-1,1.856140137E-1,1.167101069E0
8.629494375E0,1.348395996E0,7.105723572E-1,-4.617897034E-1,1.592587381E0
8.639574375E0,1.251846771E0,1.252894592E0,-8.041278076E-1,1.945118693E0
8.649653375E0,7.008425903E-1,1.768871613E0,-1.200353851E0,2.249652526E0
8.659733375E0,-3.186872864E-1,2.270628204E0,-1.115480347E0,2.549825569E0
8.669812375E0,-1.176852722E0,2.702031097E0,-6.252497864E-1,3.012788024E0
8.679891375E0,-1.661245422E0,2.764451294E0,7.589218140E-2,3.226094688E0
8.689971375E0,-1.668580170E0,2.726130981E0,9.367520142E-1,3.330683751E0
8.700050375E0,-1.395697632E0,2.508483582E0,1.672921143E0,3.322518158E0
8.710130375E0,-9.211843872E-1,2.286195831E0,2.435136108E0,3.464846305E0
8.720209375E0,-2.689906311E-1,2.543660431E0,3.376378784E0,4.235858596E0
8.730289375E0,1.577719116E-1,2.754272461E0,4.301155701E0,5.109877604E0
8.740368375E0,-4.056564331E-2,3.001707916E0,5.764812012E0,6.499611797E0
8.750448375E0,-7.973918152E-1,3.467838593E0,7.507787476E0,8.308345864E0
8.760527375E0,-1.413660278E0,4.080364838E0,8.574768677E0,9.600753640E0
8.770606375E0,-1.940414886E0,4.699627075E0,9.346264343E0,1.063975384E1
8.780686375E0,-2.833757172E0,5.833070068E0,1.037402710E1,1.223418671E1
8.790765375E0,-3.223247223E0,7.206015015E0,1.103595062E1,1.356864699E1
8.800845375E0,-3.843407593E0,8.228089600E0,1.097457825E1,1.424480986E1
8.810924375E0,-4.137695618E0,9.408534851E0,1.016251694E1,1.445398919E1
8.821004375E0,-3.329526215E0,1.034588562E1,8.528065796E0,1.381488329E1
8.831083375E0,-2.523003387E0,1.096095657E1,7.782765656E0,1.367770289E1
8.841163375E0,-2.418071594E0,1.114956436E1,9.107061768E0,1.459789128E1
8.851242375E0,-2.905458069E0,1.061831909E1,1.247894989E1,1.664075050E1
8.861321375E0,-3.830684052E0,9.538913727E0,1.723066864E1,2.006392178E1
8.871401375E0,-4.344116364E0,8.722212067E0,2.121208923E1,2.334311590E1
8.881480375E0,-4.036506042E0,7.943980408E0,2.236678802E1,2.407640779E1
8.891560375E0,-2.637066193E0,7.427105255E0,1.949950058E1,2.103203588E1
8.901639375E0,-1.326242065E0,7.233408051E0,1.510329254E1,1.679852838E1
8.911719375E0,-4.538562012E-1,7.485334167E0,1.154743698E1,1.376878767E1
8.921798375E0,-6.436614990E-2,7.583679657E0,9.147477722E0,1.188245298E1
8.931878375E0,1.591191101E-1,7.396568756E0,8.189320221E0,1.103628171E1
8.941957375E0,-1.812730408E-1,6.835385742E0,8.490793304E0,1.090178559E1
8.952036375E0,-6.144721985E-1,6.139632568E0,9.092991028E0,1.098886482E1
8.962116375E0,-6.123765564E-1,5.546865234E0,9.099427643E0,1.067437597E1
8.972195375E0,-3.785627747E-1,5.153034210E0,8.531358948E0,9.974024105E0
8.982275375E0,7.454498291E-2,4.609364777E0,7.366780701E0,8.690296801E0
8.992354375E0,5.339396667E-1,4.192032623E0,6.172414398E0,7.480436390E0
9.002434375E0,5.776487732E-1,4.041146393E0,4.893623657E0,6.372761942E0
9.012513375E0,5.548960876E-1,3.815715179E0,3.565285950E0,5.251557474E0
9.022593375E0,6.727011108E-1,3.582051086E0,2.309846649E0,4.314974891E0
9.032672375E0,9.107061768E-1,3.390299835E0,1.306333466E0,3.745667609E0
9.042752375E0,1.222657471E0,2.992726593E0,1.017134857E0,3.389080564E0
9.052831375E0,1.518292694E0,2.502196655E0,1.399739227E0,3.244298185E0
9.062910375E0,1.715732117E0,1.909129944E0,2.351160736E0,3.480872110E0
9.072990375E0,1.778900757E0,1.271306305E0,3.664230194E0,4.267000180E0
9.083069375E0,1.844763794E0,6.486012268E-1,4.627477112E0,5.023682059E0
9.093149375E0,2.021396484E0,3.369493103E-1,4.994663544E0,5.398726007E0
9.103228375E0,2.060764618E0,1.546284485E-1,4.635111237E0,5.074930240E0
9.113308375E0,2.208657074E0,-1.047821045E-1,4.070635071E0,4.632409226E0
9.123387375E0,2.752326508E0,-5.450166321E-1,3.567980347E0,4.539033828E0
9.133466375E0,3.410807190E0,-1.351389771E0,3.008743286E0,4.744722980E0
9.143546375E0,4.292922821E0,-2.272723846E0,2.534679108E0,5.478965067E0
9.153625375E0,5.108277283E0,-3.212619324E0,2.342478790E0,6.473223818E0
9.163705375E0,5.567073212E0,-4.205055542E0,2.438279572E0,7.390534725E0
9.173784375E0,5.406457214E0,-5.161416779E0,2.217339020E0,7.796575857E0
9.183864375E0,4.744982758E0,-6.234235840E0,1.622476044E0,8.000811608E0
9.193943375E0,3.570225677E0,-7.318580933E0,1.545985107E0,8.288438225E0
9.204023375E0,2.085463257E0,-7.991880798E0,1.993704071E0,8.496715343E0
9.214102375E0,2.544708252E-3,-8.215815125E0,2.743794250E0,8.661872287E0
9.224181375E0,-2.219135284E0,-8.186326447E0,3.440595245E0,9.153043086E0
9.234261375E0,-4.198020172E0,-8.390052795E0,3.748954010E0,1.010302012E1
9.244340375E0,-5.528453522E0,-8.860823822E0,3.481160889E0,1.100892721E1
9.254420375E0,-6.322252808E0,-9.690099335E0,2.881956940E0,1.192369831E1
9.264499375E0,-7.072193298E0,-1.072639435E1,2.041454773E0,1.300918873E1
9.274579375E0,-8.801846466E0,-1.165641037E1,8.569679260E-1,1.463143185E1
9.284658375E0,-1.218900284E1,-1.231803452E1,-7.608677673E-1,1.734602791E1
9.294738375E0,-1.688189392E1,-1.253777756E1,-2.247875519E0,2.114821867E1
9.304817375E0,-2.140773239E1,-1.193393326E1,-3.096161499E0,2.470416939E1
9.314896375E0,-2.399165909E1,-1.146091690E1,-3.701053619E0,2.684492727E1
9.324976375E0,-2.386906403E1,-1.197704361E1,-4.418661346E0,2.706854926E1
9.335055375E0,-2.302392151E1,-1.327544357E1,-5.003794556E0,2.704397019E1
9.345135375E0,-2.363525024E1,-1.505748779E1,-4.478536835E0,2.837975132E1
9.355214375E0,-2.615466110E1,-1.684611832E1,-2.766546936E0,3.123318398E1
9.365294375E0,-2.861913620E1,-1.811158676E1,-6.318360901E-1,3.387452950E1
9.375373375E0,-3.061328934E1,-1.919653061E1,1.472188568E0,3.616417579E1
9.385453375E0,-3.383848251E1,-1.982986359E1,3.394790497E0,3.936738487E1
9.395532375E0,-3.623769333E1,-1.904893753E1,3.940555573E0,4.112858394E1
9.405611375E0,-3.655862595E1,-1.763078659E1,3.268153839E0,4.071926567E1
9.415691375E0,-3.413336929E1,-1.642624146E1,1.016685791E0,3.789382480E1
9.425770375E0,-3.103541153E1,-1.559606781E1,-2.010319519E0,3.479188820E1
9.435850375E0,-2.871104507E1,-1.450259171E1,-4.512067108E0,3.248088707E1
9.445929375E0,-2.745246231E1,-1.316886520E1,-6.583908691E0,3.115131701E1
9.456009375E0,-2.646481613E1,-1.217882401E1,-7.853119354E0,3.017253272E1
9.466088375E0,-2.516686523E1,-1.139056320E1,-7.376211090E0,2.859238580E1
9.476168375E0,-2.360576157E1,-1.086455704E1,-6.918163605E0,2.689110571E1
9.486247375E0,-2.187565933E1,-1.012374756E1,-5.823040924E0,2.479803503E1
9.496326667E0,-2.025303360E1,-9.867031403E0,-1.452878723E0,2.257552957E1
9.506406667E0,-1.884221741E1,-9.113498383E0,1.153800659E0,2.096225812E1
9.516485667E0,-1.713980759E1,-7.901618500E0,2.770738220E0,1.907578489E1
9.526565667E0,-1.401236115E1,-6.716981964E0,2.789449310E0,1.578749945E1
9.536644667E0,-1.109058701E1,-5.873336334E0,1.278191986E0,1.261471262E1
9.546724667E0,-7.569608917E0,-4.788542175E0,-2.385738831E0,9.269350845E0
9.556803667E0,-4.722080383E0,-2.918181610E0,-4.955744476E0,7.441319128E0
9.566883667E0,-3.008892975E0,-5.001100159E-1,-4.371958466E0,5.330813051E0
9.576962667E0,-2.003284149E0,1.759590912E0,-2.080373840E0,3.381902257E0
9.587041667E0,-1.551673279E0,4.857698364E0,-6.159690857E-1,5.136569018E0
9.597121667E0,-4.129911804E-1,7.242239685E0,4.800517273E-1,7.269872560E0
9.607200667E0,-1.158590698E-1,8.514893188E0,1.625320129E0,8.669399913E0
9.617280667E0,-3.074606323E-1,8.956025848E0,2.629432068E0,9.339102957E0
9.627359667E0,-1.460662537E0,8.028404846E0,2.869532776E0,8.650031085E0
9.637439667E0,-2.439626770E0,6.805447998E0,2.614313507E0,7.687687321E0
9.647518667E0,-2.416724396E0,5.698948975E0,2.362686768E0,6.625772784E0
9.657598667E0,-1.843566284E0,4.792583771E0,2.186952209E0,5.581250381E0
9.667677667E0,-1.780846710E0,4.177363129E0,2.569556580E0,5.217700521E0
9.677756667E0,-1.701811066E0,3.731290741E0,4.278403015E0,5.926501823E0
9.687836667E0,-1.811832275E0,3.400029602E0,6.604715424E0,7.646254202E0
9.697915667E0,-1.326691132E0,3.099754028E0,8.856931915E0,9.477015741E0
9.707995667E0,-9.783654785E-1,2.544109497E0,1.104912323E1,1.138036978E1
9.718074667E0,-1.264869690E0,2.153122559E0,1.261127472E1,1.285613014E1
9.728154667E0,-2.001188507E0,1.701661377E0,1.303863602E1,1.330061788E1
9.738233667E0,-2.425556030E0,1.152752838E0,1.241203903E1,1.269924699E1
9.748312667E0,-2.293231201E0,6.724017334E-1,1.133098709E1,1.158025483E1
9.758392667E0,-2.014510803E0,9.789642334E-2,9.836644592E0,1.004128549E1
9.768471667E0,-2.119292908E0,-4.513114929E-1,8.175249481E0,8.457528514E0
9.778551667E0,-2.630180511E0,-7.855664063E-1,6.802903290E0,7.335833782E0
9.788630667E0,-2.945275269E0,-1.376687164E0,5.649402008E0,6.518102255E0
9.798710667E0,-3.368594971E0,-2.323917389E0,4.798271942E0,6.306460000E0
9.808789667E0,-4.333039398E0,-3.611988831E0,4.401447144E0,7.155028350E0
9.818869667E0,-6.417454834E0,-5.413941650E0,4.372706909E0,9.466522934E0
9.828948667E0,-9.603878632E0,-7.471263428E0,4.274211731E0,1.289663320E1
9.839027667E0,-1.344908249E1,-9.129964142E0,3.505709839E0,1.662901279E1
9.849107667E0,-1.651934784E1,-9.905501404E0,2.442919922E0,1.941586127E1
9.859186667E0,-1.822759552E1,-9.927805023E0,1.539847870E0,2.081292105E1
9.869266667E0,-1.938049805E1,-9.257947998E0,7.752378845E-1,2.149219159E1
9.879345667E0,-2.114487900E1,-8.188871155E0,5.358856201E-1,2.268150551E1
9.889425667E0,-2.424822556E1,-7.741451569E0,1.150657196E0,2.548000249E1
9.899504667E0,-2.812561249E1,-7.894134064E0,2.480042725E0,2.931753814E1
9.909584667E0,-3.111025589E1,-8.389004974E0,4.345313873E0,3.251315393E1
9.919663667E0,-3.165332657E1,-9.184301147E0,6.302194519E0,3.355595515E1
9.929742667E0,-3.061149307E1,-9.962532806E0,8.018076324E0,3.317536912E1
9.939822667E0,-2.907883026E1,-1.026610153E1,8.525970154E0,3.199473983E1
9.949901667E0,-2.707255234E1,-9.831854553E0,8.742270355E0,3.010009543E1
9.959981667E0,-2.490700562E1,-9.233249359E0,9.085656281E0,2.807420475E1
9.970060667E0,-2.239762390E1,-8.332422638E0,9.355245667E0,2.566327035E1
9.980140667E0,-2.001203476E1,-7.328011322E0,9.137897644E0,2.318798091E1
9.990219667E0,-1.778092438E1,-6.566245422E0,8.372838593E0,2.072151724E1
1.000029867E1,-1.549936890E1,-5.940396881E0,7.560777283E0,1.823963005E1