"Time (s)","Acceleration x (m/s^2)","Acceleration y (m/s^2)","Acceleration z (m/s^2)","Absolute acceleration (m/s^2)"
-1.332416665E-3,-2.113005981E0,4.595593414E0,8.146060181E0,9.588668811E0
8.745583356E-3,-2.256407776E0,4.591402130E0,8.349038086E0,9.791771368E0
1.882458339E-2,-2.404150543E0,4.607568512E0,8.686586151E0,1.012256916E1
2.890358341E-2,-2.407593384E0,4.661456451E0,8.839717712E0,1.027941104E1
3.898258333E-2,-2.261197815E0,4.586612091E0,8.810678101E0,1.018715243E1
4.906058335E-2,-2.127076721E0,4.512516174E0,8.758436737E0,1.007955712E1
5.913958338E-2,-2.011067963E0,4.512815552E0,8.603059845E0,9.920813336E0
6.921858341E-2,-1.921105042E0,4.493954773E0,8.484207001E0,9.791222728E0
7.929758332E-2,-1.914818115E0,4.486620026E0,8.440348206E0,9.748628904E0
8.937670838E-2,-2.132016449E0,4.602479095E0,8.386160889E0,9.800816416E0
9.945470840E-2,-2.428699493E0,4.694387970E0,8.425978088E0,9.946505235E0
1.095337083E-1,-2.545007629E0,4.726720734E0,8.544082489E0,1.009060446E1
1.196127083E-1,-2.607427826E0,4.666096802E0,8.620723114E0,1.014337253E1
1.296917084E-1,-2.563868408E0,4.598886566E0,8.789272614E0,1.024570602E1
1.397707084E-1,-2.493664398E0,4.511468353E0,8.972641296E0,1.034794669E1
1.498487084E-1,-2.486179962E0,4.427343292E0,9.115144958E0,1.043399861E1
1.599277083E-1,-2.261497192E0,4.426445160E0,9.071884918E0,1.034441309E1
1.700067084E-1,-2.146685944E0,4.359085236E0,8.803343353E0,1.005528412E1
1.800857084E-1,-1.975292358E0,4.275259552E0,8.321645050E0,9.561872227E0
1.901647084E-1,-1.776805115E0,4.252057800E0,7.816445618E0,9.073800419E0
2.002427083E-1,-1.785636749E0,4.184997253E0,7.438481598E0,8.719731022E0
2.103217083E-1,-1.948498077E0,4.107907562E0,7.281907196E0,8.584737719E0
2.204007084E-1,-2.272723846E0,4.004921722E0,7.388036499E0,8.705616290E0
2.304797084E-1,-2.325863342E0,3.774999847E0,7.562274170E0,8.766313636E0
2.405587083E-1,-2.101479950E0,3.470233612E0,7.446864166E0,8.480243228E0
2.506367083E-1,-2.153122559E0,3.241060181E0,7.207960968E0,8.191160428E0
2.607157084E-1,-2.072290649E0,3.194656677E0,6.655160522E0,7.667553808E0
2.707947084E-1,-1.908680878E0,3.006947021E0,5.706433411E0,6.726676397E0
2.808737083E-1,-1.717079315E0,2.715353394E0,4.785099335E0,5.763564962E0
2.909527083E-1,-1.633553009E0,2.456242218E0,4.089346161E0,5.042258749E0
3.010307084E-1,-1.471290436E0,2.246827698E0,3.580105133E0,4.475498074E0
3.111097084E-1,-1.365909576E0,1.953737183E0,3.398682404E0,4.151366044E0
3.211887084E-1,-1.181044006E0,1.623074799E0,3.457959137E0,3.998339423E0
3.312677083E-1,-1.289867706E0,1.160386963E0,3.690575409E0,4.078063689E0
3.413467084E-1,-1.453776855E0,7.297325134E-1,3.810027008E0,4.142738525E0
3.514247084E-1,-1.246158600E0,5.129832458E-1,3.633544006E0,3.875397414E0
3.615037084E-1,-1.839524689E0,1.621128845E-1,3.302731934E0,3.783935768E0
3.715827083E-1,-2.811004486E0,1.781295776E-1,3.171305237E0,4.241539022E0
3.816617084E-1,-3.429518280E0,3.623963928E-1,3.118914185E0,4.649790583E0
3.917407084E-1,-3.957171021E0,5.249583435E-1,2.811453552E0,4.882525456E0
4.018187084E-1,-4.324956207E0,6.944059753E-1,2.374661865E0,4.982616263E0
4.118977083E-1,-4.566853180E0,7.608677673E-1,1.948348389E0,5.023059742E0
4.219767083E-1,-5.189109192E0,1.047371979E0,1.355431366E0,5.464525273E0
4.320557084E-1,-6.512956238E0,1.283580780E0,6.376739502E-1,6.668793492E0
4.421347084E-1,-7.509134674E0,1.230291595E0,8.175997925E-1,7.653051051E0
4.522127084E-1,-8.328381042E0,1.127754822E0,2.173629913E0,8.680923265E0
4.622917083E-1,-8.703051910E0,9.641450500E-1,3.566932526E0,9.454929713E0
4.723707084E-1,-8.967851257E0,4.912783813E-1,4.375251617E0,9.990322184E0
4.824497084E-1,-9.260642395E0,4.909790039E-2,4.728816376E0,1.039825045E1
4.925287084E-1,-9.451495514E0,-3.058140564E-1,4.553830261E0,1.049579248E1
5.026067083E-1,-9.675878906E0,-5.800437927E-1,4.107159119E0,1.052748020E1
5.126857084E-1,-1.027687912E1,-7.095245361E-1,3.516487427E0,1.088500590E1
5.227647084E-1,-1.100346817E1,-6.340814209E-1,2.691552887E0,1.134560831E1
5.328437084E-1,-1.159548706E1,-6.469546509E-1,2.160606995E0,1.181279362E1
5.429227083E-1,-1.208272385E1,-7.322772217E-1,1.885928192E0,1.225092530E1
5.530007083E-1,-1.284673508E1,-8.888516235E-1,1.789977722E0,1.300125685E1
5.630797084E-1,-1.379351624E1,-8.858578491E-1,2.224374390E0,1.399977413E1
5.731587084E-1,-1.405412430E1,-8.949888611E-1,2.922073517E0,1.438255640E1
5.832377083E-1,-1.342767700E1,-1.013991394E0,3.338208160E0,1.387351152E1
5.933167083E-1,-1.301318893E1,-1.191971283E0,3.701652374E0,1.358183022E1
6.033947084E-1,-1.271306305E1,-1.519789581E0,3.980672150E0,1.340811259E1
6.134737084E-1,-1.311737228E1,-1.811233521E0,3.852987671E0,1.379099476E1
6.235527084E-1,-1.372660538E1,-1.532213745E0,3.486549683E0,1.424511856E1
6.336317083E-1,-1.414573380E1,-1.247056732E0,3.021915894E0,1.451857124E1
6.437107084E-1,-1.568992264E1,-1.249601440E0,3.042423248E0,1.603095491E1
6.537887084E-1,-1.619751709E1,-7.713459778E-1,3.357368317E0,1.655978431E1
6.638677084E-1,-1.489327927E1,-5.918692017E-1,2.949167175E0,1.519400090E1
6.739467083E-1,-1.344623840E1,-4.354444885E-1,2.136956177E0,1.362194996E1
6.840257084E-1,-1.315254913E1,-4.549040222E-1,2.291285248E0,1.335838592E1
6.941047084E-1,-1.295496002E1,9.864486694E-2,2.827470245E0,1.326029064E1
7.041827084E-1,-1.343980179E1,-1.034349060E-1,3.349734192E0,1.385134254E1
7.142617083E-1,-1.355685837E1,1.275347900E-1,4.301754456E0,1.422356374E1
7.243407083E-1,-1.432940186E1,4.228706360E-1,5.000950470E0,1.518288783E1
7.344197084E-1,-1.462982712E1,6.158193970E-1,5.709127808E0,1.571639957E1
7.444987084E-1,-1.380968262E1,9.063652039E-1,6.154751129E0,1.514627985E1
7.545767084E-1,-1.268581970E1,1.315913544E0,5.632936249E0,1.394243956E1
7.646557083E-1,-1.298953812E1,1.230740662E0,4.994663544E0,1.397102312E1
7.747347084E-1,-1.387030655E1,1.272503815E0,5.531297607E0,1.498665816E1
7.848137084E-1,-1.434437073E1,1.895807648E0,5.842799835E0,1.560427403E1
7.948927084E-1,-1.532662811E1,2.400258636E0,5.627248077E0,1.650250562E1
8.049707083E-1,-1.652533539E1,3.019670563E0,5.320236511E0,1.762129497E1
8.150497084E-1,-1.750085678E1,3.840413818E0,4.973557434E0,1.859475840E1
8.251287084E-1,-1.802312073E1,4.841382294E0,4.474345551E0,1.919092576E1
8.352077084E-1,-1.857023300E1,5.699547729E0,3.476520538E0,1.973384385E1
8.452867083E-1,-1.898442169E1,6.262826385E0,2.347268829E0,2.012811298E1
8.553647083E-1,-1.896421371E1,6.727160797E0,1.379381561E0,2.016925352E1
8.654437084E-1,-1.875479919E1,6.997348938E0,9.310638428E-1,2.003926807E1
8.755227084E-1,-1.845826584E1,7.050638123E0,1.174008636E0,1.979387208E1
8.856017083E-1,-1.797611847E1,6.961273956E0,2.041305084E0,1.938471297E1
8.956807083E-1,-1.736359222E1,6.866970062E0,2.685415649E0,1.886428027E1
9.057587084E-1,-1.697619781E1,6.758296051E0,2.866389313E0,1.849546013E1
9.158377084E-1,-1.635858215E1,6.334377594E0,2.818189545E0,1.776709717E1
9.259167084E-1,-1.574740311E1,5.839806061E0,2.984194336E0,1.705841303E1
9.359957083E-1,-1.544188843E1,5.372328186E0,3.487896881E0,1.671763300E1
9.460747084E-1,-1.542572205E1,4.934039612E0,3.995341644E0,1.668113912E1
9.561527084E-1,-1.592179047E1,4.459676056E0,4.357738037E0,1.709918135E1
9.662317084E-1,-1.661155609E1,4.064797211E0,4.458927612E0,1.767338133E1
9.763107083E-1,-1.681782715E1,3.525768127E0,4.166585541E0,1.768136833E1
9.863897084E-1,-1.678504532E1,2.851719818E0,3.509751434E0,1.738356717E1
9.964687084E-1,-1.730820740E1,2.385289764E0,3.194656677E0,1.776146058E1
1.006546708E0,-1.820738754E1,2.174228668E0,3.312012634E0,1.863345537E1
1.016625708E0,-1.939322159E1,1.731299744E0,3.476221161E0,1.977823440E1
1.026704708E0,-2.026860123E1,1.031355286E0,3.553759918E0,2.060361859E1
1.036783708E0,-2.050436096E1,8.801696777E-2,3.733685760E0,2.084171238E1
1.046862708E0,-2.017744080E1,-9.225315857E-1,4.051025848E0,2.060075222E1
1.056940708E0,-1.964035767E1,-1.969454498E0,4.366270294E0,2.021600150E1
1.067019708E0,-1.913650543E1,-3.025508423E0,4.613556061E0,1.991593435E1
1.077098708E0,-1.876722336E1,-4.019890594E0,4.821024628E0,1.978915035E1
1.087178083E0,-1.826172455E1,-4.879552917E0,4.969066772E0,1.954462189E1
1.097257083E0,-1.746163834E1,-5.702242126E0,4.908742218E0,1.901368267E1
1.107335083E0,-1.652608383E1,-6.367159424E0,4.562961273E0,1.828859704E1
1.117414083E0,-1.555385559E1,-6.895710297E0,4.039200439E0,1.748680601E1
1.127493083E0,-1.446112793E1,-7.235803070E0,3.663032684E0,1.658007465E1
1.137572083E0,-1.350476669E1,-7.443720703E0,3.180136871E0,1.574487129E1
1.147651083E0,-1.258403137E1,-7.669002228E0,2.491868134E0,1.494593080E1
1.157729083E0,-1.146944916E1,-7.958949280E0,2.019899597E0,1.410578364E1
1.167808083E0,-1.011192215E1,-8.075407104E0,1.694626007E0,1.305124235E1
1.177887083E0,-9.040450287E0,-8.168214111E0,1.535357208E0,1.228034140E1
1.187966083E0,-8.330476685E0,-8.530460815E0,1.280587006E0,1.199189337E1
1.198045083E0,-7.767796783E0,-9.142388306E0,8.141569519E-1,1.202434124E1
1.208123083E0,-6.913074188E0,-9.871072998E0,2.378553772E-1,1.205343321E1
1.218202083E0,-5.370980988E0,-1.051278854E1,-5.034031677E-1,1.181607272E1
1.228281083E0,-3.466042328E0,-1.111738129E1,-1.114731903E0,1.169838635E1
1.238360083E0,-2.051783295E0,-1.129281647E1,-1.207987976E0,1.154108978E1
1.248439083E0,-1.849853210E0,-1.128533203E1,-1.108894043E0,1.148957449E1
1.258517083E0,-3.044369202E0,-1.124746078E1,-8.777746582E-1,1.168520630E1
1.268596083E0,-4.917873230E0,-1.095721436E1,-5.945635986E-1,1.202495445E1
1.278675083E0,-6.636748810E0,-1.048644333E1,-3.037184143E-1,1.241387020E1
1.288754083E0,-7.740553436E0,-1.005040009E1,-2.417472839E-1,1.268799240E1
1.298833083E0,-8.032596130E0,-9.798024902E0,-2.480342102E-1,1.267223001E1
1.308911083E0,-7.698640594E0,-9.672585754E0,-3.647914124E-1,1.236774252E1
1.318990083E0,-7.259753265E0,-9.752818909E0,-5.177732849E-1,1.216920636E1
1.329069083E0,-7.024891663E0,-9.731114044E0,-5.056484985E-1,1.201246702E1
1.339148083E0,-7.148983612E0,-9.434730377E0,-6.017486572E-2,1.183747122E1
1.349227083E0,-7.502997437E0,-9.011560364E0,4.888833618E-1,1.173636220E1
1.359305083E0,-7.930957489E0,-8.562045135E0,8.728349304E-1,1.170344156E1
1.369384083E0,-8.825197906E0,-8.005053406E0,1.349743195E0,1.199111358E1
1.379463083E0,-9.772577820E0,-7.273225250E0,2.044298859E0,1.235241841E1
1.389542083E0,-1.015069153E1,-6.566993866E0,2.256557465E0,1.229853644E1
1.399621083E0,-1.011207184E1,-5.980363770E0,2.186353455E0,1.194984892E1
1.409699083E0,-9.995614014E0,-5.441334686E0,1.934277649E0,1.154390977E1
1.419778083E0,-9.994566193E0,-5.110821991E0,1.779349823E0,1.136564739E1
1.429857083E0,-9.771679688E0,-4.808750153E0,1.968556366E0,1.106729489E1
1.439936083E0,-9.640552368E0,-4.866829376E0,2.216440887E0,1.102446771E1
1.450015083E0,-9.934091949E0,-4.766837311E0,2.862198029E0,1.138424782E1
1.460093083E0,-1.042926224E1,-4.292324066E0,3.218307495E0,1.172821640E1
1.470172083E0,-1.089224945E1,-4.051923981E0,3.336112518E0,1.209085740E1
1.480251083E0,-1.149833908E1,-3.911965027E0,3.774850159E0,1.271867783E1
1.490330083E0,-1.199126404E1,-3.324736176E0,4.279450836E0,1.315895069E1
1.500409083E0,-1.196761322E1,-2.791395264E0,4.079466705E0,1.294827024E1
1.510487083E0,-1.168649780E1,-2.381846924E0,3.330574036E0,1.238305895E1
1.520566083E0,-1.142873383E1,-1.933828583E0,2.364782410E0,1.182995544E1
1.530645083E0,-1.144609772E1,-1.550176392E0,1.493743744E0,1.164677939E1
1.540724083E0,-1.180954193E1,-1.363364868E0,1.147513733E0,1.194323374E1
1.550803083E0,-1.222552689E1,-8.945397949E-1,1.184786224E0,1.231533302E1
1.560881083E0,-1.281515076E1,-6.292913818E-1,1.191522217E0,1.288579923E1
1.570960083E0,-1.377555359E1,-6.330335999E-1,1.407822418E0,1.386176656E1
1.581039083E0,-1.468760696E1,-5.037025452E-1,1.730700989E0,1.479779850E1
1.591118083E0,-1.575428879E1,-3.409909058E-1,2.021845551E0,1.588715674E1
1.601197083E0,-1.691557388E1,-2.899470520E-1,2.006577301E0,1.703663880E1
1.611275083E0,-1.805859695E1,-2.706372070E-1,1.686842194E0,1.813922835E1
1.621354083E0,-1.917183197E1,-6.601272583E-2,1.457070007E0,1.922723464E1
1.631433083E0,-2.052711365E1,2.662962341E-1,1.362466736E0,2.057400360E1
1.641512083E0,-2.235645950E1,7.255412292E-1,1.045276337E0,2.239263929E1
1.651591083E0,-2.407219162E1,1.370849304E0,8.922944641E-1,2.412769833E1
1.661669083E0,-2.521775940E1,2.115401001E0,1.326391754E0,2.534106599E1
1.671748083E0,-2.576996109E1,2.668351135E0,2.099084930E0,2.599263646E1
1.681827083E0,-2.580588638E1,2.927462311E0,3.018173676E0,2.614618863E1
1.691906083E0,-2.489937149E1,2.946323090E0,4.154610443E0,2.541496229E1
1.701985083E0,-2.345263000E1,2.668650513E0,5.204676819E0,2.417097868E1
1.712063083E0,-2.185081100E1,2.162852325E0,6.100264435E0,2.278923206E1
1.722142083E0,-2.027279251E1,1.688488770E0,6.833888855E0,2.146017585E1
1.732221083E0,-1.882515289E1,1.210832062E0,7.303162994E0,2.022841283E1
1.742300083E0,-1.759396317E1,8.431965637E-1,7.314239960E0,1.907240484E1
1.752379083E0,-1.693054276E1,5.908213806E-1,6.839277649E0,1.826932037E1
1.762457083E0,-1.698083817E1,7.334747314E-3,6.046975250E0,1.802539398E1
1.772536083E0,-1.725117599E1,-7.909552002E-1,5.241949310E0,1.804734651E1
1.782615083E0,-1.712528778E1,-1.569037170E0,4.550387421E0,1.778885564E1
1.792694083E0,-1.675331131E1,-2.473606110E0,3.970942383E0,1.739426775E1
1.802773083E0,-1.644809601E1,-3.293600922E0,3.515439606E0,1.713901937E1
1.812851083E0,-1.635439087E1,-4.007616119E0,3.084336090E0,1.711841747E1
1.822930083E0,-1.650333115E1,-4.799319763E0,2.380948792E0,1.735114769E1
1.833009083E0,-1.657428360E1,-5.542973328E0,1.863774261E0,1.757569585E1
1.843088083E0,-1.642294830E1,-5.903723145E0,1.697170715E0,1.753418280E1
1.853167083E0,-1.615919678E1,-5.980214081E0,1.662742310E0,1.731032388E1
1.863245083E0,-1.613015717E1,-6.100863190E0,1.685195618E0,1.732750375E1
1.873324083E0,-1.589694214E1,-6.160139923E0,1.647324371E0,1.712815725E1
1.883403083E0,-1.524834091E1,-5.860463104E0,1.350491638E0,1.639148425E1
1.893482083E0,-1.439915680E1,-5.633385315E0,8.279283142E-1,1.548406316E1
1.903561083E0,-1.366074234E1,-5.646857300E0,8.572673035E-1,1.480668045E1
1.913639083E0,-1.292008255E1,-5.700745239E0,1.181044006E0,1.417116418E1
1.923718083E0,-1.231055008E1,-5.895789642E0,1.659149780E0,1.375000934E1
1.933797083E0,-1.185923859E1,-6.250102844E0,2.194286957E0,1.358382202E1
1.943876083E0,-1.137080429E1,-6.660249939E0,2.777025146E0,1.346721902E1
1.953955083E0,-1.082533859E1,-7.018305359E0,3.117716675E0,1.327270594E1
1.964033083E0,-1.021894958E1,-7.335944824E0,3.181633759E0,1.297558517E1
1.974112083E0,-9.638905792E0,-7.596852264E0,3.195704498E0,1.268200286E1
1.984191083E0,-8.971743164E0,-7.564818878E0,3.293600922E0,1.218878448E1
1.994270083E0,-8.355325012E0,-7.612569580E0,3.354374542E0,1.179044105E1
2.004349083E0,-8.015830994E0,-8.002658386E0,3.185076599E0,1.176608689E1
2.014427083E0,-7.847580872E0,-8.388256531E0,3.029250641E0,1.187955103E1
2.024506083E0,-7.604486389E0,-8.637488251E0,2.845732269E0,1.185464503E1
2.034585083E0,-7.180118866E0,-8.894952850E0,2.401605835E0,1.168083917E1
2.044664083E0,-6.712940369E0,-9.219477997E0,2.035916290E0,1.158478736E1
2.054743083E0,-6.159391479E0,-9.580078125E0,1.578317871E0,1.149813409E1
2.064821083E0,-5.698948975E0,-9.837393036E0,1.012494507E0,1.141391547E1
2.074900083E0,-5.495522003E0,-9.959988098E0,1.878593445E-1,1.137705657E1
2.084979083E0,-5.253175964E0,-9.820478210E0,-5.783972168E-1,1.115222818E1
2.095058125E0,-4.692891083E0,-9.513616333E0,-9.586065674E-1,1.065134024E1
2.105137125E0,-4.124223633E0,-9.313332825E0,-1.315464478E0,1.027024029E1
2.115215125E0,-3.592678986E0,-9.033265228E0,-1.646575928E0,9.859940936E0
2.125294125E0,-3.012784882E0,-8.644822998E0,-2.036515045E0,9.378551644E0
2.135373125E0,-2.608176270E0,-8.294701080E0,-2.492915955E0,9.045401009E0
2.145452125E0,-2.580184479E0,-8.002359009E0,-2.735860748E0,8.841947505E0
2.155531125E0,-3.060535583E0,-7.715705109E0,-2.553539886E0,8.684442949E0
2.165609125E0,-4.034260712E0,-7.549550629E0,-1.831890564E0,8.753673356E0
2.175688125E0,-5.550008698E0,-7.598947906E0,-1.020577698E0,9.465103521E0
2.185767125E0,-7.309000854E0,-7.755971375E0,-1.857637024E-1,1.065885048E1
2.195846125E0,-8.773854675E0,-7.675289154E0,6.976991272E-1,1.167807234E1
2.205925125E0,-9.719887390E0,-7.356751556E0,1.418450317E0,1.227232682E1
2.216003125E0,-1.043435165E1,-7.102280731E0,1.790426788E0,1.274847889E1
2.226082125E0,-1.112875763E1,-7.022945709E0,1.926942902E0,1.329977901E1
2.236161125E0,-1.197898956E1,-7.095395050E0,2.067799988E0,1.407539053E1
2.246240125E0,-1.325703186E1,-7.207062836E0,2.081122284E0,1.523225914E1
2.256319125E0,-1.456860443E1,-7.205715637E0,1.882485352E0,1.636185576E1
2.266397125E0,-1.540521469E1,-7.082072754E0,1.611848145E0,1.703157211E1
2.276476125E0,-1.586356155E1,-6.960076447E0,1.430874481E0,1.738225104E1
2.286555125E0,-1.574066711E1,-6.934629364E0,1.363215179E0,1.725444990E1
2.296634125E0,-1.521675659E1,-7.167844391E0,1.320553894E0,1.687221198E1
2.306713125E0,-1.467757782E1,-7.498057709E0,1.266067200E0,1.653042910E1
2.316791125E0,-1.431488205E1,-7.561825104E0,1.574875031E0,1.626583162E1
2.326870125E0,-1.406295593E1,-7.466623077E0,2.104773102E0,1.606073658E1
2.336949125E0,-1.400592453E1,-7.419171753E0,2.655328217E0,1.607049468E1
2.347028125E0,-1.422372162E1,-7.243437195E0,3.412753143E0,1.632263836E1
2.357107125E0,-1.448283279E1,-6.763086090E0,4.196373596E0,1.652577776E1
2.367185125E0,-1.472757385E1,-6.059249725E0,4.623734894E0,1.658296907E1
2.377264125E0,-1.443478271E1,-5.244943085E0,4.670737152E0,1.605266849E1
2.387343125E0,-1.390727966E1,-4.503684540E0,4.513563995E0,1.529927652E1
2.397422125E0,-1.344698685E1,-4.017046509E0,4.312831421E0,1.468191516E1
2.407501125E0,-1.307216629E1,-3.552562408E0,4.214336243E0,1.418671425E1
2.417579125E0,-1.271920029E1,-2.934198303E0,3.719315643E0,1.357279943E1
2.427658125E0,-1.275048523E1,-2.397115173E0,2.749781799E0,1.326206374E1
2.437737125E0,-1.317934341E1,-1.826052704E0,2.333198090E0,1.350827060E1
2.447816125E0,-1.370714584E1,-9.633966064E-1,2.209854584E0,1.391752268E1
2.457895125E0,-1.399379974E1,-2.504292297E-1,1.907183990E0,1.412538484E1
2.467973125E0,-1.408346329E1,3.164419556E-1,1.677711182E0,1.418657071E1
2.478052125E0,-1.382629807E1,7.252418518E-1,1.420096893E0,1.391794414E1
2.488131125E0,-1.305599991E1,7.475454712E-1,1.244212646E0,1.313643875E1
2.498210125E0,-1.234961884E1,6.113287354E-1,1.247356110E0,1.242749796E1
2.508289125E0,-1.229153961E1,2.276765442E-1,1.538350983E0,1.238952406E1
2.518367125E0,-1.276320877E1,-2.168989563E-1,2.123933258E0,1.294054233E1
2.528446125E0,-1.374905869E1,-6.734495544E-1,2.620151367E0,1.401268505E1
2.538525125E0,-1.520029083E1,-1.208287354E0,2.712658997E0,1.548765052E1
2.548604125E0,-1.626188324E1,-1.405277710E0,2.974165192E0,1.659124198E1
2.558683125E0,-1.655662033E1,-1.288221130E0,3.035387878E0,1.688178812E1
2.568761125E0,-1.679118256E1,-1.305884399E0,2.694097595E0,1.705600503E1
2.578840125E0,-1.678833847E1,-1.359772339E0,2.370021515E0,1.700924135E1
2.588919125E0,-1.681543213E1,-1.323397980E0,2.325863342E0,1.702703087E1
2.598998125E0,-1.737047791E1,-1.312620392E0,2.808908844E0,1.764501187E1
2.609077125E0,-1.804153244E1,-1.306034088E0,3.700305176E0,1.846333871E1
2.619155125E0,-1.849044891E1,-1.347797241E0,4.732408905E0,1.913397378E1
2.629234125E0,-1.903307053E1,-1.313518524E0,6.057902527E0,2.001702494E1
2.639313125E0,-1.941283081E1,-1.333127747E0,7.175927582E0,2.073955560E1
2.649392125E0,-1.938349182E1,-1.473984833E0,7.816295929E0,2.095201347E1
2.659471125E0,-1.909219757E1,-1.639091492E0,8.072862396E0,2.079350226E1
2.669549125E0,-1.878024628E1,-1.827100525E0,7.843838654E0,2.043432777E1
2.679628125E0,-1.831082245E1,-1.972448273E0,7.168293457E0,1.976262133E1
2.689707125E0,-1.776805115E1,-1.991608429E0,6.178851013E0,1.891687991E1
2.699786125E0,-1.707544144E1,-2.020198975E0,5.193599854E0,1.796177562E1
2.709865125E0,-1.650228333E1,-2.077380066E0,4.368066559E0,1.719653652E1
2.719943125E0,-1.626891861E1,-2.280956726E0,3.637286224E0,1.682588266E1
2.730022125E0,-1.627565460E1,-2.588567047E0,3.027005310E0,1.675590562E1
2.740101125E0,-1.641546387E1,-3.090323639E0,2.571951599E0,1.690066535E1
2.750180125E0,-1.690419754E1,-3.686234436E0,2.544408875E0,1.748754515E1
2.760259125E0,-1.767928574E1,-4.260290680E0,2.856809235E0,1.840838341E1
2.770337125E0,-1.811143707E1,-5.137765961E0,2.991080017E0,1.906219692E1
2.780416125E0,-1.861139740E1,-6.207890625E0,3.262016602E0,1.988875993E1
2.790495125E0,-1.912947006E1,-7.316934357E0,3.442840576E0,2.076842085E1
2.800574125E0,-1.953692276E1,-8.441246338E0,3.398383026E0,2.155214602E1
2.810653125E0,-1.940355011E1,-9.407487030E0,3.063978424E0,2.178041627E1
2.820731125E0,-1.841365860E1,-9.758058014E0,2.668949890E0,2.100965999E1
2.830810125E0,-1.690614349E1,-9.746382294E0,2.583627319E0,1.968463324E1
2.840889125E0,-1.554188049E1,-9.681567078E0,2.613265686E0,1.849626849E1
2.850968125E0,-1.462713272E1,-9.576784973E0,2.832559662E0,1.771133017E1
2.861047125E0,-1.399350037E1,-9.449848938E0,3.241958313E0,1.719383585E1
2.871125125E0,-1.354308701E1,-9.452094269E0,3.451672211E0,1.687220592E1
2.881204125E0,-1.295945068E1,-9.594298553E0,3.535497894E0,1.650750351E1
2.891283125E0,-1.216789673E1,-9.612859955E0,3.655847626E0,1.593204347E1
2.901362125E0,-1.114612152E1,-9.563312988E0,3.700903931E0,1.514561554E1
2.911441125E0,-1.023317001E1,-9.610015869E0,3.816912689E0,1.454781757E1
2.921519125E0,-9.540560303E0,-9.851912842E0,3.981570282E0,1.428059451E1
2.931598125E0,-8.807983704E0,-1.000040405E1,4.171225891E0,1.396380262E1
2.941677125E0,-8.194259949E0,-1.012539413E1,4.351600800E0,1.373338749E1
2.951756125E0,-7.527546387E0,-1.001896545E1,4.279450836E0,1.324225520E1
2.961835125E0,-6.888525238E0,-9.861043854E0,3.951333160E0,1.266116107E1
2.971913125E0,-6.392756195E0,-9.905501404E0,3.490890656E0,1.229522702E1
2.981992125E0,-5.743406525E0,-9.865833893E0,2.772684174E0,1.174773061E1
2.992071125E0,-5.309608612E0,-9.937983856E0,1.969604187E0,1.143830439E1
3.002150125E0,-5.175637207E0,-1.009560608E1,1.462009735E0,1.143879168E1
3.012229125E0,-4.780159607E0,-1.006432114E1,8.834628296E-1,1.117680600E1
3.022307125E0,-4.314777374E0,-1.011955627E1,2.228865051E-1,1.100329048E1
3.032386125E0,-3.813320160E0,-9.881850586E0,-4.111949158E-1,1.060006900E1
3.042465125E0,-3.520079956E0,-9.496851196E0,-1.085243225E0,1.018621119E1
3.052544125E0,-3.328927460E0,-8.896300049E0,-1.790875854E0,9.666082398E0
3.062623125E0,-3.237767029E0,-8.092770996E0,-2.474803619E0,9.060945353E0
3.072701125E0,-3.358416138E0,-7.368127899E0,-2.776725769E0,8.560284673E0
3.082780125E0,-3.589236145E0,-6.722221069E0,-2.565814362E0,8.040788242E0
3.092858583E0,-3.637136536E0,-6.293811951E0,-1.934127960E0,7.522079634E0
3.102937583E0,-3.579506378E0,-6.001918945E0,-8.734336853E-1,7.042640367E0
3.113016583E0,-3.754043427E0,-5.727240143E0,3.471281433E-1,6.856720765E0
3.123094583E0,-4.543651428E0,-5.528154144E0,1.376088409E0,7.286897547E0
3.133173583E0,-5.574407959E0,-5.303920441E0,2.052681427E0,7.963610813E0
3.143252583E0,-6.686445465E0,-5.087919617E0,2.224075012E0,8.691489438E0
3.153331583E0,-7.735464020E0,-4.946164398E0,2.151475983E0,9.430312548E0
3.163410583E0,-8.477171631E0,-4.737947388E0,1.895657959E0,9.894650242E0
3.173488583E0,-9.145681458E0,-4.603227539E0,1.167572021E0,1.030516460E1
3.183567583E0,-9.952803040E0,-4.691244507E0,3.040177917E-1,1.100720174E1
3.193646583E0,-1.076785812E1,-4.850213928E0,-2.866539001E-1,1.181327703E1
3.203725583E0,-1.146510818E1,-5.104984131E0,-7.078779602E-1,1.257022911E1
3.213804583E0,-1.196297287E1,-5.394931183E0,-9.756710815E-1,1.315940487E1
3.223882583E0,-1.203257812E1,-5.655838623E0,-1.013841705E0,1.333414121E1
3.233961583E0,-1.190848618E1,-6.075416107E0,-8.189469910E-1,1.339378207E1
3.244040583E0,-1.185549637E1,-6.647227020E0,-3.601510620E-1,1.359662201E1
3.254119583E0,-1.192135941E1,-7.124135284E0,2.113604736E-1,1.388944876E1
3.264198583E0,-1.226175156E1,-7.507937164E0,8.276289368E-1,1.440154996E1
3.274276583E0,-1.283610718E1,-7.726632385E0,1.512903900E0,1.505839878E1
3.284355583E0,-1.341749817E1,-7.974217529E0,1.949396210E0,1.572951200E1
3.294434583E0,-1.341420502E1,-8.112380219E0,2.378703461E0,1.585590865E1
3.304513583E0,-1.310090652E1,-8.091124420E0,2.944077759E0,1.567697803E1
3.314592583E0,-1.287532562E1,-8.088430023E0,3.317251740E0,1.556280403E1
3.324670583E0,-1.261337036E1,-7.861352234E0,3.720363464E0,1.532119692E1
3.334749583E0,-1.257849289E1,-7.522606659E0,4.081262970E0,1.521396732E1
3.344828583E0,-1.283850220E1,-7.071444855E0,4.350552979E0,1.528920476E1
3.354907583E0,-1.299492691E1,-6.477030945E0,4.502487030E0,1.520172506E1
3.364986583E0,-1.309297302E1,-5.836961975E0,4.632865906E0,1.506517554E1
3.375064583E0,-1.311572571E1,-5.093308411E0,4.646786957E0,1.481744514E1
3.385143583E0,-1.299792068E1,-4.290827179E0,4.363126831E0,1.436641973E1
3.395222583E0,-1.319161789E1,-3.837719421E0,4.123924255E0,1.434411462E1
3.405301583E0,-1.355670868E1,-3.202889557E0,4.521048431E0,1.464522894E1
3.415380583E0,-1.346689545E1,-2.151026917E0,4.234843597E0,1.427998915E1
3.425458583E0,-1.355117020E1,-1.503024445E0,3.537892914E0,1.408580784E1
3.435537583E0,-1.370340363E1,-8.601113892E-1,3.218157806E0,1.410246795E1
3.445616583E0,-1.384650604E1,-4.528083801E-1,2.938539276E0,1.416212477E1
3.455695583E0,-1.396805328E1,-2.160008240E-1,2.845283203E0,1.425653553E1
3.465774583E0,-1.427027481E1,-7.918533325E-2,2.637964325E0,1.451226617E1
3.475852583E0,-1.468790634E1,-1.219963074E-1,2.497556305E0,1.489923700E1
3.485931583E0,-1.470422241E1,-1.746867371E-1,2.528990936E0,1.492114162E1
3.496010583E0,-1.453432571E1,-3.664379883E-1,2.713407440E0,1.478997906E1
3.506089583E0,-1.438209229E1,-6.870712280E-1,3.059487762E0,1.471995621E1
3.516168583E0,-1.439257050E1,-9.681866455E-1,3.537144470E0,1.485243623E1
3.526246583E0,-1.456860443E1,-1.078357544E0,4.087250519E0,1.516946627E1
3.536325583E0,-1.493249771E1,-1.025966492E0,4.553081818E0,1.564489211E1
3.546404583E0,-1.520972122E1,-9.008267212E-1,5.018913116E0,1.604171429E1
3.556483583E0,-1.541943512E1,-7.565267944E-1,5.653443604E0,1.644058201E1
3.566562583E0,-1.577150299E1,-5.547463989E-1,6.091283112E0,1.691602140E1
3.576641583E0,-1.624107651E1,-5.974076843E-1,6.607858887E0,1.754403777E1
3.586719583E0,-1.669732773E1,-5.640270996E-1,7.350464630E0,1.825234807E1
3.596798583E0,-1.670436310E1,-5.807922363E-1,7.894134064E0,1.848487000E1
3.606877583E0,-1.626323044E1,-6.060896301E-1,8.279582520E0,1.825955902E1
3.616956583E0,-1.577449677E1,-6.718029785E-1,8.558302917E0,1.795913740E1
3.627035583E0,-1.540416687E1,-7.726931763E-1,8.818012848E0,1.776633790E1
3.637113583E0,-1.516346741E1,-1.127605133E0,8.784781952E0,1.756059882E1
3.647192583E0,-1.543605057E1,-1.692230988E0,8.807834015E0,1.785254164E1
3.657271583E0,-1.605381592E1,-1.940265198E0,8.847501526E0,1.843279463E1
3.667350583E0,-1.636741379E1,-1.971101074E0,8.519533539E0,1.855693739E1
3.677429583E0,-1.630783768E1,-1.763931885E0,7.433841248E0,1.800885952E1
3.687507583E0,-1.613000748E1,-1.553020477E0,5.878126373E0,1.723778940E1
3.697586583E0,-1.581161957E1,-1.478625183E0,4.458777924E0,1.649467630E1
3.707665583E0,-1.564486633E1,-1.622176666E0,3.453019409E0,1.610331155E1
3.717744583E0,-1.543200897E1,-2.021396484E0,2.896626434E0,1.583108933E1
3.727823583E0,-1.520148834E1,-2.527494049E0,2.725083160E0,1.564926683E1
3.737901583E0,-1.507739639E1,-3.181334381E0,2.743943939E0,1.565177302E1
3.747980583E0,-1.493758713E1,-3.835174713E0,3.001857605E0,1.571149972E1
3.758059583E0,-1.494447281E1,-4.587659912E0,3.379671936E0,1.599393865E1
3.768138583E0,-1.505030273E1,-5.318739624E0,3.611539764E0,1.636593484E1
3.778217583E0,-1.474688370E1,-5.883515167E0,3.720064087E0,1.630721332E1
3.788295583E0,-1.417148026E1,-6.290518799E0,3.745211792E0,1.595080220E1
3.798374583E0,-1.361344070E1,-6.726412354E0,3.840563507E0,1.566270472E1
3.808453583E0,-1.321931030E1,-6.948550415E0,3.993545380E0,1.545900781E1
3.818532583E0,-1.275752060E1,-7.047045593E0,4.071533203E0,1.513250032E1
3.828611583E0,-1.226878693E1,-6.981182556E0,4.101321259E0,1.469968974E1
3.838689583E0,-1.201072357E1,-6.892117767E0,4.307742004E0,1.450225531E1
3.848768583E0,-1.174397827E1,-6.876250763E0,4.558021545E0,1.435198281E1
3.858847583E0,-1.132005981E1,-6.875951385E0,4.655319214E0,1.403903339E1
3.868926583E0,-1.088042404E1,-7.011120300E0,4.646487579E0,1.375242822E1
3.879005583E0,-1.067849396E1,-7.302863617E0,4.634811859E0,1.374203519E1
3.889083583E0,-1.046623535E1,-7.563172302E0,4.694986725E0,1.373996208E1
3.899162583E0,-1.000220032E1,-7.739355927E0,4.549040222E0,1.344006727E1
3.909241583E0,-9.397158508E0,-8.027806091E0,4.251758423E0,1.307018394E1
3.919320583E0,-8.744365997E0,-8.163124695E0,4.141138458E0,1.265897189E1
3.929399583E0,-8.149952087E0,-8.240962830E0,4.014651489E0,1.226591268E1
3.939477583E0,-7.830216980E0,-8.289162598E0,4.023034058E0,1.209162179E1
3.949556583E0,-7.752079468E0,-8.324339447E0,4.228706360E0,1.213553958E1
3.959635583E0,-7.657775574E0,-8.411009216E0,4.253704376E0,1.214415924E1
3.969714583E0,-7.598199463E0,-8.588989105E0,4.043092346E0,1.215935708E1
3.979793583E0,-7.526049500E0,-8.822353821E0,3.669469299E0,1.216307333E1
3.989872583E0,-7.247478790E0,-9.139095154E0,3.258573761E0,1.211062806E1
3.999950583E0,-6.813680878E0,-9.462722168E0,2.741848297E0,1.197860969E1
4.010029583E0,-6.345005493E0,-9.682764587E0,2.219734039E0,1.178737647E1
4.020108583E0,-6.009253693E0,-9.518256683E0,1.742676086E0,1.139057769E1
4.030187583E0,-5.637426910E0,-9.109456787E0,1.347797241E0,1.079719142E1
4.040266583E0,-5.333409119E0,-8.632398834E0,1.130000153E0,1.020982188E1
4.050344583E0,-5.487289124E0,-8.100554810E0,1.178050232E0,9.854802509E0
4.060423583E0,-5.967041473E0,-7.576195221E0,1.330732727E0,9.735253852E0
4.070502583E0,-6.179449768E0,-7.099586334E0,1.083596649E0,9.474381629E0
4.080581583E0,-6.041287079E0,-6.723867645E0,7.303312683E-1,9.068678484E0
4.090660958E0,-6.040538635E0,-6.366710358E0,5.456153870E-1,8.793224888E0
4.100738958E0,-5.923182678E0,-6.119125214E0,3.978726196E-1,8.525613705E0
4.110817958E0,-5.698350220E0,-6.024971008E0,3.540138245E-1,8.300409428E0
4.120896958E0,-5.612578583E0,-6.014343109E0,3.848497009E-1,8.235379206E0
4.130975958E0,-5.741460571E0,-5.962999878E0,3.977229309E-1,8.287334950E0
4.141054958E0,-6.403234406E0,-5.766907654E0,1.267863464E-1,8.618277642E0
4.151132958E0,-7.337591400E0,-5.625751190E0,-3.088078308E-1,9.251199181E0
4.161211958E0,-8.198900299E0,-5.608986053E0,-6.813830566E-1,9.957257330E0
4.171290958E0,-8.651558990E0,-5.703888702E0,-1.073866882E0,1.041810968E1
4.181369958E0,-8.650511169E0,-5.837560730E0,-1.494641876E0,1.054241021E1
4.191448958E0,-8.676107941E0,-6.193370819E0,-1.788780212E0,1.080890493E1
4.201526958E0,-8.907826080E0,-6.555168457E0,-1.720671844E0,1.119286874E1
4.211605958E0,-9.419312439E0,-6.851103058E0,-1.327738953E0,1.172279620E1
4.221684958E0,-1.022493713E1,-7.153474274E0,-6.420149231E-1,1.249534780E1
4.231763958E0,-1.097981735E1,-7.358248444E0,3.372486877E-1,1.322172250E1
4.241842958E0,-1.160686340E1,-7.437882843E0,1.056952057E0,1.382600907E1
4.251920958E0,-1.212568451E1,-7.426356812E0,1.567240906E0,1.430521738E1
4.261999958E0,-1.221639587E1,-7.181915131E0,1.833836517E0,1.428926833E1
4.272078958E0,-1.232686615E1,-6.847510529E0,2.000739441E0,1.424229574E1
4.282157958E0,-1.230471222E1,-6.378535767E0,2.088906097E0,1.401624736E1
4.292236958E0,-1.227073288E1,-5.893694000E0,1.981279907E0,1.375616169E1
4.302314958E0,-1.225561432E1,-5.337450714E0,2.008822632E0,1.351753790E1
4.312393958E0,-1.217777618E1,-4.696333923E0,2.145039368E0,1.322705481E1
4.322472958E0,-1.212733109E1,-4.141437836E0,2.184706879E0,1.299986964E1
4.332551958E0,-1.216175949E1,-3.555256805E0,1.939666443E0,1.281836771E1
4.342630958E0,-1.208796295E1,-2.944077759E0,1.418300629E0,1.252190157E1
4.352708958E0,-1.195309341E1,-2.482587433E0,6.366261292E-1,1.222476893E1
4.362787958E0,-1.181792450E1,-2.130968628E0,5.882766724E-2,1.200865636E1
4.372866958E0,-1.165925446E1,-1.667831726E0,5.852828979E-2,1.177808570E1
4.382945958E0,-1.165521286E1,-1.360820160E0,-1.953437805E-1,1.173601199E1
4.393024958E0,-1.188049438E1,-1.213376770E0,-5.005590820E-1,1.195278166E1
4.403102958E0,-1.225142303E1,-9.530680847E-1,-4.945715332E-1,1.229838632E1
4.413181958E0,-1.262549515E1,-6.518943787E-1,-4.336482239E-1,1.264974880E1
4.423260958E0,-1.306917252E1,-5.185217285E-1,-5.360353088E-1,1.309043425E1
4.433339958E0,-1.362930771E1,-5.948629761E-1,-4.367916870E-1,1.364927388E1
4.443418958E0,-1.376312943E1,-5.587879944E-1,-5.643264771E-2,1.377458385E1
4.453496958E0,-1.397868118E1,-5.545967102E-1,1.826202393E-1,1.399087043E1
4.463575958E0,-1.428748901E1,-7.692503357E-1,5.734574890E-1,1.431966975E1
4.473654958E0,-1.412462769E1,-9.054670715E-1,8.556207275E-1,1.417945925E1
4.483733958E0,-1.406265656E1,-1.189127197E0,1.026565247E0,1.415012965E1
4.493812958E0,-1.440514435E1,-1.574725342E0,1.289867706E0,1.454825427E1
4.503890958E0,-1.482008148E1,-1.743873596E0,1.699116669E0,1.501875187E1
4.513969958E0,-1.557915298E1,-1.930685120E0,2.317181396E0,1.586842407E1
4.524048958E0,-1.600471802E1,-1.881587219E0,3.129242706E0,1.641595350E1
4.534127958E0,-1.616922592E1,-1.589843903E0,3.803590393E0,1.668648466E1
4.544206958E0,-1.636367157E1,-1.178199921E0,4.459376678E0,1.700129238E1
4.554284958E0,-1.652458694E1,-8.036787415E-1,5.041665802E0,1.729526719E1
4.564363958E0,-1.669418427E1,-5.019062805E-1,5.725593567E0,1.765588060E1
4.574442958E0,-1.679896637E1,-2.369572449E-1,6.692133636E0,1.808441518E1
4.584521958E0,-1.672023010E1,1.287322998E-2,7.801776123E0,1.845085285E1
4.594600958E0,-1.681303711E1,-3.367996216E-2,8.778644714E0,1.896691736E1
4.604678958E0,-1.678130310E1,-2.538720703E-1,9.350605316E0,1.921224621E1
4.614757958E0,-1.643387558E1,-5.661227417E-1,9.454189911E0,1.896772175E1
4.624836958E0,-1.589604401E1,-9.169931030E-1,9.119635620E0,1.834919195E1
4.634915958E0,-1.548185532E1,-1.094523926E0,8.682245178E0,1.778390306E1
4.644994958E0,-1.518292694E1,-1.160686340E0,7.880362701E0,1.714551194E1
4.655072958E0,-1.500674332E1,-1.308728485E0,6.784192200E0,1.652090733E1
4.665151958E0,-1.498863098E1,-1.695075073E0,5.696254578E0,1.612388459E1
4.675230958E0,-1.482591934E1,-2.226320343E0,5.018314362E0,1.580973958E1
4.685309958E0,-1.447040863E1,-2.862198029E0,5.083428955E0,1.560212016E1
4.695388958E0,-1.414633255E1,-3.623065796E0,5.736670532E0,1.568931863E1
4.705466958E0,-1.390937531E1,-4.365222473E0,6.665938110E0,1.602999125E1
4.715545958E0,-1.397194519E1,-4.750521240E0,7.293732605E0,1.646150782E1
4.725624958E0,-1.422207504E1,-5.269192657E0,7.451803894E0,1.689855589E1
4.735703958E0,-1.430290695E1,-5.746400299E0,7.509434052E0,1.714601596E1
4.745782958E0,-1.463386871E1,-6.072871399E0,7.523205414E0,1.753934150E1
4.755860958E0,-1.498743347E1,-6.367009735E0,7.635621643E0,1.798512421E1
4.765939958E0,-1.491228973E1,-6.552324371E0,7.920329590E0,1.811190108E1
4.776018958E0,-1.434377197E1,-6.564000092E0,8.398135986E0,1.787060658E1
4.786097958E0,-1.359457993E1,-6.469995575E0,9.142837372E0,1.761433851E1
4.796176958E0,-1.292337570E1,-6.317313080E0,9.653575287E0,1.732378711E1
4.806254958E0,-1.225845840E1,-6.280639343E0,9.668544159E0,1.682845742E1
4.816333958E0,-1.184516785E1,-6.242019653E0,9.552385712E0,1.644745827E1
4.826412958E0,-1.173903854E1,-6.292315063E0,9.498797150E0,1.635926044E1
4.836491958E0,-1.165700912E1,-6.465804291E0,9.308243408E0,1.625840958E1
4.846570958E0,-1.157318344E1,-6.609655151E0,8.724457397E0,1.592928979E1
4.856648958E0,-1.146480881E1,-6.716832275E0,7.998317413E0,1.550905407E1
4.866727958E0,-1.130778534E1,-6.792574768E0,7.583230591E0,1.521546803E1
4.876806958E0,-1.106334366E1,-6.920558624E0,7.489525452E0,1.504608574E1
4.886885958E0,-1.040710831E1,-6.909631348E0,7.287894745E0,1.446251425E1
4.896964958E0,-9.582323456E0,-6.875652008E0,6.941964111E0,1.368526138E1
4.907042958E0,-9.035959625E0,-7.041806488E0,6.611152039E0,1.322659957E1
4.917121958E0,-8.535550232E0,-7.318730621E0,6.295159149E0,1.288597937E1
4.927200958E0,-8.025560760E0,-7.429051208E0,6.138734436E0,1.254131125E1
4.937279958E0,-7.735314331E0,-7.739355927E0,5.914351044E0,1.243833856E1
4.947358958E0,-7.220385132E0,-8.173752594E0,5.646557922E0,1.228119739E1
4.957437958E0,-6.827901306E0,-8.684191132E0,5.469027100E0,1.232662441E1
4.967515958E0,-6.660699005E0,-9.060957642E0,5.271288300E0,1.241983675E1
4.977594958E0,-6.459816742E0,-9.304351501E0,4.923561401E0,1.235077512E1
4.987673958E0,-5.971232758E0,-9.327702942E0,4.570745087E0,1.198137611E1
4.997752958E0,-5.413941650E0,-9.135802002E0,4.369713135E0,1.148338083E1
5.007831958E0,-5.034780121E0,-8.726852417E0,4.333338776E0,1.096744222E1
5.017909958E0,-4.959935760E0,-8.268655243E0,4.348008270E0,1.057718290E1
5.027988958E0,-4.998106384E0,-7.843988342E0,4.355193329E0,1.027019618E1
5.038067958E0,-4.855752411E0,-7.381450195E0,4.167932739E0,9.769124924E0
5.048146958E0,-4.635260925E0,-6.998396759E0,3.409759369E0,9.060334431E0
5.058225958E0,-4.591851196E0,-6.769373016E0,2.567760315E0,8.573383316E0
5.068303958E0,-4.596940613E0,-6.630761261E0,1.887425079E0,8.286207295E0
5.078382958E0,-4.781057739E0,-6.765630798E0,1.250948639E0,8.378373691E0
5.088461958E0,-4.890031128E0,-6.925049286E0,7.132667542E-1,8.507494432E0
5.098540958E0,-5.096900940E0,-7.224726105E0,2.242337036E-1,8.844509440E0
5.108619958E0,-5.511089630E0,-7.342381439E0,-2.529739380E-2,9.180594429E0
5.118697958E0,-6.066734161E0,-7.157066803E0,-1.664538574E-1,9.383846519E0
5.128776958E0,-6.762786713E0,-6.776109009E0,-3.263214111E-1,9.579009504E0
5.138855958E0,-7.306905212E0,-6.466403046E0,-6.010002136E-1,9.775808580E0
5.148934958E0,-7.814200287E0,-6.430777130E0,-9.958790588E-1,1.016899187E1
5.159013958E0,-8.287516022E0,-6.536607056E0,-1.260528717E0,1.063010283E1
5.169091958E0,-8.748407593E0,-6.806346130E0,-1.299747162E0,1.116021172E1
5.179170958E0,-9.138047333E0,-7.241491241E0,-1.268162842E0,1.172822840E1
5.189249958E0,-9.691596222E0,-7.723339233E0,-1.017434235E0,1.243431456E1
5.199328958E0,-1.063149170E1,-8.227640533E0,-4.682263184E-1,1.345146536E1
5.209407958E0,-1.134865036E1,-8.474776611E0,1.788780212E-1,1.416494620E1
5.219485958E0,-1.186133423E1,-8.541687469E0,7.303312683E-1,1.463506263E1
5.229564958E0,-1.242117004E1,-8.495433655E0,1.201551361E0,1.509640964E1
5.239643958E0,-1.287667282E1,-8.230634308E0,1.531165924E0,1.535892292E1
5.249722958E0,-1.319775513E1,-7.756570129E0,1.910776520E0,1.542712506E1
5.259801958E0,-1.318907318E1,-7.283703461E0,2.129471741E0,1.521639370E1
5.269880958E0,-1.284134628E1,-6.751260681E0,1.898352356E0,1.463159037E1
5.279958958E0,-1.224378891E1,-6.295907593E0,1.532363434E0,1.385268772E1
5.290037958E0,-1.175954590E1,-5.928571472E0,1.485959930E0,1.325303574E1
5.300116958E0,-1.137394775E1,-5.589376831E0,1.625918884E0,1.277698842E1
5.310195958E0,-1.109313171E1,-5.367987213E0,1.772763519E0,1.245052402E1
5.320274958E0,-1.084255280E1,-4.999752960E0,1.883982239E0,1.208750884E1
5.330352958E0,-1.085018692E1,-4.480482788E0,1.732347565E0,1.186601493E1
5.340431958E0,-1.110420868E1,-3.997736664E0,1.192869415E0,1.186205236E1
5.350510958E0,-1.120180573E1,-3.564537506E0,4.936734009E-1,1.176563184E1
5.360589958E0,-1.128907425E1,-2.955454102E0,-1.570234680E-1,1.167058536E1
5.370668958E0,-1.119462067E1,-2.066602478E0,-9.686357117E-1,1.142491281E1
5.380746958E0,-1.138412659E1,-1.481319580E0,-1.857637024E0,1.162942222E1
5.390825958E0,-1.156360336E1,-9.527687073E-1,-2.431693268E0,1.185486495E1
5.400904958E0,-1.172062683E1,-3.399430847E-1,-2.912942505E0,1.208196543E1
5.410983958E0,-1.201162170E1,6.571334839E-2,-3.414100342E0,1.248757204E1
5.421062958E0,-1.231040039E1,3.308120728E-1,-3.893253937E0,1.291560377E1
5.431140958E0,-1.247341141E1,4.707710266E-1,-4.209396515E0,1.317295094E1
5.441219958E0,-1.271201523E1,3.573069763E-1,-4.254901886E0,1.340996605E1
5.451298958E0,-1.293879364E1,2.261796570E-1,-3.991898804E0,1.354248109E1
5.461377958E0,-1.304222855E1,1.492396545E-1,-3.681893463E0,1.355279814E1
5.471456958E0,-1.332334396E1,-1.393601990E-1,-3.476969604E0,1.377026627E1
5.481535958E0,-1.365355728E1,-3.317102051E-1,-3.312611389E0,1.405357792E1
5.491613958E0,-1.399634445E1,-6.521937561E-1,-3.068319397E0,1.434355600E1
5.501692958E0,-1.416010391E1,-8.514294434E-1,-2.718347168E0,1.444378365E1
5.511771958E0,-1.439242081E1,-9.991722107E-1,-2.356399841E0,1.461823320E1
5.521850958E0,-1.477083389E1,-1.129251709E0,-1.796713715E0,1.492249723E1
5.531929958E0,-1.490420654E1,-1.231788483E0,-8.563691711E-1,1.497952081E1
5.542007958E0,-1.493683868E1,-1.383123779E0,5.020559692E-1,1.500913860E1
5.552086958E0,-1.528321838E1,-1.621428223E0,2.245181122E0,1.553211614E1
5.562165958E0,-1.581581085E1,-1.976340179E0,4.209546204E0,1.648532901E1
5.572244958E0,-1.616802841E1,-1.998643799E0,6.224955139E0,1.743989066E1
5.582323958E0,-1.623957962E1,-1.792223053E0,7.741002502E0,1.807924582E1
5.592401958E0,-1.594738724E1,-1.553619232E0,8.421637115E0,1.810129454E1
5.602480958E0,-1.569995178E1,-1.481918335E0,8.454119568E0,1.789292334E1
5.612559958E0,-1.561971863E1,-1.438807983E0,8.300838318E0,1.774682212E1
5.622638958E0,-1.568722824E1,-1.437760162E0,7.982600098E0,1.766007329E1
5.632717958E0,-1.579695007E1,-1.278790741E0,7.207661591E0,1.741060949E1
5.642796958E0,-1.577314957E1,-1.033151550E0,6.293213196E0,1.701364693E1
5.652874958E0,-1.574680435E1,-7.842192078E-1,5.685027924E0,1.675996389E1
5.662953958E0,-1.579410599E1,-6.521937561E-1,5.353168030E0,1.668938431E1
5.673032958E0,-1.597717529E1,-7.150630188E-1,5.410947876E0,1.688371412E1
5.683111958E0,-1.640079437E1,-1.016685791E0,5.906866608E0,1.746169462E1
5.693190958E0,-1.676513672E1,-1.520388336E0,6.321654053E0,1.798178800E1
5.703268958E0,-1.696197739E1,-2.198627930E0,6.621031494E0,1.834068428E1
5.713347958E0,-1.684222641E1,-3.131188660E0,6.870263214E0,1.845712463E1
5.723426958E0,-1.663326096E1,-4.174069977E0,7.347021790E0,1.865655272E1
5.733505958E0,-1.663101562E1,-5.220693512E0,7.914342041E0,1.914374915E1
5.743584958E0,-1.663760193E1,-6.362219696E0,8.424481201E0,1.970430209E1
5.753662958E0,-1.665002609E1,-7.423512726E0,9.057065735E0,2.035589226E1
5.763741958E0,-1.641306885E1,-8.195906525E0,9.858948212E0,2.082691942E1
5.773820958E0,-1.585113739E1,-8.875493317E0,1.045246399E1,2.095917321E1
5.783899958E0,-1.506422379E1,-9.469757538E0,1.060649368E1,2.071484623E1
5.793978958E0,-1.391506348E1,-9.820777588E0,1.078911392E1,2.016138991E1
5.804057958E0,-1.238449631E1,-9.883946228E0,1.118519028E1,1.939527322E1
5.814135958E0,-1.104717728E1,-9.654922485E0,1.146316223E1,1.861885448E1
5.824214958E0,-1.021056702E1,-9.414223022E0,1.118489090E1,1.783213555E1
5.834293958E0,-9.758806458E0,-9.075327759E0,1.052117111E1,1.697913187E1
5.844372958E0,-9.409283295E0,-8.699160004E0,9.553283844E0,1.598359250E1
5.854451958E0,-8.894653473E0,-8.255332947E0,8.601413269E0,1.487446445E1
5.864529958E0,-8.424331512E0,-7.980205078E0,7.825426941E0,1.399608307E1
5.874608958E0,-8.001610565E0,-7.834707642E0,7.256909180E0,1.334433012E1
5.884687958E0,-7.692054291E0,-7.726482697E0,6.756799164E0,1.282655718E1
5.894766958E0,-7.315138092E0,-7.630532227E0,6.220314789E0,1.226493308E1
5.904845958E0,-6.970404968E0,-7.558981018E0,5.847140808E0,1.182851618E1
5.914923958E0,-6.972799988E0,-7.513325958E0,5.539680176E0,1.165152621E1
5.925002958E0,-6.794221344E0,-7.501350861E0,5.060227203E0,1.131537042E1
5.935081958E0,-6.377338257E0,-7.410639496E0,4.677323456E0,1.083814448E1
5.945160958E0,-6.036497040E0,-7.332951050E0,4.227508850E0,1.039631178E1
5.955239958E0,-5.628744965E0,-7.507637787E0,3.871100006E0,1.015050788E1
5.965318958E0,-5.089416504E0,-7.731572113E0,4.080664215E0,1.011588791E1
5.975396958E0,-4.552932129E0,-8.002359009E0,4.615052948E0,1.029881811E1
5.985475958E0,-4.259242859E0,-8.269403687E0,4.977000275E0,1.054963122E1
5.995554958E0,-4.184099121E0,-8.496780853E0,4.948260040E0,1.068584333E1
6.005633958E0,-4.511618042E0,-8.627758484E0,4.265230408E0,1.062944515E1
6.015712958E0,-4.915927277E0,-8.599766693E0,3.104693756E0,1.038082133E1
6.025790958E0,-5.090464325E0,-8.450826416E0,1.933529205E0,1.005324969E1
6.035869958E0,-5.170697479E0,-8.404572601E0,9.270222473E-1,9.911222088E0
6.045948958E0,-5.422024841E0,-8.315507812E0,3.134481812E-1,9.931982346E0
6.056027958E0,-5.640420685E0,-8.274343414E0,-4.156855774E-1,1.002256948E1
6.066106958E0,-5.618566132E0,-8.283923492E0,-1.011746063E0,1.006058169E1
6.076184958E0,-5.359155579E0,-8.205187225E0,-1.166673889E0,9.869487012E0
6.086263958E0,-5.269641724E0,-8.081244965E0,-1.003513184E0,9.699622817E0
6.096342750E0,-5.522615662E0,-7.963589630E0,-7.176077271E-1,9.717664554E0
6.106421750E0,-5.917344818E0,-7.742798767E0,-1.532812500E-1,9.746250437E0
6.116500750E0,-6.550977173E0,-7.657476196E0,3.806584167E-1,1.008450021E1
6.126578750E0,-7.282655640E0,-7.606731720E0,7.861651611E-1,1.056018448E1
6.136657750E0,-7.817194061E0,-7.522606659E0,7.884104919E-1,1.087748707E1
6.146736750E0,-8.226143646E0,-7.511080627E0,3.903881836E-1,1.114621794E1
6.156815750E0,-8.778495026E0,-7.434290314E0,1.766326904E-2,1.150351943E1
6.166894750E0,-9.576784973E0,-7.314689026E0,-2.412982178E-1,1.205312038E1
6.176972750E0,-1.025487488E1,-7.074288940E0,-2.817141724E-1,1.246143594E1
6.187051750E0,-1.091021210E1,-6.858587494E0,-2.995271301E-1,1.289040988E1
6.197130750E0,-1.164847687E1,-6.836134186E0,-2.969824219E-1,1.350955005E1
6.207209750E0,-1.214484467E1,-6.727909241E0,-1.419049072E-1,1.388460124E1
6.217288750E0,-1.248838028E1,-6.869215393E0,-1.059796143E-1,1.425331519E1
6.227366750E0,-1.284164566E1,-7.184459839E0,1.517843628E-1,1.471554841E1
6.237445750E0,-1.320179672E1,-7.348219299E0,6.635700989E-1,1.512362684E1
6.247524750E0,-1.352272934E1,-7.371271362E0,1.019829254E0,1.543502193E1
6.257603750E0,-1.382929184E1,-7.343129883E0,1.242865448E0,1.570718255E1
6.267682750E0,-1.395173721E1,-7.326215057E0,1.297501831E0,1.581163841E1
6.277760750E0,-1.394545029E1,-7.349267120E0,1.183738403E0,1.580786347E1
6.287839750E0,-1.365969452E1,-7.303312683E0,1.095272369E0,1.552820827E1
6.297918750E0,-1.305869431E1,-7.150480499E0,9.108558655E-1,1.491604930E1
6.307997750E0,-1.258657608E1,-6.972650299E0,8.553213501E-1,1.441427502E1
6.318076750E0,-1.241099121E1,-6.734345856E0,1.071920929E0,1.416097212E1
6.328154750E0,-1.231219666E1,-6.217321014E0,1.442101135E0,1.386812614E1
6.338233750E0,-1.229827560E1,-5.622907104E0,1.661544800E0,1.362444121E1
6.348312750E0,-1.211700256E1,-5.011578369E0,1.655706940E0,1.321661963E1
6.358391750E0,-1.190923462E1,-4.481829987E0,1.326541443E0,1.279360705E1
6.368470750E0,-1.190504333E1,-3.970493317E0,9.172924805E-1,1.258317525E1
6.378548750E0,-1.171044800E1,-3.359164581E0,2.547702026E-1,1.218538005E1
6.388627750E0,-1.143846359E1,-2.821931763E0,-7.526348877E-1,1.180543127E1
6.398706750E0,-1.125614273E1,-2.224673767E0,-1.710193634E0,1.160063295E1
6.408785750E0,-1.107187592E1,-1.572779388E0,-2.463127899E0,1.145107289E1
6.418864750E0,-1.088416626E1,-1.069226532E0,-2.864742737E0,1.130553278E1
6.428942750E0,-1.089688980E1,-4.837939453E-1,-3.067570953E0,1.133076588E1
6.439021750E0,-1.107142685E1,-3.323089600E-2,-3.254532166E0,1.153991232E1
6.449100750E0,-1.113848740E1,2.375559998E-1,-2.975362701E0,1.153148375E1
6.459179750E0,-1.119237534E1,3.896397400E-1,-2.529889069E0,1.148135112E1
6.469258750E0,-1.131571884E1,3.953279114E-1,-2.054926758E0,1.150758450E1
6.479336750E0,-1.145178589E1,2.721340942E-1,-1.588197327E0,1.156459371E1
6.489415750E0,-1.165386566E1,7.035369873E-3,-1.076710968E0,1.170350122E1
6.499494750E0,-1.195159653E1,-2.962339783E-1,-6.683601379E-1,1.197393500E1
6.509573750E0,-1.214679062E1,-6.364764404E-1,-3.164419556E-1,1.216757002E1
6.519652750E0,-1.239617203E1,-9.470805359E-1,2.618055725E-1,1.243505467E1
6.529730750E0,-1.284823196E1,-1.211430817E0,8.108638000E-1,1.293066624E1
6.539809750E0,-1.320209610E1,-1.561702423E0,1.165775757E0,1.334515976E1
6.549888750E0,-1.324161392E1,-1.819316711E0,1.664837952E0,1.346929612E1
6.559967750E0,-1.339459579E1,-2.057172089E0,2.361040192E0,1.375578657E1
6.570046750E0,-1.373184448E1,-2.214345245E0,3.136876831E0,1.425857195E1
6.580124750E0,-1.406939255E1,-2.369572449E0,3.840563507E0,1.477540552E1
6.590203750E0,-1.450693268E1,-2.617756348E0,4.433779907E0,1.539357490E1
6.600282750E0,-1.492201950E1,-2.888992310E0,4.908143463E0,1.597193835E1
6.610361750E0,-1.467772751E1,-3.051554260E0,5.053491211E0,1.582041218E1
6.620439750E0,-1.432176773E1,-3.259621582E0,4.971611481E0,1.550661422E1
6.630518750E0,-1.416040329E1,-3.562441864E0,4.882696381E0,1.539638715E1
6.640597750E0,-1.398481842E1,-3.779041443E0,4.951553192E0,1.530928409E1
6.650676750E0,-1.386716309E1,-3.911515961E0,5.149890747E0,1.530096546E1
6.660755750E0,-1.374142456E1,-3.918551331E0,5.468877411E0,1.530001352E1
6.670833750E0,-1.381896332E1,-3.938609619E0,5.632487183E0,1.543377157E1
6.680912750E0,-1.389216110E1,-4.016747131E0,5.799240417E0,1.558067993E1
6.690991750E0,-1.378782806E1,-3.893253937E0,5.766009521E0,1.544372024E1
6.701070750E0,-1.372076752E1,-3.902834015E0,5.381159821E0,1.524626038E1
6.711149750E0,-1.368918320E1,-3.827540588E0,4.721631317E0,1.497790392E1
6.721227750E0,-1.399140472E1,-3.881578217E0,4.160747681E0,1.510423374E1
6.731306750E0,-1.438703201E1,-4.223467255E0,3.840114441E0,1.547807626E1
6.741385750E0,-1.464314941E1,-4.466262360E0,4.083508301E0,1.584437958E1
6.751464750E0,-1.482472183E1,-4.657863922E0,4.684209137E0,1.622990724E1
6.761543750E0,-1.492725861E1,-4.906796265E0,5.024152222E0,1.649672103E1
6.771621750E0,-1.503727982E1,-5.219496002E0,5.337151337E0,1.678833247E1
6.781700750E0,-1.508053986E1,-5.633535004E0,5.404960327E0,1.698154867E1
6.791779750E0,-1.487037689E1,-6.172863464E0,5.058580627E0,1.687665815E1
6.801858750E0,-1.439526489E1,-6.757996674E0,4.690945129E0,1.658008253E1
6.811937750E0,-1.388467667E1,-7.272776184E0,4.408781891E0,1.628234864E1
6.822015750E0,-1.307156754E1,-7.460036774E0,4.141886902E0,1.561003695E1
6.832094750E0,-1.214454529E1,-7.522756348E0,3.941902771E0,1.481959651E1
6.842173750E0,-1.123024658E1,-7.487130432E0,3.834126892E0,1.403125402E1
6.852252750E0,-1.047895889E1,-7.295229492E0,4.038901062E0,1.339185105E1
6.862331750E0,-9.748627625E0,-7.043153687E0,4.357438660E0,1.279175618E1
6.872409750E0,-9.230405273E0,-6.912176056E0,4.479584656E0,1.237114538E1
6.882488750E0,-8.654852142E0,-6.976841583E0,4.531975708E0,1.200506509E1
6.892567750E0,-7.845784607E0,-6.716383209E0,4.921016693E0,1.144039094E1
6.902646750E0,-7.251071320E0,-6.712940369E0,4.912634125E0,1.103519722E1
6.912724750E0,-6.716682587E0,-6.995402985E0,5.302872620E0,1.105305143E1
6.922803750E0,-6.212381287E0,-7.189100189E0,5.642815704E0,1.105071092E1
6.932882750E0,-5.621559906E0,-7.411387939E0,5.731132050E0,1.092595449E1
6.942961750E0,-5.215604095E0,-7.484735413E0,5.241649933E0,1.052134422E1
6.953040750E0,-4.845723267E0,-7.708819427E0,4.581073608E0,1.019279973E1
6.963118750E0,-4.548142090E0,-7.643555145E0,4.166735229E0,9.821976084E0
6.973197750E0,-4.432582397E0,-7.424859924E0,3.574267273E0,9.356907510E0
6.983276750E0,-4.430337067E0,-7.172484741E0,3.156186676E0,9.001885259E0
6.993355750E0,-4.386029205E0,-6.981781311E0,2.927462311E0,8.749431870E0
7.003434750E0,-4.511019287E0,-6.759194183E0,2.873574371E0,8.619363705E0
7.013512750E0,-5.001549225E0,-6.762337646E0,2.583477631E0,8.798810247E0
7.023591750E0,-5.295986938E0,-6.979685669E0,1.887425079E0,8.962469700E0
7.033670750E0,-5.308111725E0,-7.129823456E0,8.592132568E-1,8.930211644E0
7.043749750E0,-5.027295685E0,-7.420968018E0,-3.188369751E-2,8.963564291E0
7.053828750E0,-4.621339874E0,-7.752079468E0,-5.303471375E-1,9.040618695E0
7.063906750E0,-4.181554413E0,-7.969876556E0,-5.984555054E-1,9.020115222E0
7.073985750E0,-4.086352386E0,-7.884404297E0,-3.896397400E-1,8.888977785E0
7.084064750E0,-4.388573914E0,-7.713609467E0,-6.137237549E-3,8.874648706E0
7.094143500E0,-5.242997131E0,-7.328161011E0,7.334747314E-1,9.040406401E0
7.104221500E0,-6.215225372E0,-6.781946869E0,1.552272034E0,9.329168142E0
7.114300500E0,-7.557334442E0,-5.998775482E0,1.733395386E0,9.803227566E0
7.124379500E0,-8.520581360E0,-5.538931732E0,1.213376770E0,1.023485978E1
7.134458500E0,-9.238039398E0,-5.530249786E0,8.596623230E-1,1.080111355E1
7.144537500E0,-9.248816986E0,-5.764812012E0,1.079704742E0,1.095168642E1
7.154615500E0,-8.958869934E0,-5.991440735E0,1.839824066E0,1.093360257E1
7.164694500E0,-8.722212067E0,-6.092480621E0,2.865491180E0,1.101845466E1
7.174773500E0,-8.916657715E0,-5.918242950E0,3.998036041E0,1.142438955E1
7.184852500E0,-9.469607849E0,-5.369933167E0,4.885540466E0,1.193223201E1
7.194931500E0,-9.850565643E0,-4.502936096E0,5.385949860E0,1.209621978E1
7.205009500E0,-1.044063858E1,-3.918551331E0,5.431455231E0,1.240413981E1
7.215088500E0,-1.092607910E1,-3.425177307E0,4.965174866E0,1.248054508E1
7.225167500E0,-1.140134079E1,-3.329376526E0,3.827690277E0,1.247904374E1
7.235246500E0,-1.147977768E1,-3.577710114E0,2.940185852E0,1.237861051E1
7.245324500E0,-1.152947433E1,-3.856430511E0,2.507435760E0,1.241322153E1
7.255403500E0,-1.162856827E1,-4.291575623E0,2.397564240E0,1.262495685E1
7.265482500E0,-1.164488434E1,-4.662354584E0,2.711461487E0,1.283327335E1
7.275561500E0,-1.128158981E1,-5.036726074E0,3.026855621E0,1.272024894E1
7.285640500E0,-1.089599167E1,-5.199138336E0,3.215164032E0,1.249363653E1
7.295718500E0,-1.072654404E1,-5.150489502E0,3.405568085E0,1.237675980E1
7.305797500E0,-1.076920532E1,-4.918322296E0,3.353925476E0,1.230505967E1
7.315876500E0,-1.055155792E1,-4.614005127E0,3.077749786E0,1.192044301E1
7.325955500E0,-1.023706192E1,-4.228856049E0,3.017125854E0,1.147970856E1
7.336034500E0,-1.007105713E1,-3.888014832E0,3.346141663E0,1.130219072E1
7.346112500E0,-1.011461655E1,-3.511547699E0,3.863316193E0,1.138251497E1
7.356191500E0,-9.829309845E0,-3.112178192E0,3.842509460E0,1.100299341E1
7.366270500E0,-9.524244232E0,-2.761158142E0,3.351530457E0,1.046747242E1
7.376349500E0,-9.275012512E0,-2.411036224E0,2.847678223E0,9.997410867E0
7.386428500E0,-8.973988495E0,-2.035167847E0,2.342927856E0,9.495456209E0
7.396506500E0,-9.108708344E0,-1.885329437E0,2.243684235E0,9.568550241E0
7.406585500E0,-9.237440643E0,-1.606459351E0,2.611469421E0,9.732974562E0
7.416664500E0,-9.331445160E0,-1.397942963E0,2.983894958E0,9.896147858E0
7.426743500E0,-9.193581848E0,-1.276545410E0,3.416794739E0,9.890702789E0
7.436822500E0,-9.157057800E0,-1.171613617E0,3.941603394E0,1.003795912E1
7.446900500E0,-9.235195312E0,-1.015039215E0,4.221970367E0,1.020510514E1
7.456979500E0,-9.311386871E0,-8.957373047E-1,4.341871033E0,1.031291011E1
7.467058500E0,-9.308991852E0,-6.728507996E-1,4.436923370E0,1.033423178E1
7.477137500E0,-9.735305328E0,-4.354444885E-1,4.584366760E0,1.076950325E1
7.487215500E0,-1.017269577E1,-2.037263489E-1,4.382885742E0,1.107857983E1
7.497294500E0,-1.042522064E1,-2.505789185E-1,4.195026398E0,1.124038530E1
7.507373500E0,-1.053434372E1,-3.448828125E-1,4.246519318E0,1.136328597E1
7.517452500E0,-1.044587769E1,-5.954617310E-1,4.209396515E0,1.127785238E1
7.527531500E0,-1.031759445E1,-9.464817810E-1,4.229604492E0,1.119098464E1
7.537609500E0,-9.936337280E0,-1.044827271E0,4.522395630E0,1.096697428E1
7.547688500E0,-9.849966888E0,-1.453178101E0,5.188809814E0,1.122752518E1
7.557767500E0,-9.528136139E0,-1.517095184E0,5.867199097E0,1.129207604E1
7.567846500E0,-9.532327423E0,-1.758393402E0,6.179150391E0,1.149517782E1
7.577925500E0,-9.762548676E0,-1.948498077E0,6.464157715E0,1.186968139E1
7.588003500E0,-1.030651749E1,-2.039658508E0,6.696025543E0,1.245878275E1
7.598082500E0,-1.057311310E1,-2.041903839E0,6.540498962E0,1.259913563E1
7.608161500E0,-1.078537170E1,-2.157912598E0,6.231391754E0,1.264164043E1
7.618240500E0,-1.130913254E1,-2.388133850E0,6.335575104E0,1.318101566E1
7.628318500E0,-1.178140045E1,-2.589016113E0,6.913822632E0,1.390342923E1
7.638397500E0,-1.190414520E1,-2.648891602E0,7.639363861E0,1.439045447E1
7.648476500E0,-1.190115143E1,-2.680625610E0,8.263266449E0,1.473447425E1
7.658555500E0,-1.187720123E1,-2.667153625E0,8.650211792E0,1.493344507E1
7.668634500E0,-1.210502747E1,-2.788700867E0,8.895850983E0,1.527889745E1
7.678712500E0,-1.225291992E1,-2.874771881E0,9.143436127E0,1.555637439E1
7.688791500E0,-1.211834976E1,-2.714455261E0,9.155560913E0,1.542877066E1
7.698870500E0,-1.213795898E1,-2.523452454E0,8.879684601E0,1.524948062E1
7.708949500E0,-1.227612167E1,-2.287992096E0,8.538544006E0,1.512761729E1
7.719028500E0,-1.263687149E1,-1.977837067E0,8.187374268E0,1.518668686E1
7.729106500E0,-1.319655762E1,-1.800156555E0,7.785609741E0,1.542742414E1
7.739185500E0,-1.368918320E1,-1.678459625E0,7.257208557E0,1.558454489E1
7.749264500E0,-1.399080597E1,-1.710792389E0,6.686295776E0,1.560051324E1
7.759343500E0,-1.420650742E1,-2.023192749E0,6.385571136E0,1.570648530E1
7.769422500E0,-1.430380508E1,-2.605032806E0,6.361920319E0,1.587006824E1
7.779500500E0,-1.430425415E1,-3.370989990E0,6.501430206E0,1.606996749E1
7.789579500E0,-1.418674850E1,-4.164190521E0,6.568191376E0,1.617854919E1
7.799658500E0,-1.393167892E1,-4.884941711E0,6.489455109E0,1.612660413E1
7.809737500E0,-1.375130402E1,-5.668711853E0,6.407874756E0,1.619547823E1
7.819815500E0,-1.361568604E1,-6.547234955E0,6.370302887E0,1.639615658E1
7.829894500E0,-1.343590988E1,-7.220235443E0,6.151757355E0,1.644687182E1
7.839973500E0,-1.314760941E1,-7.801476746E0,5.804928589E0,1.635297736E1
7.850052500E0,-1.271875122E1,-8.241411896E0,5.456004181E0,1.610762193E1
7.860131500E0,-1.212254105E1,-8.511150970E0,5.186414795E0,1.569377554E1
7.870209500E0,-1.133921997E1,-8.533155212E0,5.073549500E0,1.507095060E1
7.880288500E0,-1.048838928E1,-8.438402252E0,5.014272766E0,1.436509219E1
7.890367500E0,-9.588161316E0,-8.270900574E0,4.855153656E0,1.356145828E1
7.900446500E0,-8.573571167E0,-8.064928894E0,4.656217346E0,1.265818157E1
7.910525500E0,-7.516918488E0,-7.725734253E0,4.432133331E0,1.165482043E1
7.920603500E0,-6.733298035E0,-7.327562256E0,4.170627136E0,1.079002325E1
7.930682500E0,-6.126609650E0,-6.940467224E0,3.969744873E0,1.007294919E1
7.940761500E0,-5.519472198E0,-6.531817017E0,3.852239227E0,9.379176614E0
7.950840500E0,-4.776716766E0,-6.214327240E0,3.573219452E0,8.614103747E0
7.960919500E0,-4.076173553E0,-6.038892059E0,3.280278625E0,7.990221274E0
7.970997500E0,-3.538042603E0,-5.763464813E0,2.908152466E0,7.361563888E0
7.981076500E0,-3.097359009E0,-5.594915314E0,2.178569641E0,6.755951145E0
7.991155500E0,-2.818488922E0,-5.360053711E0,1.545386353E0,6.249981965E0
8.001234500E0,-2.866838379E0,-5.110372925E0,8.752299500E-1,5.924584474E0
8.011313500E0,-2.740201721E0,-4.988226929E0,4.287084961E-1,5.707442890E0
8.021391500E0,-2.530188446E0,-4.837191010E0,5.239105225E-2,5.459213795E0
8.031470500E0,-2.380350037E0,-4.890180817E0,-1.865121460E-1,5.441940968E0
8.041549500E0,-2.327360229E0,-4.860991516E0,-2.068698120E-1,5.393388478E0
8.051628500E0,-2.216590576E0,-4.772824860E0,-3.218307495E-1,5.272258146E0
8.061706500E0,-2.189197540E0,-4.625980225E0,-4.137396240E-1,5.134535946E0
8.071785500E0,-2.445314941E0,-4.412973175E0,-3.695814514E-1,5.058704168E0
8.081864500E0,-2.971470795E0,-3.987707520E0,-3.938310242E-1,4.988642383E0
8.091943500E0,-3.841761017E0,-3.536396027E0,1.007405090E-1,5.222583002E0
8.102022875E0,-5.081782379E0,-3.058589630E0,1.376088409E0,6.088768511E0
8.112100875E0,-5.964047699E0,-2.211052094E0,2.668201447E0,6.897674628E0
8.122179875E0,-6.992259521E0,-1.439406738E0,3.825444946E0,8.099235397E0
8.132258875E0,-8.101602631E0,-8.271798706E-1,5.125790863E0,9.622573652E0
8.142337875E0,-8.939111023E0,-1.595681763E-1,5.990692291E0,1.076204265E1
8.152416875E0,-9.663903809E0,2.688409424E-1,6.155649261E0,1.146103530E1
8.162494875E0,-1.012135254E1,6.875202942E-1,6.202950897E0,1.189079733E1
8.172573875E0,-1.002121078E1,1.126557312E0,6.046376495E0,1.175808087E1
8.182652875E0,-9.979148254E0,1.417402496E0,6.042634277E0,1.175184491E1
8.192731875E0,-9.922266541E0,1.716181183E0,6.460864563E0,1.196408885E1
8.202810875E0,-9.740095367E0,1.870659943E0,7.096293182E0,1.219533531E1
8.212888875E0,-9.813742218E0,1.987566833E0,7.942483521E0,1.278057130E1
8.222967875E0,-9.884994049E0,2.202370148E0,8.319399719E0,1.310633257E1
8.233046875E0,-9.858349457E0,2.222877502E0,8.002059631E0,1.289035286E1
8.243125875E0,-9.629475403E0,2.200723572E0,7.453001404E0,1.237405393E1
8.253204875E0,-9.107061768E0,2.111509094E0,6.885232086E0,1.161048946E1
8.263282875E0,-8.462352448E0,2.009271698E0,6.666686554E0,1.095870847E1
8.273361875E0,-7.906408539E0,2.002386017E0,7.097939758E0,1.081210408E1
8.283440875E0,-7.491471405E0,2.125729523E0,7.748037872E0,1.098512452E1
8.293519875E0,-7.212002563E0,2.294279022E0,8.229287109E0,1.118024434E1
8.303598875E0,-7.275769958E0,2.523003387E0,8.379873962E0,1.138089022E1
8.313676875E0,-7.188052368E0,2.775378571E0,8.023016052E0,1.112383071E1
8.323755875E0,-6.913523254E0,2.787952423E0,7.233857117E0,1.038740445E1
8.333834875E0,-6.641987915E0,2.625839539E0,6.562503204E0,9.699354878E0
8.343913875E0,-6.314768372E0,2.496807861E0,6.117328949E0,9.139587658E0
8.353991875E0,-6.089636536E0,2.366279297E0,5.901028748E0,8.803697583E0
8.364070875E0,-5.850134583E0,2.268233185E0,5.982908478E0,8.669726078E0
8.374149875E0,-5.653892670E0,2.154170380E0,6.272256775E0,8.714824003E0
8.384228875E0,-5.582042084E0,2.130070496E0,6.436315613E0,8.781944705E0
8.394307875E0,-5.697302399E0,2.149829407E0,6.420747986E0,8.849125708E0
8.404385875E0,-5.917045441E0,2.269730072E0,6.264772339E0,8.911255456E0
8.414464875E0,-6.151607666E0,2.405797119E0,6.078110504E0,8.976277845E0
8.424543875E0,-6.398893433E0,2.417023773E0,5.906716919E0,9.037540918E0
8.434622875E0,-6.730903015E0,2.330204315E0,5.914051666E0,9.258018938E0
8.444701875E0,-7.017556915E0,2.343376923E0,6.156397705E0,9.624902761E0
8.454779875E0,-7.076983337E0,2.320175171E0,6.403234406E0,9.821828589E0
8.464858875E0,-7.011419678E0,2.271975403E0,6.443500671E0,9.789820174E0
8.474937875E0,-6.869065704E0,2.222877502E0,6.489455109E0,9.707640066E0
8.485016875E0,-6.647376709E0,2.192341003E0,6.537804565E0,9.577936350E0
8.495095875E0,-6.528374176E0,2.202370148E0,6.549480286E0,9.506092555E0
8.505173875E0,-6.526428223E0,2.315534821E0,6.673272858E0,9.617096105E0
8.515252875E0,-6.531817017E0,2.364033966E0,6.898704071E0,9.790066802E0
8.525331875E0,-6.528074799E0,2.394570465E0,7.117848358E0,9.950552424E0
8.535410875E0,-6.480174408E0,2.357447662E0,7.211703186E0,9.977919757E0
8.545489875E0,-6.532415771E0,2.326911163E0,7.002138977E0,9.854791810E0
8.555567875E0,-6.655908966E0,2.423909454E0,6.848708038E0,9.852982442E0
8.565646875E0,-6.813082123E0,2.604434052E0,6.917564850E0,1.005255531E1
8.575725875E0,-7.005432129E0,2.686613159E0,7.179969177E0,1.038488936E1
8.585804875E0,-6.930887146E0,2.776127014E0,7.218139801E0,1.038487458E1
8.595883875E0,-6.803202667E0,2.797233124E0,7.075785828E0,1.020660692E1
8.605961875E0,-6.663992157E0,2.831811218E0,6.960226135E0,1.004353992E1
8.616040875E0,-6.451134796E0,2.882256317E0,6.807693329E0,9.811688443E0
8.626119875E0,-6.320306854E0,2.792592773E0,6.739135895E0,9.651984549E0
8.636198875E0,-6.082601166E0,2.712808685E0,6.877897339E0,9.574071219E0
8.646277875E0,-5.851781158E0,2.627037048E0,6.958429871E0,9.463847666E0
8.656355875E0,-5.710175629E0,2.505489807E0,7.040010223E0,9.404537672E0
8.666434875E0,-5.514083405E0,2.460882568E0,7.129673767E0,9.343088720E0
8.676513875E0,-5.529950409E0,2.554138641E0,7.075187073E0,9.336072399E0
8.686592875E0,-5.522465973E0,2.660267944E0,6.975344696E0,9.286015808E0
8.696671875E0,-5.435347137E0,2.714904327E0,6.845564575E0,9.152893442E0
8.706749875E0,-5.416785736E0,2.747087402E0,6.685247955E0,9.032197802E0
8.716828875E0,-5.393284607E0,2.792293396E0,6.468049622E0,8.872434117E0
8.726907875E0,-5.373376007E0,2.838247833E0,6.320905609E0,8.768276239E0
8.736986875E0,-5.470224609E0,2.847678223E0,6.306984558E0,8.821036376E0
8.747065875E0,-5.576054535E0,2.885998535E0,6.342760162E0,8.924795695E0
8.757143875E0,-5.696703644E0,2.901117096E0,6.447093201E0,9.079312945E0
8.767222875E0,-5.785469055E0,2.884052582E0,6.596332855E0,9.235855056E0
8.777301875E0,-5.775290222E0,2.838247833E0,6.803352356E0,9.364573199E0
8.787380875E0,-5.690566406E0,2.902464294E0,6.874454498E0,9.384293775E0
8.797458875E0,-5.617667999E0,2.964884491E0,6.776558075E0,9.288189982E0
8.807537875E0,-5.590724030E0,3.004402313E0,6.738088074E0,9.256590048E0
8.817616875E0,-5.713019714E0,3.055446167E0,6.756200409E0,9.360587028E0
8.827695875E0,-5.842201080E0,3.199746094E0,6.784042511E0,9.507519199E0
8.837774875E0,-5.943839722E0,3.259920959E0,6.739435272E0,9.559095307E0
8.847853875E0,-6.050118713E0,3.298690338E0,6.746171265E0,9.643449649E0
8.857931875E0,-6.091881866E0,3.320395203E0,6.898404694E0,9.783866122E0
8.868010875E0,-6.088888092E0,3.204087067E0,7.204667816E0,9.962327563E0
8.878089875E0,-6.006708984E0,3.057092743E0,7.640561371E0,1.018845165E1
8.888168875E0,-5.901178436E0,2.954555969E0,7.905360718E0,1.029796271E1
8.898246875E0,-5.822891235E0,2.954705658E0,7.922574921E0,1.026662268E1
8.908325875E0,-5.712121582E0,3.034938812E0,7.820187836E0,1.014862180E1
8.918404875E0,-5.674250336E0,3.139870605E0,7.541317749E0,9.946224293E0
8.928483875E0,-5.713019714E0,3.216960297E0,7.247179413E0,9.772872518E0
8.938562875E0,-5.836213531E0,3.261717224E0,7.139253845E0,9.781059917E0
8.948641875E0,-6.056854706E0,3.358266449E0,7.252867584E0,1.002833639E1
8.958719875E0,-6.329288177E0,3.444786530E0,7.667056274E0,1.052189123E1
8.968798875E0,-6.400989075E0,3.559747467E0,8.139174500E0,1.094945774E1
8.978877875E0,-6.162385254E0,3.469335480E0,8.231831818E0,1.085238848E1
8.988956875E0,-5.977819061E0,3.319347382E0,8.132588196E0,1.062503546E1
8.999035875E0,-5.815706177E0,3.284020844E0,8.134833527E0,1.052533837E1
9.009113875E0,-5.824388123E0,3.364104309E0,8.119565277E0,1.054362533E1
9.019192875E0,-5.854475555E0,3.464096375E0,7.908354492E0,1.043153481E1
9.029271875E0,-5.889353027E0,3.596121826E0,7.569459229E0,1.024271860E1
9.039350875E0,-5.986950073E0,3.772904205E0,7.356601868E0,1.020774061E1
9.049429875E0,-6.000721436E0,3.886667633E0,7.210655365E0,1.015423034E1
9.059507875E0,-5.885760498E0,3.890110474E0,7.170987854E0,1.005973175E1
9.069586875E0,-5.826184387E0,3.760330353E0,7.228468323E0,1.001674913E1
9.079665875E0,-5.743256836E0,3.677702179E0,7.553592224E0,1.017679949E1
9.089744875E0,-5.616919556E0,3.607498169E0,7.905959473E0,1.034736795E1
9.099824250E0,-5.712121582E0,3.668271790E0,8.090375977E0,1.056119001E1
9.109902250E0,-5.789360962E0,3.852089539E0,8.162525940E0,1.072297178E1
9.119981250E0,-5.830076294E0,4.127217407E0,8.027955780E0,1.074577997E1
9.130060250E0,-5.781128082E0,4.277055817E0,7.699538727E0,1.053553724E1
9.140139250E0,-5.636379089E0,4.340074768E0,7.269782410E0,1.017127104E1
9.150218250E0,-5.778134308E0,4.426894226E0,7.233557739E0,1.026199718E1
9.160296250E0,-6.229445801E0,4.446503448E0,7.595505066E0,1.078281434E1
9.170375250E0,-6.498286743E0,4.721930695E0,8.188721466E0,1.147081162E1
9.180454250E0,-6.359674988E0,5.127736816E0,8.766669617E0,1.198305666E1
9.190533250E0,-6.392905884E0,5.059029694E0,9.264683990E0,1.234088313E1
9.200612250E0,-6.548731842E0,5.138514404E0,9.747879181E0,1.281839957E1
9.210690250E0,-6.450536041E0,5.425916748E0,1.010803024E1,1.316139290E1
9.220769250E0,-6.038592682E0,5.741161194E0,9.920619965E0,1.295547120E1
9.230848250E0,-5.873036957E0,6.131699066E0,9.447453918E0,1.270215266E1
9.240927250E0,-5.830375671E0,6.251150665E0,8.870104523E0,1.231864113E1
9.251006250E0,-5.582042084E0,6.359525299E0,8.633895721E0,1.208912367E1
9.261085250E0,-5.174589386E0,6.600075073E0,8.634344788E0,1.203699615E1
9.271163250E0,-4.758005676E0,6.676266632E0,8.781339111E0,1.201345374E1
9.281242250E0,-4.305346985E0,6.619235229E0,8.902886353E0,1.190007030E1
9.291321250E0,-4.205803986E0,6.445895691E0,8.804690552E0,1.169448306E1
9.301400250E0,-4.172423401E0,6.367758179E0,8.751700745E0,1.159955720E1
9.311479250E0,-3.789669342E0,6.676266632E0,8.672964478E0,1.158250589E1
9.321557250E0,-3.332819366E0,6.818321228E0,8.439300385E0,1.134984495E1
9.331636250E0,-3.164569244E0,6.743027802E0,8.655151520E0,1.141904419E1
9.341715250E0,-3.169508972E0,6.309678955E0,8.323740692E0,1.091524140E1
9.351794250E0,-2.667153625E0,6.362219696E0,8.311765594E0,1.080171261E1
9.361873250E0,-3.062780914E0,5.857469330E0,8.292455750E0,1.060449887E1
9.371951250E0,-2.577639771E0,6.294710083E0,7.914042664E0,1.043550062E1
9.382030250E0,-2.278711395E0,6.507118378E0,7.018155670E0,9.838171792E0
9.392109250E0,-1.842967529E0,6.563850403E0,6.416407013E0,9.362208093E0
9.402188250E0,-1.872306519E0,6.174360352E0,6.603068848E0,9.231943222E0
9.412267250E0,-1.848356323E0,6.032305756E0,7.207811279E0,9.579022772E0
9.422345250E0,-1.698218536E0,5.841003571E0,7.328011322E0,9.523708251E0
9.432424250E0,-1.220561829E0,5.790708160E0,6.791676636E0,9.008270850E0
9.442503250E0,-4.939727783E-1,5.688770142E0,6.295159149E0,8.499126046E0
9.452582250E0,-8.482859802E-1,5.382956085E0,6.098019104E0,8.178119730E0
9.462661250E0,-9.198371887E-1,5.256918182E0,5.889203339E0,7.947578574E0
9.472739250E0,-9.592053223E-1,5.511987762E0,5.931714935E0,8.153976086E0
9.482818250E0,-1.156345367E0,5.486540680E0,5.546865234E0,7.887139987E0
9.492897250E0,-1.064885559E0,5.584886169E0,5.127437439E0,7.656079249E0
9.502976250E0,-1.082548828E0,5.644911346E0,4.816084900E0,7.498773889E0
9.513055250E0,-1.172511749E0,5.767207031E0,4.754712524E0,7.565893994E0
9.523133250E0,-1.026714935E0,5.781577148E0,4.874164124E0,7.631399202E0
9.533212250E0,-8.198451233E-1,5.688620453E0,4.898713074E0,7.551816898E0
9.543291250E0,-8.640032959E-1,5.690716095E0,5.080734558E0,7.677539646E0
9.553370250E0,-9.780661011E-1,5.672005005E0,5.095104675E0,7.686894414E0
9.563449250E0,-1.035845947E0,5.676345978E0,5.043013000E0,7.663280016E0
9.573528250E0,-1.028211823E0,5.808521118E0,4.794230347E0,7.601367097E0
9.583606250E0,-1.205143890E0,5.917344818E0,4.478237457E0,7.518108287E0
9.593685250E0,-1.491348724E0,6.117927704E0,4.458777924E0,7.715818879E0
9.603764250E0,-1.850002899E0,6.371051331E0,4.492457886E0,8.012177210E0
9.613843250E0,-1.938618622E0,6.529571686E0,4.532724152E0,8.181634115E0
9.623922250E0,-1.975891113E0,6.718179474E0,4.557422791E0,8.355129181E0
9.634000250E0,-2.007026367E0,6.829248505E0,4.471202087E0,8.405857368E0
9.644079250E0,-1.962868195E0,6.781497803E0,4.561913452E0,8.405511189E0
9.654158250E0,-1.809287567E0,6.732399902E0,4.781955872E0,8.453746619E0
9.664237250E0,-1.571282501E0,6.657705231E0,4.937781830E0,8.436566662E0
9.674316250E0,-1.310225372E0,6.576573944E0,4.903802490E0,8.307544416E0
9.684394250E0,-1.221310272E0,6.553970947E0,4.875361633E0,8.259254507E0
9.694473250E0,-1.451980591E0,6.806046753E0,5.003046112E0,8.570938714E0
9.704552250E0,-1.702858887E0,7.030280457E0,4.937183075E0,8.757873509E0
9.714631250E0,-2.010768585E0,7.250023499E0,4.868625641E0,8.961559388E0
9.724710250E0,-2.261946259E0,7.454348602E0,4.884642334E0,9.194750931E0
9.734788250E0,-2.209555206E0,7.529043274E0,4.772076416E0,9.183754143E0
9.744867250E0,-2.133962402E0,7.517517242E0,4.426445160E0,8.981106712E0
9.754946250E0,-1.954934692E0,7.548353119E0,4.167932739E0,8.841440368E0
9.765025250E0,-1.775757294E0,7.449708252E0,4.185446320E0,8.727509834E0
9.775104250E0,-1.676962738E0,7.485034790E0,4.545896759E0,8.916452612E0
9.785182250E0,-1.667682037E0,7.475604401E0,5.073998566E0,9.187561482E0
9.795261250E0,-1.667682037E0,7.566764832E0,5.547014923E0,9.529242779E0
9.805340250E0,-1.687141571E0,7.696844330E0,5.827381897E0,9.800318316E0
9.815419250E0,-1.706002350E0,7.825277252E0,5.700894928E0,9.830849967E0
9.825498250E0,-1.664388885E0,7.927963715E0,5.305866394E0,9.683750163E0
9.835576250E0,-1.787882080E0,8.067473602E0,4.878355408E0,9.595780538E0
9.845655250E0,-1.882485352E0,8.226892090E0,4.621040497E0,9.621825182E0
9.855734250E0,-1.929637299E0,8.228987732E0,4.598736877E0,9.622272084E0
9.865813250E0,-1.841470642E0,8.152347107E0,4.660558319E0,9.569356369E0
9.875892250E0,-1.661395111E0,8.069419556E0,4.858895874E0,9.564760049E0
9.885971250E0,-1.498234406E0,8.063581696E0,5.033732300E0,9.623124075E0
9.896049250E0,-1.419498138E0,8.013435974E0,5.146896973E0,9.629157779E0
9.906128250E0,-1.450932770E0,7.977510681E0,5.498515778E0,9.796915756E0
9.916207250E0,-1.509011993E0,8.007598114E0,5.751938782E0,9.974143798E0
9.926286250E0,-1.598226471E0,8.022866364E0,5.890101471E0,1.008037737E1
9.936365250E0,-1.505868530E0,8.106991425E0,5.772146759E0,1.006521874E1
9.946443250E0,-1.513203278E0,8.175848236E0,5.578299866E0,1.001257749E1
9.956522250E0,-1.544787598E0,8.219257965E0,5.517825623E0,1.001942962E1
9.966601250E0,-1.441053314E0,8.176297302E0,5.327720947E0,9.864739364E0
9.976680250E0,-1.425186310E0,8.121062164E0,5.266797638E0,9.783760221E0
9.986759250E0,-1.365310822E0,8.026907959E0,5.317392426E0,9.724710136E0
9.996837250E0,-1.374890900E0,7.971074066E0,5.468128967E0,9.763645895E0