"Time (s)","Acceleration x (m/s^2)","Acceleration y (m/s^2)","Acceleration z (m/s^2)","Absolute acceleration (m/s^2)"
-9.538333343E-4,7.902516632E0,3.979025574E0,3.951033783E0,9.689844250E0
9.055166665E-3,8.021070099E0,3.762575684E0,3.938759308E0,9.695791159E0
1.906316667E-2,7.958649902E0,3.629951477E0,4.195625153E0,9.701542476E0
2.907116667E-2,7.767796783E0,3.620371399E0,4.422702942E0,9.643964810E0
3.908016667E-2,7.498955841E0,3.753744049E0,4.695136414E0,9.610891688E0
4.908816667E-2,7.555388489E0,3.964954834E0,4.964725800E0,9.871841992E0
5.909716667E-2,7.675289154E0,3.996838531E0,5.123395844E0,1.005653851E1
6.910516667E-2,7.551795959E0,4.103865967E0,4.950355682E0,9.918536156E0
7.911416667E-2,7.512876892E0,4.223616943E0,4.702471161E0,9.818120711E0
8.912216667E-2,7.488777008E0,4.183650055E0,4.649631042E0,9.757242320E0
9.913016667E-2,7.460485840E0,4.227957916E0,4.423900452E0,9.649112514E0
1.091391667E-1,7.490573273E0,4.359833679E0,4.067940674E0,9.574182941E0
1.191432917E-1,7.513176270E0,4.440515900E0,3.911216583E0,9.563661133E0
1.291522917E-1,7.644153900E0,4.227658539E0,4.093986511E0,9.647119317E0
1.391602917E-1,7.688761139E0,4.099075928E0,4.549040222E0,9.829203338E0
1.491682917E-1,7.626340942E0,4.094734955E0,4.922214203E0,9.957716765E0
1.591772917E-1,7.632478180E0,4.140539703E0,4.988975372E0,1.001442297E1
1.691852917E-1,7.858957214E0,4.057761841E0,4.753365326E0,1.004107173E1
1.791942917E-1,7.979306946E0,4.026626587E0,4.560266876E0,1.003389730E1
1.892022917E-1,7.968080292E0,4.073479156E0,4.807552643E0,1.015854805E1
1.992112917E-1,8.042325897E0,3.957320709E0,4.889881439E0,1.021030526E1
2.092192917E-1,8.095315704E0,3.821852417E0,4.733007660E0,1.012630504E1
2.192272917E-1,8.050259399E0,3.760330353E0,4.824467468E0,1.011050182E1
2.292362917E-1,7.982001343E0,3.676953735E0,4.931943970E0,1.007751981E1
2.392442917E-1,7.848029938E0,3.686084747E0,4.706363068E0,9.865528267E0
2.492532917E-1,7.699838104E0,3.842509460E0,4.737498322E0,9.823251810E0
2.592612917E-1,7.703131256E0,3.931574249E0,4.677024078E0,9.832093442E0
2.692692917E-1,7.817343750E0,3.872746582E0,4.644242249E0,9.883218881E0
2.792782917E-1,7.879913635E0,3.904031525E0,4.687202911E0,9.965157910E0
2.892862917E-1,7.887697449E0,3.971092072E0,4.689448242E0,9.998813335E0
2.992952917E-1,7.737409973E0,4.077371063E0,4.662204895E0,9.911035383E0
3.093032917E-1,7.420818329E0,4.216282196E0,4.542753296E0,9.668618709E0
3.193122917E-1,7.217840424E0,4.308789825E0,4.258644104E0,9.423318935E0
3.293202917E-1,7.146738281E0,4.440964966E0,4.005071411E0,9.318724961E0
3.393282917E-1,7.045548706E0,4.565655670E0,4.055666199E0,9.323808052E0
3.493372917E-1,7.039411469E0,4.565955048E0,4.188889160E0,9.378062258E0
3.593452917E-1,7.170239410E0,4.449946289E0,4.396657104E0,9.515510962E0
3.693542917E-1,7.327113190E0,4.402345276E0,4.542004852E0,9.679723121E0
3.793622917E-1,7.424111481E0,4.451742554E0,4.516258392E0,9.763812417E0
3.893712917E-1,7.548652496E0,4.343218231E0,4.522695007E0,9.813280249E0
3.993792917E-1,7.527097321E0,4.166286163E0,4.787943420E0,9.845787763E0
4.093872917E-1,7.459438019E0,3.983965302E0,5.244344330E0,9.950796075E0
4.193962917E-1,7.492519226E0,3.589535522E0,5.541027374E0,9.986270274E0
4.294042917E-1,7.508386230E0,3.273692322E0,5.595663757E0,9.919898089E0
4.394132917E-1,7.551795959E0,3.311713257E0,5.422174530E0,9.868994049E0
4.494212917E-1,7.710466003E0,3.310964813E0,5.159770203E0,9.850736141E0
4.594292917E-1,8.027955780E0,3.181484070E0,5.150489502E0,1.005472312E1
4.694382917E-1,8.270451508E0,3.035537567E0,5.627397766E0,1.045382524E1
4.794462917E-1,8.305778046E0,3.076552277E0,5.984255676E0,1.068936101E1
4.894552917E-1,8.177045746E0,3.261717224E0,5.843099213E0,1.056620484E1
4.994632917E-1,8.036937103E0,3.317401428E0,5.581892395E0,1.033223272E1
5.094712917E-1,7.911048889E0,3.293301544E0,5.419031067E0,1.013885730E1
5.194802917E-1,7.606881409E0,3.229234772E0,5.197791138E0,9.762665348E0
5.294882917E-1,7.173981628E0,3.523223419E0,4.532574463E0,9.188217832E0
5.394972917E-1,6.944359131E0,3.673211517E0,3.997736664E0,8.814675548E0
5.495052917E-1,6.726412354E0,3.429368591E0,3.739822998E0,8.425643485E0
5.595142917E-1,6.611601105E0,3.035687256E0,3.763922882E0,8.191201484E0
5.695222917E-1,6.720424805E0,2.745291138E0,4.206103363E0,8.389996334E0
5.795302917E-1,7.151977386E0,2.759511566E0,4.910089417E0,9.103552202E0
5.895392917E-1,7.873327332E0,2.927911377E0,5.721402283E0,1.016348328E1
5.995472917E-1,8.121960297E0,3.099903717E0,5.971681824E0,1.054687754E1
6.095562917E-1,7.883655853E0,3.448678436E0,4.990472260E0,9.947372816E0
6.195642917E-1,7.753576355E0,3.868555298E0,4.184248810E0,9.622453143E0
6.295722917E-1,7.302863617E0,4.129762115E0,3.532204742E0,9.102923842E0
6.395812917E-1,6.760990448E0,4.236639862E0,3.429218903E0,8.684448828E0
6.495892917E-1,6.247408447E0,4.830005951E0,3.792064362E0,8.760069744E0
6.595982917E-1,5.872737579E0,5.451064453E0,4.216431885E0,9.054360728E0
6.696062917E-1,6.084397430E0,5.093458099E0,4.402045898E0,9.074206059E0
6.796152917E-1,6.489754486E0,4.254303131E0,4.665797424E0,9.054594084E0
6.896232917E-1,6.545139313E0,3.907324677E0,4.894072723E0,9.058586124E0
6.996312917E-1,6.394552460E0,4.250111847E0,5.077890472E0,9.205363845E0
7.096402917E-1,6.353537750E0,4.572391663E0,5.228028259E0,9.413101877E0
7.196482917E-1,6.380332031E0,4.976251831E0,5.353317719E0,9.702047707E0
7.296572917E-1,6.278543701E0,5.572312317E0,5.264701996E0,9.908978891E0
7.396652917E-1,6.148015137E0,6.309229889E0,5.074148254E0,1.016619164E1
7.496732917E-1,5.902825012E0,6.842870178E0,4.865482178E0,1.026358282E1
7.596822917E-1,5.620811462E0,6.683302002E0,4.688999176E0,9.911950384E0
7.696902917E-1,5.407055969E0,6.243516541E0,4.880151672E0,9.593416148E0
7.796992917E-1,5.189707947E0,5.880521393E0,5.364394684E0,9.502122434E0
7.897072917E-1,5.307662659E0,5.642815704E0,5.960305481E0,9.774348745E0
7.997162917E-1,5.418432312E0,5.733227692E0,5.997577972E0,9.909603928E0
8.097242917E-1,5.290598145E0,6.069129181E0,5.703439636E0,9.866812121E0
8.197322917E-1,5.167254639E0,6.899452515E0,4.922962646E0,9.926657379E0
8.297412917E-1,5.204078064E0,7.429051208E0,4.263284454E0,1.002241611E1
8.397492917E-1,5.258714447E0,7.382647705E0,4.193679199E0,9.987217330E0
8.497582917E-1,5.456004181E0,7.249275055E0,3.983366547E0,9.908944419E0
8.597662917E-1,5.746100922E0,6.932982788E0,3.514990540E0,9.666389431E0
8.697742917E-1,6.019133148E0,6.171516266E0,3.490740967E0,9.300690801E0
8.797832917E-1,6.379284210E0,5.275329895E0,3.494932251E0,8.985484070E0
8.897912917E-1,6.617888031E0,4.690795441E0,3.190315704E0,8.716542787E0
8.998002917E-1,6.412515106E0,4.703818359E0,3.007545776E0,8.502446045E0
9.098082917E-1,5.842500458E0,5.231920166E0,3.028801575E0,8.407225416E0
9.198172917E-1,6.059998169E0,5.665568390E0,2.968477020E0,8.811021440E0
9.298252917E-1,6.418951721E0,6.229146423E0,2.712209930E0,9.346726115E0
9.398332917E-1,6.201154633E0,6.812633057E0,2.197430420E0,9.470743814E0
9.498422917E-1,5.261259155E0,7.850424957E0,1.248703308E0,9.532537955E0
9.598502917E-1,3.860921173E0,9.203610992E0,4.601431274E-1,9.991241129E0
9.698592917E-1,2.672243042E0,1.055155792E1,2.959346008E-1,1.088870216E1
9.798672917E-1,2.004032593E0,1.165476379E1,4.297563171E-1,1.183361129E1
9.898752917E-1,1.582808533E0,1.230067062E1,7.322772217E-1,1.242368748E1
9.998842917E-1,1.471290436E0,1.258732452E1,1.337169342E0,1.274336910E1
1.009892292E0,1.598974915E0,1.227327759E1,1.980980530E0,1.253452621E1
1.019901292E0,1.420995026E0,1.184711380E1,2.765648804E0,1.224835277E1
1.029909292E0,1.072519684E0,1.153456375E1,3.156486053E0,1.200665914E1
1.039917292E0,1.842219086E0,1.049811905E1,3.365601196E0,1.117727812E1
1.049926292E0,2.358046417E0,9.687404938E0,4.368665314E0,1.088537707E1
1.059934292E0,1.172212372E0,1.044662613E1,5.106780396E0,1.168697075E1
1.069943292E0,9.550140381E-1,1.012509476E1,4.709207153E0,1.120741842E1
1.079951292E0,8.261320496E-1,1.020248383E1,4.201463013E0,1.106460401E1
1.089960292E0,1.346899109E0,9.891580353E0,3.079396362E0,1.044701781E1
1.099968292E0,1.408870239E0,1.004590942E1,1.905986481E0,1.032172447E1
1.109976292E0,1.166374512E0,1.063643143E1,8.812174988E-1,1.073641687E1
1.119985792E0,1.263073425E0,1.082369202E1,2.680924988E-1,1.090043747E1
1.129993792E0,1.532513123E0,1.032208511E1,1.574725342E-1,1.043641869E1
1.140002792E0,1.685345306E0,9.741442566E0,4.999603271E-1,9.898790451E0
1.150010792E0,1.904190216E0,9.353000336E0,7.253915405E-1,9.572395131E0
1.160018792E0,2.397863617E0,8.599617004E0,9.560618591E-1,8.978709085E0
1.170027792E0,2.795736237E0,8.354127502E0,1.312321014E0,8.906726328E0
1.180035792E0,3.075055389E0,8.464897156E0,1.635948029E0,9.153511646E0
1.190044792E0,3.341351624E0,8.363857269E0,1.795216827E0,9.183765162E0
1.200052792E0,3.617078247E0,8.192313995E0,1.863923950E0,9.147211386E0
1.210061792E0,4.213737488E0,8.015232239E0,1.706900482E0,9.214827221E0
1.220069792E0,5.119503937E0,7.799081726E0,1.659598846E0,9.475719744E0
1.230077792E0,6.196214905E0,7.548951874E0,1.449735260E0,9.873271285E0
1.240086792E0,7.118746490E0,7.333400116E0,1.183738403E0,1.028866101E1
1.250094792E0,8.262667694E0,7.057224426E0,8.544232178E-1,1.089982262E1
1.260103792E0,9.302854614E0,6.928941193E0,7.158114624E-1,1.162177766E1
1.270111792E0,1.015623001E1,6.880292358E0,8.734336853E-1,1.229838678E1
1.280119792E0,1.053703812E1,6.873256989E0,1.280287628E0,1.264555140E1
1.290128792E0,1.051368668E1,7.267686768E0,1.888323212E0,1.291985461E1
1.300136792E0,1.002510269E1,8.003556519E0,2.260000305E0,1.302563635E1
1.310145792E0,8.379125519E0,9.305549011E0,3.241658936E0,1.293488846E1
1.320153792E0,6.582561493E0,1.078402451E1,4.018393707E0,1.325793303E1
1.330161792E0,5.314099274E0,1.155402328E1,4.097728729E0,1.336138039E1
1.340170792E0,4.297862549E0,1.186777084E1,4.287683716E0,1.333041031E1
1.350178792E0,3.691024475E0,1.200698135E1,4.513414307E0,1.334774032E1
1.360187792E0,3.452420654E0,1.182451080E1,4.236340485E0,1.302631355E1
1.370195792E0,3.612886963E0,1.125778931E1,3.299139404E0,1.227497833E1
1.380204792E0,3.998634796E0,1.047836014E1,2.339934082E0,1.145689325E1
1.390212792E0,4.288282471E0,9.926607513E0,1.562899933E0,1.092563771E1
1.400220792E0,4.556374969E0,9.829609222E0,7.670050049E-1,1.086140263E1
1.410229792E0,4.766088867E0,1.004037094E1,1.296304321E-1,1.111492041E1
1.420237792E0,4.901706848E0,1.024679169E1,-6.631210327E-1,1.137818964E1
1.430246792E0,5.001549225E0,1.064675995E1,-1.515897675E0,1.186030935E1
1.440254792E0,5.170248413E0,1.059960800E1,-2.000290375E0,1.196178582E1
1.450263792E0,5.230872345E0,1.039124130E1,-2.342927856E0,1.186714929E1
1.460271792E0,4.846022644E0,1.034872971E1,-2.375559998E0,1.167147922E1
1.470279792E0,4.478536835E0,1.016581009E1,-1.460063782E0,1.120414089E1
1.480288792E0,4.001179504E0,9.733509064E0,-2.471360779E-1,1.052671422E1
1.490296792E0,3.563789062E0,9.210646362E0,9.011260986E-1,9.917087634E0
1.500305792E0,3.432512054E0,8.764274597E0,2.338886261E0,9.698713170E0
1.510313792E0,3.913012848E0,8.740324402E0,3.566483459E0,1.021884262E1
1.520321792E0,4.308640137E0,8.537346497E0,3.963008881E0,1.035162327E1
1.530330792E0,4.279301147E0,7.911198578E0,3.535647583E0,9.664382292E0
1.540338792E0,4.092938690E0,7.257358246E0,2.753524017E0,8.775151870E0
1.550347792E0,3.897894287E0,6.729855194E0,1.929487610E0,8.012955338E0
1.560355792E0,3.517235870E0,6.227799225E0,1.158291321E0,7.245555199E0
1.570363792E0,2.856509857E0,5.816005554E0,7.451504517E-1,6.522332280E0
1.580372792E0,2.187401276E0,5.583239594E0,9.274713135E-1,6.067741898E0
1.590380792E0,1.650467834E0,5.506299591E0,1.497336273E0,5.940151107E0
1.600389792E0,1.274150391E0,5.444178772E0,2.354753265E0,6.066910636E0
1.610397792E0,8.327183533E-1,5.401816864E0,3.401825867E0,6.437815197E0
1.620406792E0,5.269042969E-1,5.285508728E0,4.514611816E0,6.971079580E0
1.630414792E0,4.086502075E-1,5.124144287E0,5.147645416E0,7.274757934E0
1.640422792E0,5.337899780E-1,5.039270782E0,5.184618530E0,7.249789726E0
1.650431792E0,1.050515442E0,5.074896698E0,4.846920776E0,7.095829775E0
1.660439792E0,1.745520172E0,5.169200592E0,4.245920563E0,6.913415716E0
1.670448792E0,2.540067902E0,5.255421295E0,4.201762390E0,7.192093236E0
1.680456792E0,3.537892914E0,5.431006165E0,5.023403778E0,8.200432900E0
1.690464792E0,4.657414856E0,5.805377655E0,6.427783356E0,9.834140620E0
1.700473792E0,5.837411041E0,6.174360352E0,8.295748901E0,1.187508077E1
1.710481792E0,6.825805664E0,6.396498413E0,1.081156723E1,1.429674092E1
1.720490792E0,7.361541595E0,6.725214844E0,1.305704773E1,1.642885586E1
1.730498792E0,7.162305908E0,7.778574371E0,1.270138733E1,1.652664773E1
1.740507792E0,6.443949738E0,9.315129089E0,9.665550385E0,1.489023111E1
1.750515792E0,5.906716919E0,1.034423904E1,6.043831787E0,1.335741325E1
1.760523792E0,5.429509277E0,1.101798798E1,2.782413940E0,1.259434228E1
1.770532792E0,4.536316681E0,1.147019760E1,-7.694000244E-2,1.233489043E1
1.780540792E0,3.132386169E0,1.134131561E1,-1.283131714E0,1.183569643E1
1.790549792E0,2.223775635E0,1.050844757E1,-7.973918152E-1,1.077072338E1
1.800557792E0,1.976040802E0,9.373807068E0,-2.900967407E-1,9.584213704E0
1.810565792E0,1.308878174E0,8.803792419E0,4.818479919E-1,8.913590776E0
1.820574792E0,3.110531616E-1,9.001980286E0,1.358874207E0,9.109277811E0
1.830582792E0,-1.447489929E-1,9.517208862E0,3.152893524E0,1.002691151E1
1.840591792E0,5.119354248E-1,1.059077637E1,5.006788330E0,1.172580706E1
1.850599792E0,3.317850494E0,1.218496124E1,4.270170135E0,1.333100767E1
1.860608792E0,6.480773163E0,1.250948639E1,1.513652344E0,1.416964410E1
1.870616792E0,7.891739044E0,1.145852188E1,-7.123686218E-1,1.393142986E1
1.880624792E0,8.277636566E0,1.019949005E1,-1.879491577E0,1.326956491E1
1.890633792E0,8.263865204E0,9.397308197E0,-2.443518677E0,1.275035894E1
1.900641792E0,7.793243866E0,9.137897644E0,-3.088377686E0,1.240056047E1
1.910650792E0,7.329657898E0,9.004225616E0,-4.171225891E0,1.233689950E1
1.920658792E0,7.051386566E0,8.708141327E0,-4.326004028E0,1.201116517E1
1.930667792E0,6.630461884E0,8.076454926E0,-3.187172241E0,1.092475244E1
1.940675792E0,5.698649597E0,7.486980743E0,-1.453327789E0,9.520590819E0
1.950683792E0,4.322561188E0,7.277266846E0,8.551716614E-1,8.507318410E0
1.960692792E0,2.822530518E0,7.685617676E0,2.884052582E0,8.680619614E0
1.970700792E0,1.773811340E0,8.431366882E0,4.025129700E0,9.509785659E0
1.980709792E0,1.598675537E0,9.059011688E0,3.773502960E0,9.942875883E0
1.990717792E0,1.905986481E0,9.179660797E0,3.203638000E0,9.907686574E0
2.000725792E0,2.324665833E0,9.032067719E0,2.813100128E0,9.741450140E0
2.010734792E0,2.824925537E0,8.878337402E0,2.377955017E0,9.615599273E0
2.020742792E0,3.378175049E0,8.749904480E0,1.826202393E0,9.555517267E0
2.030751792E0,3.832031250E0,8.559650116E0,1.183289337E0,9.452631764E0
2.040759792E0,4.164489899E0,8.217012634E0,6.466552734E-1,9.234740700E0
2.050768792E0,4.467759247E0,7.883057098E0,3.617976379E-1,9.068316240E0
2.060776792E0,4.883893890E0,7.359445953E0,1.281335449E-1,8.833475108E0
2.070784792E0,5.280269623E0,6.891069946E0,-1.306782532E-1,8.682463308E0
2.080793792E0,5.484295349E0,6.553521881E0,-3.921844482E-1,8.554528226E0
2.090801792E0,5.550158386E0,6.335275726E0,-4.631369019E-1,8.435311045E0
2.100810792E0,5.594017181E0,6.206992493E0,-3.323089600E-1,8.362428671E0
2.110818792E0,5.569767609E0,6.292614441E0,-6.586303711E-2,8.403787578E0
2.120825917E0,5.544470215E0,6.557862854E0,3.064128113E-1,8.593055567E0
2.130834917E0,5.436245270E0,6.812333679E0,6.656657410E-1,8.740924646E0
2.140842917E0,5.230423279E0,7.181466064E0,1.061891785E0,8.947535788E0
2.150851917E0,5.051694946E0,7.574398956E0,1.346450043E0,9.203481357E0
2.160859917E0,4.782554626E0,7.846682739E0,1.501826935E0,9.311215974E0
2.170868917E0,4.540657654E0,8.014633484E0,1.488205261E0,9.330952615E0
2.180876917E0,4.448000336E0,8.237519989E0,1.400787048E0,9.465920289E0
2.190884917E0,4.487667847E0,8.439001007E0,1.464255066E0,9.669536886E0
2.200893917E0,4.538262634E0,8.588540039E0,1.641187134E0,9.851514754E0
2.210901917E0,4.537813568E0,8.786129150E0,1.798959045E0,1.005107313E1
2.220910917E0,4.517755280E0,8.937763824E0,1.956431580E0,1.020398743E1
2.230918917E0,4.539460144E0,9.002579041E0,1.849254456E0,1.025050583E1
2.240926917E0,4.661606140E0,9.019044800E0,1.502126312E0,1.026304654E1
2.250935917E0,4.944068756E0,8.826096039E0,1.133442993E0,1.017980747E1
2.260943917E0,5.365592194E0,8.528514862E0,9.596543884E-1,1.012156519E1
2.270952917E0,5.996979218E0,8.241262207E0,8.949888611E-1,1.023147925E1
2.280960917E0,6.603368225E0,7.879165192E0,6.857240295E-1,1.030320016E1
2.290969917E0,7.125781860E0,7.556286621E0,3.658392334E-1,1.039269325E1
2.300977917E0,7.483388214E0,7.227420502E0,3.155438232E-1,1.040847127E1
2.310985917E0,7.694449310E0,7.033723297E0,1.874102783E-1,1.042654958E1
2.320994917E0,7.842790833E0,7.035968628E0,-3.996688843E-2,1.053640451E1
2.331002917E0,7.922724609E0,7.313491516E0,-3.673361206E-1,1.078849662E1
2.341011917E0,7.940537567E0,7.877518616E0,-5.568420410E-1,1.119899591E1
2.351019917E0,7.861052856E0,8.604856110E0,-3.632945251E-1,1.166068967E1
2.361028917E0,7.776927795E0,9.428293762E0,1.907034302E-1,1.222332594E1
2.371036917E0,7.709867249E0,1.031445099E1,9.131011963E-1,1.290982982E1
2.381044917E0,7.550598450E0,1.106978027E1,1.589544525E0,1.349363643E1
2.391053917E0,7.119195557E0,1.144594803E1,2.041305084E0,1.363303334E1
2.401061917E0,6.445596313E0,1.128533203E1,2.369722137E0,1.321060233E1
2.411070917E0,5.639372864E0,1.058598633E1,3.163970490E0,1.240469033E1
2.421078917E0,5.058580627E0,1.005818390E1,3.869902496E0,1.190514371E1
2.431087917E0,4.836292877E0,1.006551865E1,3.278781738E0,1.163850523E1
2.441095917E0,4.960384827E0,1.029499146E1,1.457968140E0,1.152032716E1
2.451103917E0,5.477110291E0,1.034543655E1,-3.692820740E-1,1.171166785E1
2.461112917E0,5.929020538E0,1.040890457E1,-1.446442108E0,1.206610019E1
2.471120917E0,6.327042847E0,1.087099365E1,-1.262175293E0,1.264132353E1
2.481129917E0,6.746770020E0,1.139355698E1,-6.812333679E-1,1.325881311E1
2.491137917E0,6.929839325E0,1.128203888E1,-1.678010559E-1,1.324142105E1
2.501145917E0,7.068750458E0,1.099987564E1,3.409909058E-1,1.307978486E1
2.511154917E0,7.478448486E0,1.150372787E1,1.005010071E0,1.375765213E1
2.521162917E0,7.926317139E0,1.189546326E1,1.493294678E0,1.437214245E1
2.531171917E0,8.461454315E0,1.250020569E1,1.144220581E0,1.513805113E1
2.541179917E0,8.779093781E0,1.263986526E1,1.327140198E0,1.544668193E1
2.551188917E0,8.598718872E0,1.237311996E1,2.330204315E0,1.524670181E1
2.561196917E0,8.227939911E0,1.180520096E1,2.618504791E0,1.462594722E1
2.571204917E0,6.936575317E0,1.036145325E1,1.612297211E0,1.257279972E1
2.581213917E0,5.360053711E0,8.789422302E0,5.942642212E-2,1.029503044E1
2.591221917E0,4.231849823E0,7.472311249E0,-8.208929443E-1,8.626578322E0
2.601230917E0,3.536545715E0,6.408323822E0,-1.145717468E0,7.408538204E0
2.611238917E0,3.134930878E0,5.671406250E0,-1.278641052E0,6.605116456E0
2.621247917E0,2.915936279E0,5.165907440E0,-1.363364868E0,6.086710756E0
2.631255917E0,2.931354218E0,4.739893341E0,-1.268162842E0,5.715563264E0
2.641263917E0,3.006797333E0,4.398603058E0,-7.316784668E-1,5.378093755E0
2.651272917E0,3.013383636E0,4.247417450E0,-2.469863892E-2,5.207844656E0
2.661280917E0,3.059038696E0,4.135599976E0,4.426295471E-1,5.163024871E0
2.671289917E0,2.875071259E0,4.139791260E0,8.795709229E-1,5.116400241E0
2.681297917E0,2.419269104E0,4.201612701E0,1.023571472E0,4.955210475E0
2.691306917E0,1.723964996E0,4.243824921E0,9.568103027E-1,4.679486213E0
2.701314917E0,1.003213806E0,4.144581299E0,7.432044983E-1,4.328549989E0
2.711322917E0,5.174739075E-1,3.933220825E0,7.584727478E-1,4.038970935E0
2.721331917E0,2.068698120E-1,3.782184906E0,1.309776306E0,4.007896176E0
2.731339917E0,2.582130432E-1,3.734284515E0,2.166145477E0,4.324782196E0
2.741348917E0,8.047265625E-1,3.741469574E0,2.994971924E0,4.859633344E0
2.751356917E0,1.529669037E0,3.779939575E0,3.713926849E0,5.515531089E0
2.761364917E0,2.337988129E0,3.928879852E0,4.414320374E0,6.355195492E0
2.771373917E0,3.385360107E0,4.296515350E0,5.279072113E0,7.601928018E0
2.781381917E0,4.568200378E0,4.860243073E0,6.458170166E0,9.284308230E0
2.791390917E0,5.754483490E0,5.708229675E0,7.522157593E0,1.105806588E1
2.801398917E0,6.669979706E0,6.727011108E0,8.478219452E0,1.271304499E1
2.811407917E0,7.280559998E0,7.701334991E0,9.170230408E0,1.401464378E1
2.821415917E0,7.679480438E0,8.602760468E0,9.531578979E0,1.496104626E1
2.831423917E0,8.043822784E0,9.292825470E0,9.387877808E0,1.546583137E1
2.841432917E0,8.310418396E0,9.649234314E0,8.228388977E0,1.516170050E1
2.851440917E0,8.379424896E0,9.522897034E0,6.364315338E0,1.419171728E1
2.861449917E0,8.048014069E0,8.932824097E0,4.628674622E0,1.288373027E1
2.871457917E0,7.477250977E0,7.936645660E0,3.581602020E0,1.147726011E1
2.881466917E0,6.597530365E0,6.862479401E0,3.634741516E0,1.018981729E1
2.891474917E0,5.514532471E0,6.105952606E0,4.310436401E0,9.288303805E0
2.901482917E0,4.499642944E0,5.413492584E0,4.873715057E0,8.561879878E0
2.911491917E0,3.446283417E0,4.410278778E0,4.848267975E0,7.404939611E0
2.921499917E0,2.446811829E0,3.303480377E0,4.326602783E0,5.968195906E0
2.931508917E0,1.805395660E0,3.047662354E0,3.881877594E0,5.255156798E0
2.941516917E0,1.930685120E0,4.201912079E0,3.253484344E0,5.654093254E0
2.951525917E0,3.090173950E0,6.660699005E0,2.133663025E0,7.646345806E0
2.961533917E0,5.415288849E0,1.030561935E1,1.017883301E0,1.168619827E1
2.971541917E0,7.376660156E0,1.480705856E1,-1.722917175E-1,1.654369314E1
2.981550917E0,8.993597717E0,2.133079239E1,2.401007080E-1,2.315048924E1
2.991558917E0,1.012479538E1,2.840448257E1,1.172062683E-1,3.015526238E1
3.001567917E0,5.840554504E0,2.546115326E1,-1.226549377E0,2.615122991E1
3.011575917E0,8.499325562E-1,1.805425598E1,-1.296154633E0,1.812066669E1
3.021584917E0,-1.084943848E0,1.206580902E1,4.793032837E-1,1.212396726E1
3.031592917E0,-1.328786774E0,7.572003937E0,2.422861633E0,8.060469986E0
3.041600917E0,-4.197271729E-1,4.325255585E0,2.541415100E0,5.034163037E0
3.051609917E0,1.510658569E0,1.789977722E0,3.808081055E-1,2.372999025E0
3.061617917E0,4.206402740E0,4.451742554E-1,-2.620151367E0,4.975660491E0
3.071626917E0,6.417454834E0,9.171427917E-1,-5.569019165E0,8.546277079E0
3.081634917E0,7.695347443E0,2.302960968E0,-7.050638123E0,1.068800727E1
3.091643917E0,8.218808899E0,3.844455414E0,-6.111640778E0,1.093987249E1
3.101651917E0,7.996820526E0,5.395979004E0,-4.728966064E0,1.074378183E1
3.111659917E0,7.780969391E0,7.026538239E0,-3.950884094E0,1.120380335E1
3.121669208E0,7.374564514E0,8.537196808E0,-3.165467377E0,1.171700110E1
3.131677208E0,7.049739990E0,9.845326538E0,-2.266287231E0,1.231930787E1
3.141686208E0,6.109395447E0,1.098176331E1,1.389111328E0,1.264331714E1
3.151694208E0,3.448079681E0,1.198886902E1,1.224827957E1,1.748263671E1
3.161703208E0,1.940714264E0,1.121288269E1,1.228779739E1,1.674768864E1
3.171711208E0,3.203338623E0,9.613009644E0,2.031725006E0,1.033437174E1
3.181719208E0,4.471351776E0,8.721164246E0,-4.100273438E0,1.062374391E1
3.191728208E0,4.951104126E0,8.619974670E0,-5.719456329E0,1.146863445E1
3.201736208E0,4.731959839E0,8.675958252E0,-5.282814331E0,1.120588340E1
3.211745208E0,3.995790710E0,8.407416687E0,-3.944597168E0,1.010993796E1
3.221753208E0,3.755390625E0,7.790100403E0,-2.703228607E0,9.060688050E0
3.231762208E0,3.697910156E0,7.071594543E0,-1.651665344E0,8.149232315E0
3.241770208E0,3.674858093E0,6.763984222E0,-4.661306763E-1,7.711896159E0
3.251778208E0,3.811972961E0,6.862329712E0,1.728755035E0,8.038115507E0
3.261787208E0,4.273163910E0,6.922354889E0,3.596121826E0,8.894437543E0
3.271795208E0,4.974455566E0,6.766678619E0,2.697839813E0,8.821081985E0
3.281804208E0,5.610482941E0,6.747219086E0,6.602769470E-1,8.799911924E0
3.291812208E0,6.071823578E0,6.836283875E0,-3.450325012E-1,9.149910721E0
3.301820208E0,6.363716583E0,6.824009399E0,-5.060975647E-1,9.344523946E0
3.311829208E0,6.444249115E0,6.638096008E0,-1.794767761E-1,9.253371125E0
3.321837208E0,6.279441833E0,6.358327789E0,4.532574463E-1,8.947913965E0
3.331846208E0,6.006259918E0,6.205645294E0,1.073717194E0,8.702761650E0
3.341854208E0,5.741610260E0,6.392007751E0,1.447489929E0,8.713155489E0
3.351863208E0,5.526208191E0,6.984625397E0,1.254092102E0,8.994260164E0
3.361871208E0,5.435646515E0,7.657925262E0,9.683363342E-1,9.440749314E0
3.371880208E0,5.568270721E0,8.008496246E0,7.439529419E-1,9.782388100E0
3.381888208E0,5.782175903E0,8.217611389E0,4.284091187E-1,1.005714818E1
3.391896208E0,6.107449493E0,8.293353882E0,-2.245330811E-1,1.030199364E1
3.401905208E0,6.524182892E0,8.466244354E0,-7.373666382E-1,1.071382123E1
3.411913208E0,7.098538513E0,8.372239838E0,-9.529183960E-1,1.101779027E1
3.421922208E0,7.795788574E0,8.176446991E0,-1.097517700E0,1.135046915E1
3.431930208E0,8.436306610E0,7.865244141E0,-8.951385498E-1,1.156869083E1
3.441939208E0,8.999435577E0,7.380851440E0,-2.215393066E-2,1.163904204E1
3.451947208E0,9.596843262E0,6.686146088E0,1.018482056E0,1.174058158E1
3.461955208E0,9.907597046E0,6.401138763E0,1.642983398E0,1.190942699E1
3.471964208E0,9.974807281E0,6.426136780E0,9.077124023E-1,1.190025025E1
3.481972208E0,9.915231171E0,6.757547607E0,4.490661621E-3,1.199901158E1
3.491981208E0,9.854906616E0,7.264094238E0,-2.682421875E-1,1.224574226E1
3.501989208E0,9.786798248E0,7.699838104E0,-6.574328613E-1,1.247000981E1
3.511998208E0,9.609267426E0,8.262817383E0,-6.807843018E-1,1.269155778E1
3.522006208E0,9.417815552E0,9.111253052E0,-2.754272461E-1,1.310671744E1
3.532014208E0,9.280700684E0,1.006462051E1,7.866142273E-1,1.371301401E1
3.542023208E0,9.059161377E0,1.077249847E1,1.154100037E0,1.412257325E1
3.552031208E0,8.615933075E0,1.119746475E1,5.481600952E-1,1.413923616E1
3.562040208E0,7.929011536E0,1.154264694E1,-1.646575928E-3,1.400363971E1
3.572048208E0,7.065307617E0,1.187585403E1,-3.989204407E-1,1.382438492E1
3.582057208E0,6.201154633E0,1.221430023E1,-5.980064392E-1,1.371134788E1
3.592065208E0,5.254822540E0,1.205368423E1,-6.613247681E-1,1.316593384E1
3.602073208E0,4.382436676E0,1.169503006E1,-9.590556335E-1,1.252594376E1
3.612082208E0,3.646267548E0,1.140657990E1,-1.092128906E0,1.202489407E1
3.622090208E0,2.991379395E0,1.116153946E1,-8.060737610E-1,1.158352575E1
3.632099208E0,2.321522369E0,1.100481537E1,-3.628454590E-1,1.125287004E1
3.642107208E0,1.911375275E0,1.097218323E1,2.050735474E-2,1.113744049E1
3.652116208E0,1.828747101E0,1.093700638E1,4.197271729E-1,1.109678311E1
3.662124208E0,2.238445129E0,1.075573334E1,7.717950439E-1,1.101326944E1
3.672132208E0,2.894381104E0,1.049078430E1,1.014290771E0,1.092990316E1
3.682141208E0,3.643423462E0,1.036055511E1,8.276289368E-1,1.101365545E1
3.692149208E0,4.382885742E0,1.040920395E1,-5.104385376E-2,1.129441542E1
3.702158208E0,5.030738525E0,1.042552002E1,-1.356179810E0,1.165499985E1
3.712166208E0,5.605543213E0,1.011386810E1,-1.378184052E0,1.164524942E1
3.722175208E0,6.559060364E0,1.045336212E1,-1.035097504E0,1.238408169E1
3.732183208E0,7.622449036E0,1.086425766E1,-8.337661743E-2,1.327180378E1
3.742191208E0,7.630232849E0,9.997410278E0,2.264790344E0,1.277880827E1
3.752200208E0,7.547604675E0,8.775201874E0,3.995491333E0,1.224477257E1
3.762208208E0,7.525301056E0,7.866441650E0,4.270020447E0,1.169376478E1
3.772217208E0,7.321425018E0,7.066804504E0,3.051404572E0,1.062327916E1
3.782225208E0,6.888076172E0,6.406826935E0,9.972262573E-1,9.459782499E0
3.792234208E0,5.995482330E0,5.745502167E0,-3.740721130E-1,8.312432464E0
3.802242208E0,5.116809540E0,5.087769928E0,-9.999206543E-1,7.284708918E0
3.812251208E0,4.393064575E0,4.555476837E0,-1.063089294E0,6.417284817E0
3.822259208E0,3.562142487E0,4.269272003E0,-6.578819275E-1,5.598959829E0
3.832267208E0,2.678380280E0,4.229754181E0,-7.454498291E-2,5.007004924E0
3.842276208E0,1.894011383E0,4.347409515E0,5.562432861E-1,4.774584297E0
3.852284208E0,1.258283386E0,4.551285553E0,1.192719727E0,4.870324179E0
3.862293208E0,7.189549255E-1,4.697980499E0,1.817819824E0,5.088456138E0
3.872301208E0,2.755769348E-1,4.723277893E0,2.368075562E0,5.290848568E0
3.882310208E0,1.043330383E-1,4.671784973E0,2.703677673E0,5.398734405E0
3.892318208E0,3.662882996E-1,4.465663605E0,2.999612274E0,5.392030447E0
3.902326208E0,9.107061768E-1,4.129013672E0,3.485052795E0,5.479391630E0
3.912335208E0,1.550026703E0,3.886368256E0,4.135300598E0,5.882784378E0
3.922343208E0,2.203867035E0,3.789819031E0,4.968468018E0,6.626117463E0
3.932352208E0,3.014880524E0,3.929628296E0,5.893095245E0,7.698055254E0
3.942360208E0,3.979774017E0,4.324956207E0,6.886579285E0,9.053663439E0
3.952369208E0,4.982838135E0,4.982089691E0,7.852370911E0,1.055033755E1
3.962377208E0,5.965993652E0,5.913153534E0,8.431217194E0,1.190142379E1
3.972385208E0,6.750512238E0,6.971303101E0,8.988208923E0,1.322710785E1
3.982394208E0,7.315587158E0,7.986791382E0,1.012943573E1,1.482943425E1
3.992402208E0,7.700436859E0,8.756640472E0,1.125030487E1,1.620323548E1
4.002411208E0,7.910899200E0,9.025331726E0,1.095332245E1,1.624851413E1
4.012419208E0,8.095764771E0,8.654103699E0,8.829538879E0,1.477821623E1
4.022428208E0,8.070317688E0,7.561076660E0,6.121071167E0,1.263991377E1
4.032436208E0,7.882308655E0,5.776936798E0,3.455264740E0,1.036545430E1
4.042444208E0,7.555388489E0,3.679199066E0,1.112935638E0,8.476970374E0
4.052453208E0,6.607110443E0,1.916614380E0,3.038681030E-2,6.879552489E0
4.062461208E0,4.973108368E0,1.064735870E0,9.533674622E-1,5.174396470E0
4.072470208E0,3.353925476E0,1.221310272E0,1.932930450E0,4.059142152E0
4.082478208E0,2.488574982E0,2.382894745E0,2.348466339E0,4.169710655E0
4.092487208E0,2.719394989E0,4.914430389E0,2.852168884E0,6.299333497E0
4.102495208E0,4.316124573E0,8.578959961E0,3.420986023E0,1.019463735E1
4.112504208E0,6.375541992E0,1.287322998E1,3.363804932E0,1.475407637E1
4.122512542E0,8.471483459E0,2.004870850E1,3.110232239E0,2.198613856E1
4.132520542E0,1.105615860E1,2.837708954E1,1.033301239E0,3.047237380E1
4.142529542E0,7.418273621E0,2.674233902E1,1.428479462E0,2.778891925E1
4.152537542E0,3.302282867E0,2.249656815E1,-3.984713745E-1,2.274113959E1
4.162546542E0,7.999365234E-1,1.634720581E1,-2.286944275E0,1.652577231E1
4.172554542E0,2.897973633E-1,1.049722092E1,-2.604434052E0,1.081936718E1
4.182563542E0,7.420069885E-1,6.204747162E0,-2.923420715E0,6.898974590E0
4.192571542E0,1.769021301E0,2.423460388E0,-3.189866638E0,4.379251738E0
4.202579542E0,3.246898041E0,-3.122506714E-1,-3.651207275E0,4.896035328E0
4.212588542E0,4.740192719E0,-9.577084351E-1,-4.319268036E0,6.484034918E0
4.222596542E0,5.592969360E0,4.854405212E-1,-4.691843262E0,7.316443942E0
4.232605542E0,6.087840271E0,2.716850281E0,-4.149970093E0,7.852727321E0
4.242613542E0,6.312073975E0,5.156626740E0,-3.691473541E0,8.947628406E0
4.252622542E0,6.601272583E0,7.055278473E0,-3.395688629E0,1.024131121E1
4.262630542E0,6.796167297E0,8.858129425E0,-2.861150208E0,1.152564650E1
4.272638542E0,6.739285583E0,1.044198578E1,-2.366129608E0,1.265115040E1
4.282647542E0,6.174060974E0,1.150148254E1,-1.054257660E0,1.309635785E1
4.292655542E0,4.973407745E0,1.157363251E1,3.611240387E0,1.310438137E1
4.302664542E0,3.905229034E0,1.050904633E1,7.503895569E0,1.349071226E1
4.312672542E0,4.302652588E0,8.573271790E0,3.115022278E0,1.008549316E1
4.322681542E0,5.051096191E0,7.698041840E0,-1.778751068E0,9.377493069E0
4.332689542E0,5.142406311E0,7.965685272E0,-3.839815063E0,1.022940195E1
4.342698542E0,4.777016144E0,8.101153564E0,-3.908073120E0,1.018438058E1
4.352706542E0,4.606221313E0,7.544311523E0,-3.140319672E0,9.380592667E0
4.362714542E0,4.728067932E0,6.779402161E0,-2.378404083E0,8.600681718E0
4.372723542E0,4.865631866E0,6.343508606E0,-1.432521057E0,8.121981992E0
4.382731542E0,4.963378601E0,6.173013153E0,6.731501770E-1,7.949487385E0
4.392740542E0,5.317991180E0,6.238576813E0,2.966381378E0,8.717814481E0
4.402748542E0,5.748346252E0,6.419400787E0,3.119213562E0,9.164152135E0
4.412757542E0,6.124663696E0,6.419849854E0,1.385069733E0,8.980222475E0
4.422765542E0,6.352489929E0,6.422843628E0,-4.822970581E-1,9.046527457E0
4.432773542E0,6.591093750E0,6.469247131E0,-1.542991333E0,9.363466106E0
4.442782542E0,6.793472900E0,6.529421997E0,-1.670675812E0,9.569523673E0
4.452790542E0,6.788682861E0,6.611301727E0,-8.051756287E-1,9.510196282E0
4.462799542E0,6.498885498E0,6.702911224E0,5.236111450E-1,9.350866282E0
4.472807542E0,6.073021088E0,6.848258972E0,1.537153473E0,9.281329478E0
4.482816542E0,5.662873993E0,7.079378357E0,1.870061188E0,9.256504126E0
4.492824542E0,5.419779510E0,7.314239960E0,1.627415771E0,9.247734762E0
4.502832542E0,5.368885345E0,7.543413391E0,1.039288788E0,9.317088420E0
4.512841542E0,5.454058228E0,7.766000519E0,2.466870117E-1,9.493069561E0
4.522849542E0,5.666616211E0,7.889344025E0,-7.779322815E-1,9.744612207E0
4.532858542E0,5.979615326E0,7.786956940E0,-1.651216278E0,9.955853204E0
4.542866542E0,6.502478027E0,7.956554260E0,-2.208657074E0,1.051033502E1
4.552875542E0,6.863377533E0,8.099806366E0,-2.355202332E0,1.087473183E1
4.562883542E0,7.067852325E0,8.147407379E0,-2.069147186E0,1.098253858E1
4.572892542E0,7.325167236E0,8.206384735E0,-1.222956848E0,1.106790174E1
4.582900542E0,7.675887909E0,8.087980957E0,-7.170089722E-2,1.115077720E1
4.592908542E0,8.228388977E0,7.795339508E0,6.463558960E-1,1.135303832E1
4.602917542E0,8.693771210E0,7.304959259E0,8.872050476E-1,1.138996139E1
4.612925542E0,8.871900787E0,6.902745667E0,5.327421570E-1,1.125354769E1
4.622934542E0,9.109007721E0,6.611002350E0,-4.954696655E-1,1.126609355E1
4.632942542E0,9.237141266E0,6.720873871E0,-1.171164551E0,1.148331619E1
4.642951542E0,9.414223022E0,7.186106415E0,-1.509760437E0,1.193930890E1
4.652959542E0,9.633816376E0,7.962541809E0,-1.754351807E0,1.262102374E1
4.662968542E0,9.829459534E0,8.976084137E0,-1.359173584E0,1.338042279E1
4.672976542E0,9.958790588E0,1.021865021E1,-1.191522217E-1,1.426928587E1
4.682984542E0,9.825717316E0,1.148920807E1,1.272803192E0,1.517124421E1
4.692993542E0,9.088650055E0,1.231773514E1,2.191891937E0,1.546397585E1
4.703001542E0,7.794441376E0,1.239811798E1,2.764900360E0,1.490339961E1
4.713010542E0,6.094127197E0,1.225336899E1,1.823657684E0,1.380612781E1
4.723018542E0,4.005221100E0,1.253358627E1,1.293310547E-1,1.315862103E1
4.733027542E0,3.167862396E0,1.246008911E1,1.354233856E0,1.292761085E1
4.743035542E0,3.263812866E0,1.219469101E1,2.524799652E0,1.287391069E1
4.753043542E0,3.482957153E0,1.216924393E1,2.354902954E0,1.287505558E1
4.763052542E0,3.901187439E0,1.205218735E1,1.663939819E0,1.277666541E1
4.773060542E0,4.220174103E0,1.140897491E1,4.186793518E-1,1.217168314E1
4.783069542E0,4.440815277E0,1.091440338E1,-6.146218872E-1,1.179927123E1
4.793077542E0,4.734205170E0,1.090721832E1,-1.125359802E0,1.194347290E1
4.803086542E0,5.486091614E0,1.105600891E1,-1.854792938E0,1.248089705E1
4.813094542E0,6.534661102E0,1.091081085E1,-2.441423035E0,1.295021759E1
4.823103542E0,7.343129883E0,1.067445236E1,-2.524649963E0,1.319997527E1
4.833111542E0,7.889044647E0,1.029544052E1,-2.753973083E0,1.325961872E1
4.843119542E0,8.274044037E0,9.676477661E0,-2.403402100E0,1.295647970E1
4.853128542E0,8.562494202E0,9.415869598E0,-1.242117004E0,1.278740638E1
4.863136542E0,8.873697052E0,8.892108765E0,1.197509766E-1,1.256289927E1
4.873145542E0,8.818162537E0,7.834108887E0,1.744472351E0,1.192377609E1
4.883153542E0,8.345894623E0,6.679859161E0,2.919379120E0,1.108139206E1
4.893162542E0,7.708370361E0,5.631139984E0,3.212619324E0,1.007222091E1
4.903170542E0,7.059020691E0,4.921316071E0,2.619253235E0,8.994977070E0
4.913179542E0,6.313121796E0,4.416116638E0,1.583856354E0,7.865506590E0
4.923187542E0,5.539829865E0,4.247567139E0,6.295907593E-1,7.009131619E0
4.933195542E0,4.838987274E0,4.178710327E0,1.945953369E-2,6.393574627E0
4.943204542E0,4.251009979E0,4.172872467E0,-2.959346008E-1,5.964187099E0
4.953212542E0,3.688030701E0,4.233346710E0,-5.066963196E-1,5.637334120E0
4.963221542E0,3.141966248E0,4.396058350E0,-6.245013428E-1,5.439419348E0
4.973229542E0,2.632725220E0,4.783602448E0,-6.843768311E-1,5.502950673E0
4.983238542E0,2.297871552E0,5.060227203E0,-5.040019226E-1,5.580334305E0
4.993246542E0,1.906285858E0,5.172942810E0,-1.393601990E-1,5.514769656E0
5.003254542E0,1.362766113E0,5.182822266E0,1.692979431E-1,5.361663912E0
5.013263542E0,7.559280396E-1,5.118306427E0,7.060816956E-1,5.221785063E0
5.023271542E0,3.122506714E-1,5.019511871E0,1.423988800E0,5.226924910E0
5.033280542E0,2.068698120E-1,4.903203735E0,2.153721313E0,5.359357936E0
5.043288542E0,4.514611816E-1,4.704267426E0,3.023412781E0,5.610256149E0
5.053297542E0,9.898915100E-1,4.503983917E0,4.077520752E0,6.155642274E0
5.063305542E0,1.669927368E0,4.645888824E0,4.871918793E0,6.936031510E0
5.073314542E0,2.384391632E0,5.164859619E0,5.129682770E0,7.659944103E0
5.083322542E0,3.260370026E0,5.810167694E0,5.230872345E0,8.470542298E0
5.093330542E0,4.418511658E0,6.468947754E0,5.513185272E0,9.579443729E0
5.103339542E0,5.726042633E0,7.052135010E0,6.081852722E0,1.093202200E1
5.113347542E0,6.819818115E0,7.424859924E0,6.945556641E0,1.224251694E1
5.123356667E0,7.560627594E0,7.696395264E0,8.220904541E0,1.356395448E1
5.133364667E0,8.115523682E0,7.979007568E0,9.448501740E0,1.479190561E1
5.143373667E0,8.405620422E0,8.167765045E0,1.027523254E1,1.558676504E1
5.153381667E0,8.398435364E0,8.199948120E0,9.995464325E0,1.541694434E1
5.163389667E0,8.092321930E0,8.045020294E0,8.867110748E0,1.445107881E1
5.173398667E0,7.585326233E0,7.729925537E0,7.424710236E0,1.313069857E1
5.183406667E0,7.092101898E0,7.185807037E0,6.243965607E0,1.187100832E1
5.193415667E0,6.570885773E0,6.280489655E0,5.851032715E0,1.080998029E1
5.203423667E0,6.070775757E0,5.025948486E0,5.346731415E0,9.523760460E0
5.213432667E0,5.642366638E0,3.592978363E0,4.300706635E0,7.952475863E0
5.223440667E0,5.367837524E0,2.321372681E0,3.217708740E0,6.675035606E0
5.233449667E0,5.228028259E0,1.943408661E0,2.853516083E0,6.265115381E0
5.243457667E0,5.391937408E0,2.971919861E0,3.050955505E0,6.871217226E0
5.253465667E0,6.097719727E0,5.040617981E0,2.615061951E0,8.332380482E0
5.263474667E0,6.959328003E0,7.580985260E0,2.066003723E0,1.049628292E1
5.273482667E0,7.865543518E0,1.049946625E1,1.663041687E0,1.322389027E1
5.283491667E0,8.630901947E0,1.412956741E1,-1.818717957E-1,1.655808627E1
5.293499667E0,1.000130219E1,2.043385757E1,-4.686903534E0,2.322790661E1
5.303508667E0,7.527995453E0,2.249013153E1,-3.394640808E0,2.395830374E1
5.313516667E0,3.050656128E0,2.051468948E1,2.550396423E0,2.089649514E1
5.323525667E0,-5.661227417E-1,1.677711182E1,6.482120361E0,1.799471756E1
5.333533667E0,-2.097138977E0,1.173005722E1,5.888155518E0,1.329144874E1
5.343541667E0,-1.715582428E0,8.002957764E0,3.342549133E0,8.840994896E0
5.353550667E0,-4.155358887E-1,5.187761993E0,7.759863281E-1,5.261910238E0
5.363558667E0,1.355281677E0,2.977158966E0,-1.801204376E0,3.734247065E0
5.373567667E0,3.708987122E0,1.911674652E0,-5.521717529E0,6.921015093E0
5.383575667E0,5.505700836E0,2.344873810E0,-8.481063538E0,1.037976944E1
5.393584667E0,6.425538025E0,3.644770660E0,-9.465715942E0,1.200715080E1
5.403592667E0,7.096293182E0,5.372477875E0,-8.726852417E0,1.246510524E1
5.413601667E0,7.384294281E0,7.214247894E0,-7.046746216E0,1.249919225E1
5.423609667E0,7.484286346E0,8.289761353E0,-5.250780945E0,1.234120683E1
5.433617667E0,7.770491180E0,9.379495239E0,-2.390528870E0,1.241249743E1
5.443626667E0,8.059390411E0,1.017074982E1,2.246528320E0,1.316984492E1
5.453634667E0,7.831115112E0,1.024230103E1,9.029073944E0,1.574024366E1
5.463643667E0,6.141129456E0,9.739197235E0,8.683592377E0,1.442117229E1
5.473651667E0,4.594096527E0,9.030570831E0,3.329226837E0,1.066492774E1
5.483660667E0,4.280498657E0,7.963889008E0,-5.686674500E-1,9.059226211E0
5.493668667E0,4.578079834E0,7.488327942E0,-3.276686096E0,9.368593390E0
5.503677667E0,4.662653961E0,7.718998260E0,-4.785997467E0,1.020926285E1
5.513685667E0,4.517904968E0,8.170010376E0,-5.038372650E0,1.060875741E1
5.523693667E0,4.344715118E0,8.316705322E0,-4.530778198E0,1.041979309E1
5.533702667E0,4.500241699E0,7.988887024E0,-3.512595520E0,9.819002929E0
5.543710667E0,4.839136963E0,7.569010162E0,-2.332749023E0,9.281642063E0
5.553719667E0,5.120402069E0,7.154522095E0,-7.545808411E-1,8.830350842E0
5.563727667E0,5.429509277E0,6.803502045E0,2.496807861E0,9.055454741E0
5.573736667E0,5.848488007E0,6.403084717E0,4.396357727E0,9.722770547E0
5.583744667E0,6.266269226E0,6.057453461E0,2.769989777E0,9.145037769E0
5.593753667E0,6.544390869E0,6.114634552E0,4.812492371E-1,8.969359419E0
5.603761667E0,6.909930725E0,6.280040588E0,-1.236877899E0,9.418912854E0
5.613769667E0,7.247179413E0,6.238876190E0,-2.183359680E0,9.808784076E0
5.623778667E0,7.568112030E0,6.195915527E0,-2.442919922E0,1.008134647E1
5.633786667E0,7.814499664E0,6.083499298E0,-1.940863953E0,1.009169567E1
5.643795667E0,7.824079742E0,6.065237274E0,-8.119116211E-1,9.932901262E0
5.653803667E0,7.291187897E0,6.355783081E0,6.924600220E-1,9.697262521E0
5.663812667E0,6.518644409E0,6.659800873E0,1.758543091E0,9.483572449E0
5.673820667E0,5.907764740E0,6.937323761E0,2.082469482E0,9.346915231E0
5.683829667E0,5.714217224E0,7.071893921E0,1.692230988E0,9.248113744E0
5.693837667E0,5.661377106E0,7.258855133E0,9.831555176E-1,9.257902751E0
5.703845667E0,5.548212433E0,7.470664673E0,2.860551453E-1,9.309958077E0
5.713854667E0,5.406606903E0,7.853718109E0,-1.811233521E-1,9.536513619E0
5.723862667E0,5.160668335E0,8.159831543E0,-3.273692322E-1,9.660358124E0
5.733871667E0,5.058131561E0,8.399034119E0,-5.661227417E-1,9.820843343E0
5.743879667E0,5.294340363E0,8.518036652E0,-1.204844513E0,1.010141765E1
5.753888667E0,5.873785400E0,8.503516846E0,-1.918410645E0,1.051149148E1
5.763896667E0,6.498735809E0,8.309819641E0,-2.286195831E0,1.079413549E1
5.773905667E0,6.988068237E0,8.027357025E0,-2.126477966E0,1.085326988E1
5.783913667E0,7.331154785E0,7.660320282E0,-1.305734711E0,1.068322425E1
5.793921667E0,7.631430359E0,7.073839874E0,-3.454815674E-1,1.041140228E1
5.803930667E0,8.051606598E0,6.461762695E0,1.089733887E-1,1.032446711E1
5.813938667E0,8.586893463E0,5.988746338E0,-7.798782349E-2,1.046928384E1
5.823947667E0,9.109606476E0,6.034102020E0,-7.346722412E-1,1.095148669E1
5.833955667E0,9.606273651E0,6.541397095E0,-1.346899109E0,1.169976524E1
5.843964667E0,1.001193008E1,7.052284698E0,-1.472338257E0,1.233455485E1
5.853972667E0,1.041683807E1,7.800578613E0,-1.104852448E0,1.306063709E1
5.863981667E0,1.073178314E1,8.805888062E0,-3.719764709E-1,1.388715955E1
5.873989667E0,1.074211166E1,1.005578888E1,3.555107117E-1,1.471863584E1
5.883997667E0,1.038435562E1,1.097667389E1,9.388476562E-1,1.513947312E1
5.894006667E0,9.450148315E0,1.120494919E1,1.522633667E0,1.473684508E1
5.904014667E0,7.985144806E0,1.058673477E1,1.531465302E0,1.334866573E1
5.914023667E0,6.002966766E0,1.073043594E1,-3.237767029E-1,1.229970312E1
5.924031667E0,4.541256409E0,1.102711899E1,9.163943481E-1,1.196077512E1
5.934040667E0,4.338727570E0,1.116917358E1,3.063978424E0,1.236781950E1
5.944048667E0,4.352199554E0,1.155537048E1,3.432811432E0,1.281610012E1
5.954057667E0,4.440665588E0,1.194186676E1,2.613864441E0,1.300615162E1
5.964065667E0,4.550986176E0,1.189995392E1,1.024918671E0,1.278166017E1
5.974073667E0,4.769831085E0,1.146510818E1,-4.851411438E-1,1.242720227E1
5.984082667E0,4.946763153E0,1.130404312E1,-1.320853271E0,1.240953303E1
5.994090667E0,5.142556000E0,1.169787415E1,-1.882036285E0,1.291619922E1
6.004099667E0,5.419929199E0,1.216849548E1,-2.571502533E0,1.356689132E1
6.014107667E0,6.031557312E0,1.201356766E1,-3.776496735E0,1.396307341E1
6.024116667E0,6.804250488E0,1.184935913E1,-3.601510620E0,1.413067639E1
6.034124667E0,7.695646820E0,1.156989029E1,-2.110161896E0,1.405482567E1
6.044133667E0,8.466244354E0,1.108729385E1,4.192781067E-1,1.395640257E1
6.054141667E0,9.037306824E0,9.919123077E0,2.438429260E0,1.363846965E1
6.064150667E0,9.402247925E0,8.585845642E0,2.685565338E0,1.301273502E1
6.074158667E0,9.337732086E0,7.549400940E0,2.445314941E0,1.225423438E1
6.084166667E0,8.899293823E0,6.598278809E0,2.158361664E0,1.128686134E1
6.094175667E0,8.226443024E0,5.620661774E0,1.877545624E0,1.013860844E1
6.104183667E0,7.392078094E0,4.815635834E0,1.850302277E0,9.014254576E0
6.114192667E0,6.429729309E0,4.309089203E0,1.831740875E0,7.953926287E0
6.124199958E0,5.471122742E0,4.113146667E0,1.389111328E0,6.984324580E0
6.134208958E0,4.745431824E0,4.033063202E0,6.863227844E-1,6.265441800E0
6.144216958E0,4.118984528E0,3.987707520E0,-2.754272461E-2,5.733114634E0
6.154225958E0,3.520079956E0,3.896247711E0,-5.249583435E-1,5.277053192E0
6.164233958E0,2.934497681E0,3.935166779E0,-8.023315430E-1,4.973987346E0
6.174241958E0,2.396217041E0,4.146527252E0,-8.831634521E-1,4.869858524E0
6.184250958E0,1.860032043E0,4.301006012E0,-6.972500610E-1,4.737565785E0
6.194258958E0,1.413660278E0,4.321663055E0,-3.836521912E-1,4.563156358E0
6.204267958E0,1.005758514E0,4.317920837E0,-1.187031555E-1,4.435096503E0
6.214275958E0,5.990542603E-1,4.296365662E0,5.568420410E-2,4.338285910E0
6.224284958E0,3.933819580E-1,4.279750214E0,9.086105347E-2,4.298751794E0
6.234292958E0,3.788621521E-1,4.277205505E0,3.228785706E-1,4.306074086E0
6.244301958E0,4.308041382E-1,4.232747955E0,9.479786682E-1,4.358946090E0
6.254309958E0,4.930746460E-1,4.203858032E0,1.724414063E0,4.570464836E0
6.264317958E0,7.360194397E-1,4.304598541E0,2.815195770E0,5.195827214E0
6.274326958E0,1.539249115E0,4.724325714E0,4.059408417E0,6.416177833E0
6.284334958E0,3.001258850E0,5.630241852E0,5.401667175E0,8.359736017E0
6.294343958E0,5.072052612E0,7.034172363E0,6.969207458E0,1.112542813E1
6.304351958E0,7.594906311E0,8.594677277E0,9.090745697E0,1.463532496E1
6.314360958E0,1.005548950E1,1.018332367E1,1.158066788E1,1.840991088E1
6.324368958E0,1.129640900E1,1.141451340E1,1.397942963E1,2.129141670E1
6.334377958E0,1.075917618E1,1.146061752E1,1.407373352E1,2.109918485E1
6.344385958E0,8.976832581E0,1.007135651E1,1.184891006E1,1.795584626E1
6.354393958E0,7.060068512E0,7.567064209E0,9.317524109E0,1.392556224E1
6.364402958E0,5.607638855E0,5.301226044E0,6.597680054E0,1.015273329E1
6.374410958E0,4.607269135E0,3.766916656E0,3.537294159E0,6.923080235E0
6.384419958E0,4.169279938E0,3.053051147E0,7.203021240E-1,5.217552267E0
6.394427958E0,4.164040833E0,3.541784821E0,-9.657916260E-1,5.551236730E0
6.404436958E0,4.589905243E0,5.107229462E0,-9.002279663E-1,6.925419359E0
6.414444958E0,5.462740173E0,7.087910614E0,8.382568359E-3,8.948747250E0
6.424453958E0,6.430477753E0,8.951235809E0,1.545236664E0,1.112939455E1
6.434461958E0,7.428153076E0,1.091545120E1,4.548591156E0,1.396474900E1
6.444470958E0,8.847651215E0,1.341600128E1,7.973469086E0,1.794007335E1
6.454478958E0,1.146465912E1,1.623583740E1,8.276738434E0,2.153010042E1
6.464486958E0,1.340851685E1,1.731105148E1,6.320456543E0,2.279054625E1
6.474495958E0,1.230141907E1,1.495629822E1,4.993615723E0,1.999879910E1
6.484503958E0,9.078471222E0,1.081036972E1,3.195255432E0,1.447385196E1
6.494512958E0,5.262007599E0,7.436385956E0,2.588117981E-1,9.113481420E0
6.504520958E0,2.489323425E0,5.770649872E0,-2.557581482E0,6.785156895E0
6.514529958E0,8.708889771E-1,4.825215912E0,-3.584895172E0,6.073930326E0
6.524537958E0,-5.239105225E-2,3.864513702E0,-3.547922058E0,5.246423726E0
6.534546958E0,-3.667373657E-2,3.160377960E0,-3.704646149E0,4.869675236E0
6.544554958E0,1.122066650E0,3.126099243E0,-3.837270355E0,5.075054071E0
6.554562958E0,2.924169159E0,3.768862610E0,-3.379073181E0,5.845787048E0
6.564571958E0,4.362378387E0,4.972359924E0,-3.087030487E0,7.299620924E0
6.574579958E0,5.334906006E0,6.329737244E0,-3.279979248E0,8.904215829E0
6.584588958E0,6.026018829E0,7.647596741E0,-3.335513763E0,1.029195273E1
6.594596958E0,6.571933594E0,9.008416901E0,-2.308948517E0,1.138741101E1
6.604605958E0,7.004384308E0,1.031220566E1,2.995271301E-1,1.246967127E1
6.614613958E0,7.340884552E0,1.149175278E1,2.423011322E0,1.384990801E1
6.624622958E0,7.271578674E0,1.203347626E1,1.916614380E0,1.418991959E1
6.634630958E0,6.801107025E0,1.218526062E1,4.713697815E-1,1.396272977E1
6.644639958E0,6.264023895E0,1.176253967E1,-6.357279968E-1,1.334164476E1
6.654647958E0,5.790259094E0,1.036938675E1,-1.658850403E0,1.199179163E1
6.664655958E0,5.360203400E0,8.619076538E0,-2.405497742E0,1.043104406E1
6.674664958E0,5.127138062E0,7.919880524E0,-2.289039917E0,9.708334355E0
6.684672958E0,5.065166931E0,8.273744659E0,-1.712888031E0,9.851129485E0
6.694681958E0,5.339097290E0,8.858728180E0,-1.398691406E0,1.043740209E1
6.704689958E0,5.509592743E0,9.032816162E0,-1.656156006E0,1.070935258E1
6.714698958E0,5.300926666E0,8.722960510E0,-2.113455048E0,1.042384554E1
6.724706958E0,5.010680237E0,8.097261658E0,-2.538421326E0,9.854752438E0
6.734715958E0,4.777315521E0,7.508984985E0,-2.772085419E0,9.321590887E0
6.744723958E0,4.685855713E0,6.970554657E0,-2.717748413E0,8.827912121E0
6.754731958E0,4.637955322E0,6.670578461E0,-2.559826813E0,8.518213421E0
6.764740958E0,4.749922485E0,6.586004333E0,-2.428400116E0,8.475514369E0
6.774748958E0,4.972359924E0,6.615493011E0,-2.267035675E0,8.580708698E0
6.784757958E0,5.306315460E0,6.670578461E0,-1.991309052E0,8.753222978E0
6.794765958E0,5.748795319E0,6.727160797E0,-1.572030945E0,8.987470239E0
6.804774958E0,6.312073975E0,6.768624573E0,-7.475454712E-1,9.285223783E0
6.814782958E0,6.903344421E0,6.796017609E0,4.550537109E-1,9.697891184E0
6.824791958E0,7.338339844E0,7.032226410E0,1.232087860E0,1.023823620E1
6.834799958E0,7.596403198E0,7.431895294E0,1.728305969E0,1.076686820E1
6.844808958E0,7.950117645E0,7.749385071E0,1.889221344E0,1.126172708E1
6.854816958E0,8.656648407E0,7.864346008E0,7.455995178E-1,1.171927551E1
6.864824958E0,8.585695953E0,7.527546387E0,6.601272583E-2,1.141851511E1
6.874833958E0,7.983498230E0,7.473508759E0,4.004173279E-1,1.094303026E1
6.884841958E0,6.804998932E0,8.172854462E0,2.559677124E-1,1.063809569E1
6.894850958E0,5.740861816E0,8.708590393E0,-8.205935669E-1,1.046281104E1
6.904858958E0,5.147346039E0,8.749305725E0,-1.561253357E0,1.027049336E1
6.914867958E0,4.891528015E0,8.606502686E0,-1.323098602E0,9.987468383E0
6.924875958E0,4.953050079E0,8.421188049E0,-1.088237000E0,9.830227516E0
6.934884958E0,5.279072113E0,8.155191193E0,-1.118623810E0,9.778909192E0
6.944892958E0,5.926176453E0,7.869136047E0,-1.047072601E0,9.906524643E0
6.954901958E0,6.663094025E0,7.894583130E0,-1.064286804E0,1.038527665E1
6.964909958E0,7.197482758E0,8.059091034E0,-1.102607117E0,1.086132813E1
6.974917958E0,7.508685608E0,8.139773254E0,-1.111887817E0,1.112980515E1
6.984926958E0,7.746540985E0,8.284821625E0,-1.447489929E0,1.143426402E1
6.994934958E0,8.018675079E0,8.606951752E0,-1.911075897E0,1.191767509E1
7.004943958E0,8.107739868E0,8.895701294E0,-1.801354065E0,1.217020229E1
7.014951958E0,7.682324524E0,8.905281372E0,-1.054706726E0,1.180824088E1
7.024960958E0,6.810088348E0,8.712482300E0,-2.228865051E-1,1.106048505E1
7.034968958E0,5.858816528E0,8.658893738E0,5.566923523E-1,1.046957870E1
7.044977958E0,5.299729156E0,8.739426270E0,1.274599457E0,1.029996623E1
7.054985958E0,5.020110626E0,9.063801727E0,2.388133850E0,1.063283573E1
7.064994958E0,4.925657043E0,9.726024628E0,3.592529297E0,1.147884659E1
7.075002958E0,5.195396118E0,1.029588959E1,4.170178070E0,1.226327315E1
7.085010958E0,5.928721161E0,1.055051010E1,3.999981995E0,1.274609171E1
7.095019958E0,6.869814148E0,1.034693344E1,3.278332672E0,1.284526540E1
7.105027958E0,7.741601257E0,9.742789764E0,2.373164978E0,1.266831695E1
7.115036958E0,8.278684387E0,9.115294647E0,1.626068573E0,1.242051974E1
7.125045167E0,8.219108276E0,8.692424011E0,1.558708649E0,1.206406021E1
7.135054167E0,7.554340668E0,8.360414429E0,1.782792664E0,1.140802095E1
7.145062167E0,6.365512848E0,7.816744995E0,2.144141235E0,1.030624072E1
7.155071167E0,5.200784912E0,7.054080963E0,2.483485565E0,9.109112058E0
7.165079167E0,4.424648895E0,6.159391479E0,2.532733154E0,7.995646220E0
7.175087167E0,3.988306274E0,5.136119385E0,2.643053741E0,7.019404701E0
7.185096167E0,3.778292999E0,4.277953949E0,3.191064148E0,6.539057912E0
7.195104167E0,3.837270355E0,3.815565491E0,3.774850159E0,6.597929790E0
7.205113167E0,3.977678375E0,3.864513702E0,3.833528137E0,6.741834275E0
7.215121167E0,4.078418884E0,4.293970642E0,3.305725708E0,6.782293633E0
7.225130167E0,3.978426819E0,4.877606964E0,2.614463196E0,6.815742619E0
7.235138167E0,3.584595795E0,5.559738464E0,2.168241119E0,6.961414250E0
7.245147167E0,3.046165466E0,6.208040314E0,1.850751343E0,7.158503274E0
7.255155167E0,2.537822571E0,6.781946869E0,1.539997559E0,7.403170889E0
7.265164167E0,2.078727264E0,7.317084045E0,1.409468994E0,7.736111996E0
7.275172167E0,1.700912933E0,7.891739044E0,1.584604797E0,8.227005671E0
7.285180167E0,1.446891174E0,8.506360931E0,1.989512787E0,8.854932608E0
7.295189167E0,1.403481445E0,8.967402191E0,2.347119141E0,9.375128292E0
7.305197167E0,1.602417755E0,9.096134491E0,2.553240509E0,9.582611462E0
7.315206167E0,1.954186249E0,8.904383240E0,2.661016388E0,9.496730648E0
7.325214167E0,2.386636963E0,8.688681793E0,2.594853973E0,9.376699549E0
7.335223167E0,2.878065033E0,8.633746033E0,2.587519226E0,9.461505411E0
7.345231167E0,3.488645325E0,8.638236694E0,2.888992310E0,9.753771371E0
7.355240167E0,4.242926788E0,8.676856384E0,3.208128662E0,1.017754165E1
7.365248167E0,5.092410278E0,8.651708679E0,3.095263367E0,1.050549194E1
7.375257167E0,5.792205048E0,8.551716614E0,2.949616241E0,1.074158891E1
7.385265167E0,6.203998718E0,8.556656342E0,2.991529083E0,1.098431673E1
7.395273167E0,6.274053040E0,8.454269257E0,3.186423798E0,1.099962303E1
7.405282167E0,6.123915253E0,8.370293884E0,3.320095825E0,1.088977475E1
7.415290167E0,5.940696259E0,8.303233337E0,3.516786804E0,1.079830289E1
7.425299167E0,5.708229675E0,8.252339172E0,4.254303131E0,1.089881108E1
7.435307167E0,5.482648773E0,8.036787415E0,5.006189575E0,1.094126700E1
7.445316167E0,5.476212158E0,7.620503082E0,4.418661346E0,1.037234472E1
7.455324167E0,5.746400299E0,7.123835907E0,2.820135498E0,9.577229174E0
7.465333167E0,5.850284271E0,6.839127960E0,1.709445190E0,9.160878788E0
7.475341167E0,5.325475616E0,6.957831116E0,1.801204376E0,8.945190975E0
7.485350167E0,4.636757812E0,7.260501709E0,2.373763733E0,8.935835850E0
7.495358167E0,3.970942383E0,7.509733429E0,2.812651062E0,8.948490687E0
7.505366167E0,3.429218903E0,7.545958099E0,2.867736511E0,8.770686325E0
7.515375167E0,3.062481537E0,7.450905762E0,2.646346893E0,8.479265399E0
7.525383167E0,2.905757446E0,7.207511902E0,2.087558899E0,8.046710900E0
7.535392167E0,2.918331299E0,7.013066254E0,1.780098267E0,7.801827074E0
7.545400167E0,2.749632111E0,7.276967468E0,2.191891937E0,8.082024656E0
7.555409167E0,2.338736572E0,7.834707642E0,3.048261108E0,8.726066031E0
7.565417167E0,1.857038269E0,8.456664276E0,4.177363129E0,9.613226541E0
7.575426167E0,1.524130554E0,8.977131958E0,5.084776154E0,1.042913327E1
7.585434167E0,1.454974365E0,9.370962982E0,5.615572357E0,1.102118644E1
7.595443167E0,1.718875580E0,9.751920776E0,6.054908752E0,1.160673994E1
7.605451167E0,2.358645172E0,1.019320312E1,6.423442383E0,1.227701955E1
7.615459167E0,3.368295593E0,1.053194870E1,6.579268341E0,1.286678400E1
7.625468167E0,4.523293762E0,1.085273163E1,6.365662537E0,1.337025167E1
7.635476167E0,5.815706177E0,1.112965576E1,5.996081085E0,1.391562662E1
7.645485167E0,7.048841858E0,1.152842651E1,5.936804352E0,1.475928302E1
7.655493167E0,7.996521149E0,1.198557587E1,6.127358093E0,1.565703984E1
7.665502167E0,8.366102600E0,1.214259933E1,6.527026978E0,1.612564642E1
7.675510167E0,7.876171417E0,1.144759460E1,6.789431305E0,1.546537668E1
7.685519167E0,6.630761261E0,1.003408401E1,5.969735870E0,1.342712118E1
7.695527167E0,4.530927887E0,8.646918640E0,3.282673645E0,1.029924540E1
7.705536167E0,1.910776520E0,7.274123383E0,-6.271957397E-1,7.547006850E0
7.715544167E0,-6.152206421E-2,6.144272919E0,-3.042722626E0,6.856678178E0
7.725552167E0,-1.279239807E0,5.444328461E0,-2.776276703E0,6.243787248E0
7.735561167E0,-2.236948242E0,4.853058014E0,-1.255439301E0,5.489283866E0
7.745569167E0,-2.713108063E0,4.555177460E0,5.721102905E-1,5.332720435E0
7.755578167E0,-2.150577850E0,5.005441132E0,2.145787811E0,5.855239649E0
7.765586167E0,1.028062134E0,6.690636749E0,4.007316742E0,7.866391761E0
7.775595167E0,4.625231781E0,8.105943604E0,4.621788940E0,1.041441423E1
7.785603167E0,6.503076782E0,9.363328857E0,3.346141663E0,1.188101843E1
7.795612167E0,7.740703125E0,1.055425232E1,1.105002136E0,1.313513443E1
7.805620167E0,8.834478607E0,1.166015259E1,-9.976753235E-1,1.466296446E1
7.815629167E0,9.548942871E0,1.201686081E1,-2.096540222E0,1.549137614E1
7.825637167E0,9.855505371E0,1.086186264E1,-1.981579285E0,1.479992238E1
7.835645167E0,9.815837860E0,9.332792358E0,-2.502795410E0,1.377373119E1
7.845654167E0,9.427695007E0,7.236401825E0,-2.493215332E0,1.214343721E1
7.855662167E0,8.861123199E0,5.688021698E0,-1.865570526E0,1.069361719E1
7.865671167E0,8.087681580E0,4.806055756E0,-8.767268372E-1,9.448672669E0
7.875679167E0,7.407945099E0,4.657863922E0,1.365161133E-1,8.751684612E0
7.885688167E0,7.078779602E0,5.046306152E0,5.665718079E-1,8.711792585E0
7.895696167E0,6.956783295E0,5.838758240E0,4.662803650E-1,9.094248126E0
7.905705167E0,6.830745392E0,6.857090607E0,3.617976379E-1,9.685539310E0
7.915713167E0,6.715185699E0,7.748037872E0,3.472778320E-1,1.025896738E1
7.925722167E0,6.606811066E0,8.135282593E0,2.793191528E-1,1.048383491E1
7.935730167E0,6.456373901E0,8.160579987E0,2.092648315E-1,1.040786344E1
7.945739167E0,6.261928253E0,8.070916443E0,3.353027344E-2,1.021531017E1
7.955747167E0,6.036497040E0,7.955207062E0,-7.798782349E-2,9.986525823E0
7.965755167E0,5.866151276E0,7.777825928E0,1.422042847E-2,9.741997186E0
7.975764167E0,5.766458588E0,7.479047241E0,-1.020877075E-1,9.444501796E0
7.985772167E0,5.733976135E0,7.328011322E0,-4.893324280E-1,9.317600468E0
7.995781167E0,5.793402557E0,7.286547546E0,-6.206094360E-1,9.329654035E0
8.005789167E0,6.007307739E0,7.327562256E0,-5.939648438E-1,9.493877455E0
8.015798167E0,6.282136230E0,7.459438019E0,-3.073109436E-1,9.757196892E0
8.025806167E0,6.494245148E0,7.585775299E0,6.780899048E-2,9.986180701E0
8.035815167E0,6.659950562E0,7.566315765E0,7.035369873E-3,1.007988716E1
8.045823167E0,6.709796906E0,7.440427551E0,-4.143383789E-1,1.002761252E1
8.055832167E0,6.683751068E0,7.613767090E0,-8.026309204E-1,1.016298155E1
8.065840167E0,6.568640442E0,7.401059418E0,-9.550140381E-1,9.941567762E0
8.075848167E0,6.357279968E0,7.117249603E0,-8.102650452E-1,9.577409877E0
8.085857167E0,6.100713501E0,6.904990997E0,-4.327500916E-1,9.224146494E0
8.095865167E0,5.881120148E0,6.846163330E0,-8.966354370E-2,9.025827723E0
8.105874167E0,5.751639404E0,6.838678894E0,7.708969116E-2,8.936152845E0
8.115882167E0,5.728287964E0,6.782096558E0,-3.757186890E-2,8.877585728E0
8.125891417E0,5.828579407E0,6.856342163E0,-4.565505981E-1,9.010560704E0
8.135899417E0,5.996679840E0,6.862180023E0,-9.449848938E-1,9.162023806E0
8.145908417E0,6.144123230E0,6.832541656E0,-1.147813110E0,9.260202519E0
8.155916417E0,6.186485138E0,6.911577301E0,-9.717791748E-1,9.326674322E0
8.165925417E0,6.128705292E0,7.065457306E0,-2.874023438E-1,9.357580649E0
8.175933417E0,5.949378204E0,7.240742798E0,3.722758484E-1,9.378808378E0
8.185942417E0,5.936654663E0,7.270830231E0,6.406677246E-1,9.408469374E0
8.195950417E0,5.997577972E0,7.216493225E0,5.806425476E-1,9.401375525E0
8.205958417E0,6.091133423E0,7.193141785E0,8.532257080E-2,9.426052994E0
8.215967417E0,6.305487671E0,7.203470306E0,-6.899153137E-1,9.598184326E0
8.225975417E0,6.619833984E0,7.150929565E0,-1.315165100E0,9.832988095E0
8.235984417E0,6.950646057E0,6.939419403E0,-1.570683746E0,9.946560697E0
8.245992417E0,7.221283264E0,6.437064056E0,-1.457070007E0,9.782933029E0
8.256001417E0,7.450007629E0,5.966891785E0,-8.306227112E-1,9.581040932E0
8.266009417E0,7.792495422E0,6.127208405E0,-1.451980591E-1,9.913967431E0
8.276018417E0,8.097411346E0,6.234086151E0,3.525169373E-1,1.022527109E1
8.286026417E0,8.458460541E0,6.143674164E0,-2.395019531E-2,1.045422692E1
8.296035417E0,8.878187714E0,5.927673340E0,-7.875123596E-1,1.070419096E1
8.306043417E0,9.399852905E0,5.818849640E0,-1.007704468E0,1.110097807E1
8.316051417E0,9.758058014E0,5.736520844E0,-6.840774536E-1,1.133998808E1
8.326060417E0,9.957293701E0,5.689368896E0,-6.349795532E-1,1.148563517E1
8.336068417E0,1.011027557E1,6.001020813E0,-1.340911560E0,1.183334132E1
8.346077417E0,1.000863693E1,6.397845612E0,-2.088457031E0,1.206096574E1
8.356085417E0,9.986782379E0,6.939120026E0,-2.460134125E0,1.240723454E1
8.366094417E0,1.007958939E1,7.495513000E0,-2.432741089E0,1.279449360E1
8.376102417E0,1.011162277E1,8.161029053E0,-1.972897339E0,1.314304509E1
8.386111417E0,9.831405487E0,8.925189972E0,-9.445358276E-1,1.331193817E1
8.396119417E0,9.469308472E0,9.323511658E0,1.814227295E-1,1.329016880E1
8.406128417E0,8.983867950E0,9.383237457E0,6.336323547E-1,1.300601855E1
8.416136417E0,8.395591278E0,9.566456451E0,5.619314575E-1,1.274043990E1
8.426145417E0,7.624544678E0,1.014245865E1,5.366340637E-1,1.270004430E1
8.436153417E0,6.452481995E0,1.126227997E1,2.754272461E-2,1.297976242E1
8.446161417E0,4.891078949E0,1.259046799E1,-1.951791229E0,1.364741831E1
8.456170417E0,3.867956543E0,1.224513611E1,-3.267704773E-1,1.284566951E1
8.466178417E0,3.805386658E0,1.195803314E1,1.933080139E0,1.269694148E1
8.476187417E0,4.384831696E0,1.215622101E1,2.261796570E0,1.311930570E1
8.486195417E0,4.772525482E0,1.225785965E1,1.549128571E0,1.324507161E1
8.496204417E0,4.776417389E0,1.209095673E1,4.664300537E-1,1.300857235E1
8.506212417E0,4.794380035E0,1.188723038E1,-7.225474548E-1,1.283800611E1
8.516221417E0,4.979095917E0,1.202015396E1,-1.599573669E0,1.310855192E1
8.526229417E0,5.182672577E0,1.238584351E1,-2.308499451E0,1.362344979E1
8.536238417E0,5.427563324E0,1.270647675E1,-2.931204529E0,1.412462229E1
8.546246417E0,5.890400848E0,1.273910889E1,-3.530109100E0,1.447215905E1
8.556255417E0,6.415808258E0,1.189561295E1,-3.659440155E0,1.400213217E1
8.566263417E0,6.916367340E0,1.036774017E1,-2.356250153E0,1.268377264E1
8.576271417E0,7.245233459E0,9.069190521E0,2.444416809E-1,1.161048562E1
8.586280417E0,7.516469421E0,7.966433716E0,2.794239349E0,1.130350177E1
8.596288417E0,7.986791382E0,6.964118042E0,4.019591217E0,1.133335300E1
8.606297417E0,8.466992798E0,5.985453186E0,3.827690277E0,1.105291046E1
8.616305417E0,8.812773743E0,5.194797363E0,3.033741302E0,1.067026180E1
8.626314417E0,9.046437836E0,4.493505707E0,1.884131927E0,1.027519266E1
8.636322417E0,8.847950592E0,3.670068054E0,1.031055908E0,9.634246493E0
8.646331417E0,8.339607697E0,2.975811768E0,4.625381470E-1,8.866704785E0
8.656339417E0,7.641309814E0,2.666255493E0,-1.916015625E-2,8.093139140E0
8.666348417E0,6.699767761E0,2.798280945E0,-7.259902954E-2,7.261028503E0
8.676356417E0,5.498815155E0,3.535497894E0,5.269042969E-2,6.537544627E0
8.686365417E0,4.580474854E0,4.304748230E0,1.290316772E-1,6.287150100E0
8.696373417E0,3.999233551E0,4.708907776E0,1.534309387E-1,6.179904731E0
8.706381417E0,3.540287933E0,4.847818909E0,-3.637435913E-2,6.003025064E0
8.716390417E0,3.046464844E0,4.814737701E0,-2.567161560E-1,5.703380608E0
8.726398417E0,2.487377472E0,4.646637268E0,-3.603007507E-1,5.282811867E0
8.736407417E0,1.859433289E0,4.470004578E0,-2.189945984E-1,4.846276067E0
8.746415417E0,1.260079651E0,4.329596558E0,4.363426208E-1,4.530298220E0
8.756424417E0,7.264393616E-1,4.226610718E0,1.452279968E0,4.527810664E0
8.766432417E0,4.828958130E-1,4.199816437E0,2.206112366E0,4.768498531E0
8.776441417E0,5.656736755E-1,4.227808228E0,2.842588806E0,5.125881411E0
8.786449417E0,8.893006897E-1,4.268523560E0,3.463497620E0,5.568389790E0
8.796458417E0,1.362915802E0,4.180057526E0,4.054917755E0,5.981034894E0
8.806466417E0,1.991009674E0,4.005969543E0,4.585115204E0,6.405871755E0
8.816474417E0,2.820434875E0,3.896098022E0,5.060227203E0,6.981427650E0
8.826483417E0,3.839515686E0,4.104464722E0,5.546116791E0,7.896070087E0
8.836491417E0,4.908442841E0,4.815785522E0,6.527775421E0,9.481374018E0
8.846500417E0,6.044729919E0,5.926775208E0,8.037386169E0,1.167326007E1
8.856508417E0,7.347171478E0,7.201224976E0,1.007599686E1,1.440014870E1
8.866517417E0,8.577014008E0,8.423433380E0,1.224977646E1,1.716322879E1
8.876525417E0,9.320966949E0,9.466314697E0,1.311827042E1,1.867031220E1
8.886534417E0,9.318422241E0,9.986333313E0,1.191716812E1,1.812674108E1
8.896542417E0,8.687334595E0,9.657766571E0,9.647138672E0,1.618052910E1
8.906551417E0,7.559729462E0,8.842561798E0,7.651189270E0,1.392411957E1
8.916559417E0,6.417754211E0,7.734266510E0,5.931116180E0,1.166981520E1
8.926568417E0,5.416785736E0,6.439159698E0,4.185895386E0,9.398194801E0
8.936576417E0,4.451443176E0,5.055886230E0,2.931204529E0,7.346379511E0
8.946584417E0,3.562741241E0,3.832929382E0,2.783910828E0,5.927447368E0
8.956593417E0,3.121009827E0,3.320544891E0,3.327879639E0,5.642827625E0
8.966601417E0,3.433859253E0,4.410727844E0,4.027075653E0,6.889357575E0
8.976610417E0,4.607568512E0,6.661597137E0,4.420307922E0,9.227442015E0
8.986618417E0,6.139632568E0,8.952283630E0,4.051774292E0,1.158686089E1
8.996627417E0,7.996820526E0,1.143621826E1,3.265609131E0,1.433179785E1
9.006635417E0,1.032627640E1,1.465796860E1,1.685494995E0,1.800913438E1
9.016644417E0,1.333007996E1,1.908156967E1,-1.147064667E0,2.330478685E1
9.026652417E0,1.257834320E1,2.167597458E1,-5.117857361E-1,2.506640214E1
9.036661417E0,6.522835693E0,1.845871490E1,3.035687256E0,1.981128311E1
9.046669417E0,1.643432465E0,1.157363251E1,3.535647583E0,1.221272466E1
9.056678417E0,-6.451583862E-2,6.847061462E0,9.482780457E-1,6.912716124E0
9.066686417E0,-4.577481079E-1,4.484524384E0,-1.384620667E0,4.715683054E0
9.076695417E0,-4.233197021E-1,2.538870392E0,-2.014810181E0,3.268718786E0
9.086703417E0,2.448907471E-1,7.990383911E-1,-1.544188843E0,1.755833993E0
9.096711417E0,2.308649139E0,1.341210938E-1,-1.294508057E0,2.650207619E0
9.106720417E0,4.639452209E0,1.224304047E0,-3.272195435E0,5.807813716E0
9.116728417E0,6.179449768E0,3.129392395E0,-6.199358368E0,9.295737753E0
9.126736917E0,7.372019806E0,5.088368683E0,-7.596403198E0,1.174493565E1
9.136744917E0,8.554111633E0,6.988367615E0,-6.976691895E0,1.306462160E1
9.146753917E0,9.111851807E0,8.618328094E0,-4.275708618E0,1.325077759E1
9.156761917E0,9.530830536E0,9.777667236E0,-1.072220306E0,1.369631935E1
9.166770917E0,9.950557709E0,1.047327072E1,2.558180237E0,1.467130820E1
9.176778917E0,9.696386261E0,1.034708313E1,5.234913940E0,1.511576527E1
9.186787917E0,8.325087891E0,9.634265442E0,5.589526520E0,1.390571702E1
9.196795917E0,6.027066650E0,9.204060059E0,4.659360809E0,1.194779884E1
9.206804917E0,4.379742279E0,8.863667908E0,2.727478180E0,1.025601718E1
9.216812917E0,4.029021606E0,8.341254272E0,-4.002676392E-1,9.271987496E0
9.226820917E0,4.815037079E0,8.386011200E0,-3.171454926E0,1.017683115E1
9.236829917E0,5.848787384E0,8.709787903E0,-4.365072784E0,1.136321168E1
9.246837917E0,6.473737793E0,8.651858368E0,-4.177063751E0,1.158498148E1
9.256846917E0,6.402485962E0,8.134833527E0,-3.294648743E0,1.086379553E1
9.266854917E0,6.204896851E0,7.416028290E0,-1.839524689E0,9.842869074E0
9.276863917E0,6.114933929E0,6.546636200E0,1.411564636E-1,8.959396612E0
9.286871917E0,6.008355560E0,5.747148743E0,1.835632782E0,8.514669866E0
9.296880917E0,5.921536102E0,5.404062195E0,2.345921631E0,8.352953149E0
9.306888917E0,5.910908203E0,5.433700562E0,1.656156006E0,8.197974768E0
9.316897917E0,6.126459961E0,5.613177338E0,3.867956543E-1,8.318105695E0
9.326905917E0,6.503675537E0,5.884113922E0,-9.162446594E-1,8.818168541E0
9.336914917E0,6.859785004E0,5.964197388E0,-1.812281342E0,9.268908481E0
9.346922917E0,7.118746490E0,5.894891510E0,-2.094444580E0,9.476971859E0
9.356930917E0,7.163802795E0,5.652994537E0,-1.658700714E0,9.275112171E0
9.366939917E0,6.939569092E0,5.434748383E0,-5.376818848E-1,8.830810324E0
9.376947917E0,6.593488770E0,5.415737915E0,7.490423584E-1,8.565359057E0
9.386956917E0,6.200705566E0,5.610932007E0,1.501826935E0,8.496281048E0
9.396964917E0,5.857619019E0,5.993985443E0,1.351988525E0,8.489254092E0
9.406973917E0,5.688470764E0,6.372248840E0,1.040635986E0,8.605067006E0
9.416981917E0,5.790109406E0,6.599775696E0,8.090675354E-1,8.816858649E0
9.426990917E0,6.035149841E0,6.834038544E0,3.731739807E-1,9.125041109E0
9.436998917E0,6.342610474E0,7.095993805E0,-1.731898499E-1,9.519024657E0
9.447007917E0,6.470294952E0,7.570507050E0,-6.268963623E-1,9.978491510E0
9.457015917E0,6.649771729E0,8.371192017E0,-1.399439850E0,1.078214968E1
9.467024917E0,7.272327118E0,8.570876770E0,-5.745053101E-1,1.125507560E1
9.477032917E0,7.965236206E0,8.216713257E0,6.216572571E-1,1.146062050E1
9.487041917E0,8.712332611E0,7.469467163E0,-3.140469360E-1,1.148025717E1
9.497049917E0,9.349407806E0,6.700216827E0,-1.981728973E0,1.167182855E1
9.507057917E0,9.698481903E0,6.178252258E0,-2.438578949E0,1.175491469E1
9.517066917E0,9.963730316E0,5.763315125E0,-1.230441284E0,1.157608348E1
9.527074917E0,1.026131149E1,5.332660675E0,6.256988525E-1,1.158116067E1
9.537083917E0,1.043779449E1,5.081183624E0,9.581575012E-1,1.164834953E1
9.547091917E0,1.091170898E1,5.209317169E0,-7.333250427E-1,1.211363463E1
9.557100917E0,1.146974854E1,5.545817413E0,-2.277813263E0,1.294216580E1
9.567108917E0,1.189651108E1,6.377338257E0,-2.440674591E0,1.371693521E1
9.577117917E0,1.214933533E1,8.071814575E0,-1.706601105E0,1.468581039E1
9.587125917E0,1.224079514E1,9.837393036E0,-8.062234497E-1,1.572454653E1
9.597134917E0,1.212583420E1,1.039378601E1,8.277786255E-2,1.597102047E1
9.607142917E0,1.158126663E1,1.023346939E1,7.274871826E-2,1.545493206E1
9.617151917E0,1.039228912E1,9.971364441E0,-2.109114075E-1,1.440389759E1
9.627159917E0,8.956175537E0,9.696685638E0,5.882766724E-2,1.320008535E1
9.637167917E0,7.756420441E0,9.693093109E0,8.954379272E-1,1.244668314E1
9.647176917E0,6.888974304E0,9.858948212E0,1.736089783E0,1.215198891E1
9.657184917E0,6.389912109E0,1.003019211E1,2.021097107E0,1.206319046E1
9.667193917E0,6.378835144E0,1.004471191E1,1.460812225E0,1.198831713E1
9.677201917E0,6.581064606E0,9.890532532E0,5.333409119E-1,1.189190891E1
9.687210917E0,6.613846436E0,9.853559418E0,-4.944218445E-1,1.187771236E1
9.697218917E0,6.423292694E0,1.032043854E1,-1.432371368E0,1.224017273E1
9.707227917E0,6.047723694E0,1.123473724E1,-2.073039093E0,1.292639833E1
9.717235917E0,5.540278931E0,1.221250397E1,-2.510130157E0,1.364333893E1
9.727244917E0,5.124293976E0,1.305195831E1,-2.507136383E0,1.424421768E1
9.737252917E0,5.257966003E0,1.348889969E1,-2.000739441E0,1.461504634E1
9.747261917E0,5.978717194E0,1.289673111E1,-1.505718842E0,1.429468159E1
9.757269917E0,6.540498962E0,1.142783569E1,-1.421444092E0,1.324364220E1
9.767278917E0,6.850204926E0,9.721683655E0,-1.313219147E0,1.196498998E1
9.777286917E0,7.095844116E0,8.121511230E0,-8.746311951E-1,1.082011683E1
9.787294917E0,7.486531677E0,6.674769745E0,-2.390528870E-1,1.003283878E1
9.797303917E0,7.895630951E0,5.458997955E0,7.699987793E-1,9.629877720E0
9.807311917E0,8.119265900E0,4.499792633E0,1.949096832E0,9.485230148E0
9.817320917E0,8.322543182E0,3.572920074E0,3.031945038E0,9.551082326E0
9.827328917E0,8.087382202E0,3.563938751E0,3.096909943E0,9.364734994E0
9.837337917E0,7.263046417E0,3.804338837E0,2.313439178E0,8.519204075E0
9.847345917E0,6.755901031E0,4.033512268E0,1.293160858E0,7.973937858E0
9.857354917E0,6.262527008E0,4.271667023E0,3.234773254E-1,7.587557002E0
9.867362917E0,5.621260529E0,4.273014221E0,-4.581971741E-1,7.075815509E0
9.877371917E0,4.701722717E0,4.167932739E0,-6.759942627E-1,6.319400927E0
9.887379917E0,3.613635406E0,4.144880676E0,-4.076023865E-1,5.514030865E0
9.897388917E0,2.688708801E0,4.299658813E0,-3.483256531E-1,5.083065187E0
9.907396917E0,1.931732941E0,4.442162476E0,-3.878434753E-1,4.859508429E0
9.917405917E0,1.213676147E0,4.390519867E0,-2.254312134E-1,4.560755828E0
9.927413917E0,5.942642212E-1,4.253704376E0,5.239105225E-3,4.295017850E0
9.937421917E0,1.514849854E-1,4.073479156E0,2.893482971E-1,4.086551428E0
9.947430917E0,-3.487747192E-2,3.896098022E0,5.676196289E-1,3.937383431E0
9.957438917E0,-7.828720093E-2,3.796854401E0,1.132844238E0,3.963025144E0
9.967447917E0,2.409988403E-2,3.794609070E0,1.937421112E0,4.260661846E0
9.977455917E0,3.089575195E-1,3.862418060E0,2.823428650E0,4.794317195E0
9.987464917E0,8.939410400E-1,4.034859467E0,3.793860626E0,5.610044559E0
9.997472917E0,1.967508545E0,4.433929596E0,4.797074432E0,6.822224318E0
1.000748192E1,3.465443573E0,5.026547241E0,5.898933105E0,8.489575261E0
1.001748992E1,5.246439972E0,5.795198822E0,7.344776459E0,1.072637884E1
1.002749892E1,7.254514160E0,6.700067139E0,9.117839355E0,1.344075407E1
1.003750692E1,9.342372437E0,7.578739929E0,1.138472534E1,1.656288600E1
1.004751592E1,1.087713089E1,8.382418671E0,1.331406326E1,1.912697571E1
1.005752392E1,1.126512405E1,9.082961884E0,1.404334671E1,2.016479118E1
1.006753292E1,1.033151550E1,9.214687958E0,1.327828766E1,1.918237759E1
1.007754092E1,8.723559265E0,8.496481476E0,1.195099777E1,1.706215202E1
1.008754892E1,7.008725281E0,7.179669800E0,1.044393173E1,1.448259640E1
1.009755792E1,5.569019165E0,5.744005280E0,7.758366394E0,1.114449731E1
1.010756592E1,4.647535400E0,4.788991241E0,4.419559479E0,8.004156945E0
1.011757492E1,4.220772858E0,5.276078339E0,2.163151703E0,7.094445112E0
1.012758367E1,4.947212219E0,7.186405792E0,2.122286682E0,8.979055502E0
1.013759267E1,7.470514984E0,9.876162415E0,3.136727142E0,1.277443679E1
1.014760067E1,1.109043732E1,1.280452286E1,3.973936157E0,1.739959120E1
1.015760967E1,1.318772598E1,1.479867599E1,2.399809570E0,1.996687291E1
1.016761767E1,1.204170914E1,1.619991211E1,-3.989204407E-1,2.018908242E1
1.017762667E1,8.141569519E0,1.669014267E1,1.041983185E0,1.859924046E1
1.018763467E1,2.977308655E0,1.412013702E1,2.694696350E0,1.468005534E1
1.019764367E1,-4.358935547E-1,9.357191620E0,1.799258423E0,9.538572696E0
1.020765167E1,-1.746717682E0,5.501659241E0,7.071295166E-1,5.815437147E0
1.021765967E1,-2.192490692E0,3.650159454E0,6.384223938E-1,4.305608276E0
1.022766867E1,-1.703158264E0,2.516566772E0,1.136885834E0,3.244436129E0
1.023767667E1,4.831951904E-1,1.691482544E0,1.582958221E0,2.366505339E0
1.024768567E1,3.486699371E0,2.247576141E0,6.286926270E-3,4.148338287E0
1.025769367E1,5.452261963E0,4.014501801E0,-3.466491394E0,7.606572671E0
1.026770267E1,6.576274567E0,6.211632843E0,-7.162305908E0,1.153821458E1
1.027771067E1,7.703430634E0,8.273145905E0,-9.088051300E0,1.450449803E1
1.028771967E1,8.942853241E0,9.740544434E0,-9.080417175E0,1.604078570E1
1.029772767E1,1.010398865E1,1.066487228E1,-6.867119751E0,1.621688691E1
1.030773667E1,1.183304306E1,1.022837997E1,7.791297913E-1,1.566038659E1
1.031774467E1,1.323936859E1,8.612190857E0,7.138655090E0,1.733237169E1
1.032775367E1,1.269031036E1,7.210505676E0,5.477409668E0,1.558965638E1
1.033776167E1,1.102816681E1,5.651946716E0,2.968776398E0,1.274278612E1
1.034777067E1,9.036558380E0,4.436474304E0,1.033450928E0,1.011976840E1
1.035777867E1,7.287295990E0,4.105213165E0,-4.700225830E-1,8.377253679E0
1.036778767E1,5.814508667E0,5.497168579E0,-1.070274353E0,8.072970991E0
1.037779567E1,5.022805023E0,7.559430084E0,-7.168592834E-1,9.104253991E0
1.038780367E1,5.068310394E0,8.793613586E0,-6.777905273E-1,1.017225689E1
1.039781267E1,5.653144226E0,9.012009430E0,-1.699116669E0,1.077317739E1
1.040782067E1,6.037694550E0,8.672515411E0,-2.695594482E0,1.090561821E1
1.041782967E1,5.971532135E0,8.281229095E0,-2.844983826E0,1.059867371E1
1.042783767E1,5.674549713E0,7.846233673E0,-2.235451355E0,9.937863959E0
1.043784667E1,5.294340363E0,7.203919373E0,-1.064286804E0,9.003288322E0
1.044785467E1,4.947511597E0,6.504124603E0,8.741821289E-2,8.172462897E0
1.045786367E1,4.713398438E0,5.953419800E0,8.493338013E-1,7.640726408E0
1.046787167E1,4.697980499E0,5.637426910E0,9.174421692E-1,7.395492078E0
1.047788067E1,4.989125061E0,5.558391266E0,1.715432739E-1,7.471044735E0
1.048788867E1,5.493875427E0,5.682632904E0,-8.316705322E-1,7.947745580E0
1.049789767E1,5.983058167E0,5.913153534E0,-1.487456818E0,8.542534608E0
1.050790567E1,6.392756195E0,6.122867432E0,-1.824106750E0,9.037931334E0
1.051791467E1,6.582262115E0,6.420747986E0,-1.731748810E0,9.356876252E0
1.052792267E1,6.567592621E0,6.618187408E0,-1.193019104E0,9.399838934E0
1.053793067E1,6.402336273E0,6.531966705E0,-6.164181519E-1,9.167140783E0
1.054793967E1,6.280190277E0,6.339766388E0,-3.300636292E-1,8.929858329E0
1.055794767E1,6.219865723E0,6.150859222E0,-2.225871277E-1,8.750391066E0
1.056795667E1,6.182742920E0,6.136040039E0,-1.956431580E-1,8.712954357E0
1.057796467E1,6.219416656E0,6.297554169E0,-8.801696777E-2,8.851445026E0
1.058797367E1,6.398144989E0,6.576723633E0,1.347198486E-3,9.175486628E0
1.059798167E1,6.655609589E0,7.019652557E0,-1.026864624E-1,9.673841302E0
1.060799067E1,6.912325745E0,7.497159576E0,-4.412823486E-1,1.020697698E1
1.061799867E1,7.151528320E0,7.863597565E0,-8.973838806E-1,1.066704372E1
1.062800767E1,7.407346344E0,8.041876831E0,-1.362915802E0,1.101808070E1
1.063801567E1,7.769892426E0,7.721393280E0,-1.570534058E0,1.106606162E1
1.064802467E1,8.237819366E0,7.026987305E0,-1.576671295E0,1.094194274E1
1.065803267E1,8.702453156E0,6.467151489E0,-1.472787323E0,1.094193044E1
1.066804167E1,9.117839355E0,6.092181244E0,-1.256786499E0,1.103762561E1
1.067804967E1,9.457183685E0,5.916746063E0,-8.445437622E-1,1.118746895E1
1.068805867E1,9.665550385E0,5.987848206E0,-4.309538269E-1,1.137817699E1
1.069806667E1,9.767937469E0,6.094875641E0,-4.065545654E-1,1.152065094E1
1.070807567E1,9.752818909E0,6.122717743E0,-9.488768005E-1,1.155445872E1
1.071808367E1,9.881251831E0,6.080206146E0,-1.466500397E0,1.169438617E1
1.072809167E1,1.012868729E1,5.959107971E0,-1.835932159E0,1.189419694E1
1.073810067E1,1.039857605E1,6.048771515E0,-2.086960144E0,1.220956278E1
1.074810867E1,1.066891388E1,6.518045654E0,-2.096240845E0,1.267694238E1
1.075811767E1,1.105256607E1,7.483238525E0,-2.060165863E0,1.350564175E1
1.076812567E1,1.142529099E1,8.598419495E0,-1.717678070E0,1.440210088E1
1.077813467E1,1.148561554E1,9.388027496E0,-1.012644196E0,1.486875492E1
1.078814267E1,1.123383911E1,9.633966064E0,-2.874023438E-1,1.480185946E1
1.079815167E1,1.026879593E1,9.702224121E0,2.398013306E-1,1.412936047E1
1.080815967E1,9.056616669E0,9.745035095E0,5.914201355E-1,1.331682366E1
1.081816867E1,8.078550568E0,1.004156845E1,1.043180695E0,1.292997688E1
1.082817667E1,7.239096222E0,1.036085449E1,1.682650909E0,1.275080915E1
1.083818567E1,6.628815308E0,1.049991531E1,1.911824341E0,1.256361756E1
1.084819367E1,6.240223389E0,1.049796936E1,1.749561768E0,1.233728961E1
1.085820267E1,6.295159149E0,1.020862106E1,1.453627167E0,1.208130807E1
1.086821067E1,6.743177490E0,9.711654510E0,6.453080750E-1,1.184073893E1
1.087821867E1,7.095544739E0,9.449399872E0,-9.412426758E-1,1.185427564E1
1.088822767E1,6.985673218E0,9.585167542E0,-2.528841248E0,1.212724640E1
1.089823567E1,6.704408112E0,1.008452911E1,-3.370840302E0,1.257017820E1
1.090824467E1,6.431076508E0,1.064316742E1,-3.642675018E0,1.295780996E1
1.091825267E1,6.374194794E0,1.126542343E1,-3.914360046E0,1.352266020E1
1.092826167E1,6.442602539E0,1.166748734E1,-4.245022430E0,1.398776621E1
1.093826967E1,6.854096832E0,1.129146927E1,-3.936214600E0,1.378294987E1
1.094827867E1,7.503147125E0,1.006806335E1,-1.163081360E0,1.261014967E1
1.095828667E1,7.810009003E0,8.719517670E0,9.125024414E-1,1.174133254E1
1.096829567E1,8.050409088E0,7.504194946E0,1.083896027E0,1.105879102E1
1.097830367E1,8.361312561E0,6.371051331E0,1.092577972E0,1.056861246E1
1.098831267E1,8.519832916E0,5.568270721E0,1.722168732E0,1.032274464E1
1.099832067E1,8.491990814E0,4.729415131E0,2.754272461E0,1.010283585E1
1.100832967E1,8.451574860E0,4.220323792E0,3.348386993E0,1.002257182E1
1.101833767E1,7.889493713E0,4.062851257E0,2.615511017E0,9.251581988E0
1.102834667E1,7.017257538E0,4.041146393E0,1.088087311E0,8.170477435E0
1.103835467E1,6.459667053E0,4.095932465E0,-1.591191101E-1,7.650443130E0
1.104836267E1,5.924529877E0,4.015998688E0,-9.824070740E-1,7.224501601E0
1.105837167E1,5.306764526E0,3.930825806E0,-1.223555603E0,6.716414934E0
1.106837967E1,4.556225281E0,4.099524994E0,-9.922865295E-1,6.208858715E0
1.107838867E1,3.878135376E0,4.521198120E0,-7.150630188E-1,5.999373430E0
1.108839667E1,3.269950104E0,4.938829651E0,-5.149291992E-1,5.945566759E0
1.109840567E1,2.591111755E0,5.226681061E0,-3.037184143E-1,5.841600801E0
1.110841367E1,1.881886597E0,5.345833282E0,-1.067280579E-1,5.668405554E0
1.111842267E1,1.238524475E0,5.309758301E0,9.175918579E-2,5.453062977E0
1.112843004E1,6.706054688E-1,5.231321411E0,4.941224670E-1,5.297224973E0
1.113843904E1,3.359014893E-1,5.074896698E0,1.193917236E0,5.224255418E0
1.114844704E1,1.962419128E-1,4.981790314E0,1.986219635E0,5.366732158E0
1.115845604E1,2.856060791E-1,5.005590820E0,2.829116821E0,5.756857848E0
1.116846404E1,6.712042236E-1,5.044958954E0,3.737727356E0,6.314485865E0
1.117847304E1,1.419348450E0,5.066364441E0,4.477938080E0,6.909017884E0
1.118848104E1,2.567910004E0,5.235961761E0,5.005740509E0,7.685499034E0
1.119849004E1,3.881727905E0,5.512736206E0,5.655090179E0,8.799893008E0
1.120849804E1,5.266049194E0,5.809868317E0,6.508166199E0,1.019029299E1
1.121850704E1,6.662345581E0,6.084996185E0,7.530839539E0,1.175276867E1
1.122851504E1,7.929909668E0,6.350244598E0,8.640182648E0,1.333648492E1
1.123852304E1,8.893306274E0,6.600973206E0,9.850266266E0,1.482199343E1
1.124853204E1,9.289831696E0,6.667584686E0,1.112217133E1,1.595181349E1
1.125854004E1,9.266929321E0,6.477629700E0,1.178229858E1,1.632967316E1
1.126854904E1,9.172026672E0,6.081403656E0,1.123533600E1,1.572712048E1
1.127855704E1,8.878187714E0,5.557942200E0,9.493258667E0,1.413629721E1
1.128856604E1,8.408165131E0,4.779860229E0,7.412735138E0,1.218576821E1
1.129857404E1,8.080346832E0,4.078269196E0,5.577401733E0,1.063163650E1
1.130858304E1,8.018824768E0,4.138444061E0,4.649331665E0,1.015108639E1
1.131859104E1,8.671467590E0,5.363795929E0,4.593198395E0,1.118311801E1
1.132860004E1,1.048315018E1,7.405250702E0,4.940176849E0,1.375280055E1
1.133860804E1,1.316033295E1,1.011371841E1,5.315296783E0,1.742796727E1
1.134861704E1,1.552092407E1,1.254241791E1,4.173620911E0,2.038701652E1
1.135862504E1,1.486977814E1,1.399634445E1,3.347039795E-1,2.042351553E1
1.136863404E1,1.105945175E1,1.527333893E1,-2.164349213E0,1.898079984E1
1.137864204E1,4.926255798E0,1.454555237E1,-1.879192200E0,1.547166614E1
1.138865104E1,-5.481600952E-1,1.089913513E1,-1.244961090E0,1.098369493E1
1.139865904E1,-2.828368378E0,7.542814636E0,-8.487350464E-1,8.100251323E0
1.140866704E1,-3.818409576E0,6.015091553E0,-2.374063110E-1,7.128670271E0
1.141867604E1,-4.542453918E0,5.411995697E0,1.563798065E0,7.236646282E0
1.142868404E1,-3.948189697E0,4.726720734E0,4.386777649E0,7.561343063E0
1.143869304E1,-6.200106812E-1,3.218457184E0,5.406906281E0,6.322777508E0
1.144870104E1,3.551963654E0,3.118914185E0,2.049088898E0,5.151974068E0
1.145871004E1,5.266348572E0,4.900509338E0,-3.398233337E0,7.955966872E0
1.146871804E1,5.779032440E0,6.698570251E0,-8.342302094E0,1.215985459E1
1.147872704E1,6.685697021E0,7.982749786E0,-1.032448013E1,1.466348283E1
1.148873504E1,7.836054840E0,9.091344452E0,-1.044003983E1,1.590756835E1
1.149874404E1,8.780890045E0,1.002345612E1,-9.070088654E0,1.611955988E1
1.150875204E1,1.000489471E1,1.019604721E1,-1.916015625E0,1.441278644E1
1.151876104E1,1.206416245E1,9.166937256E0,9.191785583E0,1.772189822E1
1.152876904E1,1.238494537E1,7.972271576E0,8.140821075E0,1.682905089E1
1.153877804E1,1.165626068E1,6.320606232E0,3.879033508E0,1.381540362E1
1.154878604E1,1.014664993E1,5.068609772E0,9.051676941E-1,1.137825287E1
1.155879504E1,8.035889282E0,4.937931519E0,-3.378474426E-1,9.437840067E0
1.156880304E1,6.366111603E0,6.420298920E0,-8.973838806E-1,9.085863359E0
1.157881204E1,5.911057892E0,8.173004150E0,-1.515298920E0,1.019974181E1
1.158882004E1,5.702840881E0,8.990154877E0,-1.732347565E0,1.078639453E1
1.159882804E1,5.915548553E0,9.000633087E0,-2.092798004E0,1.097200593E1
1.160883704E1,6.148314514E0,8.430169373E0,-2.396217041E0,1.070567061E1
1.161884504E1,6.168073425E0,7.711962891E0,-2.165397034E0,1.010981927E1
1.162885404E1,6.077212372E0,7.084916840E0,-1.392404480E0,9.437549845E0
1.163886204E1,5.883515167E0,6.460714874E0,-4.110452271E-1,8.747888064E0
1.164887104E1,5.643863525E0,5.945186920E0,1.887574768E-1,8.199638553E0
1.165887904E1,5.530998230E0,5.690865784E0,3.478765869E-1,7.943482417E0
1.166888804E1,5.531896362E0,5.525160370E0,3.565585327E-1,7.826647332E0
1.167889604E1,5.741759949E0,5.438939667E0,2.112107849E-1,7.911667460E0
1.168890504E1,6.092330933E0,5.460494843E0,-7.155120850E-2,8.181602514E0
1.169891304E1,6.458768921E0,5.727838898E0,-3.993695068E-1,8.641951771E0
1.170892204E1,6.770869904E0,5.989644470E0,-5.671705627E-1,9.057715086E0
1.171893004E1,7.007677460E0,6.143674164E0,-6.102809143E-1,9.339417455E0
1.172893904E1,7.071444855E0,6.203849030E0,-6.840774536E-1,9.431915875E0
1.173894704E1,6.974147186E0,6.183042297E0,-8.170010376E-1,9.356079934E0
1.174895604E1,6.815028076E0,6.087690582E0,-8.491841125E-1,9.177455963E0
1.175896404E1,6.648723907E0,6.082451477E0,-6.607260132E-1,9.035391770E0
1.176897304E1,6.524781647E0,6.076014862E0,-3.134481812E-1,8.921265712E0
1.177898104E1,6.445596313E0,6.094426575E0,8.532257080E-2,8.871021759E0
1.178898904E1,6.403234406E0,6.197861481E0,4.403842163E-1,8.922378385E0
1.179899804E1,6.494544525E0,6.348747711E0,5.638774109E-1,9.099651852E0
1.180900604E1,6.810986481E0,6.488856354E0,1.350192261E-1,9.408136043E0
1.181901504E1,7.326664124E0,6.700216827E0,-6.987469482E-1,9.952947303E0
1.182902304E1,7.888595581E0,6.949149170E0,-9.759704590E-1,1.055808376E1
1.183903204E1,8.489446106E0,6.981182556E0,-5.852828979E-1,1.100682339E1
1.184904004E1,8.803792419E0,6.799610138E0,-5.598358154E-1,1.113799242E1
1.185904904E1,8.968150635E0,6.478677521E0,-1.149759064E0,1.112308114E1
1.186905704E1,9.226812744E0,6.068231049E0,-1.622176666E0,1.116194242E1
1.187906604E1,9.528435516E0,5.717510376E0,-1.451681213E0,1.120662245E1
1.188907404E1,9.719138947E0,5.449268188E0,-7.899073792E-1,1.117050309E1
1.189908304E1,9.919721832E0,5.150938568E0,-2.335144043E-1,1.117978436E1
1.190909104E1,1.034229309E1,4.914879456E0,-8.175997925E-1,1.147987525E1
1.191910004E1,1.088820786E1,5.000950470E0,-1.996548157E0,1.214696589E1
1.192910804E1,1.154938293E1,5.385650482E0,-2.717598724E0,1.302992019E1
1.193911704E1,1.222313187E1,6.213878174E0,-2.539020081E0,1.394502985E1
1.194912504E1,1.261845978E1,7.407346344E0,-1.547781372E0,1.471359692E1
1.195913404E1,1.253134094E1,8.487649841E0,-3.844006348E-1,1.514009476E1
1.196914204E1,1.195473999E1,8.856333160E0,1.751358032E-2,1.487786114E1
1.197915104E1,1.099792969E1,8.605754242E0,-4.087998962E-1,1.397070438E1
1.198915904E1,9.961784363E0,8.420439606E0,-2.829116821E-2,1.304383959E1
1.199916704E1,8.477171631E0,8.954229584E0,1.315015411E0,1.240040047E1
1.200917604E1,7.152875519E0,9.605674896E0,2.535726929E0,1.224183522E1
1.201918404E1,6.189628601E0,9.936936035E0,3.671265564E0,1.226916423E1
1.202919304E1,6.022426300E0,9.889035645E0,3.556304626E0,1.211238817E1
1.203920104E1,6.307583313E0,9.851763153E0,2.010169830E0,1.186944090E1
1.204921004E1,6.527925110E0,1.002929398E1,2.570155334E-1,1.196940270E1
1.205921804E1,6.719526672E0,1.017838394E1,-9.818083191E-1,1.223582796E1
1.206922704E1,6.732549591E0,1.061607376E1,-2.023492126E0,1.273274387E1
1.207923504E1,6.588099976E0,1.137215149E1,-2.828368378E0,1.344353222E1
1.208924404E1,6.360872498E0,1.197135544E1,-3.178490295E0,1.392396677E1
1.209925204E1,6.353238373E0,1.244811401E1,-3.350332947E0,1.437163565E1
1.210926104E1,6.741680603E0,1.275273056E1,-2.918630676E0,1.471736386E1
1.211926904E1,7.490573273E0,1.231953140E1,-1.335971832E0,1.447979153E1
1.212927842E1,8.025261383E0,1.105091949E1,-3.637435913E-1,1.366235526E1
1.213928642E1,8.181686096E0,9.729617157E0,-4.044589233E-1,1.271884525E1
1.214929542E1,8.182883606E0,8.512797546E0,-7.276368713E-1,1.183033227E1
1.215930342E1,8.349337463E0,7.123686218E0,-3.486250305E-1,1.098088707E1
1.216931242E1,8.418343964E0,5.649102631E0,1.025068359E0,1.018978119E1
1.217932042E1,8.308173065E0,4.486470337E0,2.750979309E0,9.834736546E0
1.218932942E1,8.071515198E0,3.951333160E0,3.949087830E0,9.816195089E0
1.219933742E1,7.716154175E0,3.719465332E0,3.894301758E0,9.409518786E0
1.220934542E1,7.391928406E0,3.833378448E0,2.702031097E0,8.754220007E0
1.221935442E1,7.028633881E0,3.980372772E0,1.057850189E0,8.146416921E0
1.222936242E1,6.526727600E0,3.968547363E0,-5.304968262E-1,7.656955545E0
1.223937142E1,5.920937347E0,3.871848450E0,-1.609004059E0,7.255177706E0
1.224937942E1,5.138364716E0,3.633094940E0,-1.751208344E0,6.532143711E0
1.225938842E1,4.268074493E0,3.553011475E0,-1.515149231E0,5.756390155E0
1.226939642E1,3.472329254E0,3.658691711E0,-1.412911835E0,5.238264535E0
1.227940542E1,2.803370361E0,3.704945526E0,-1.320703583E0,4.830089511E0
1.228941342E1,2.333946533E0,3.732787628E0,-1.203946381E0,4.564043907E0
1.229942242E1,2.041305084E0,3.803889771E0,-8.469387817E-1,4.399296436E0
1.230943042E1,1.910626831E0,3.917802887E0,-2.601589966E-1,4.366618492E0
1.231943942E1,1.850152588E0,4.088298340E0,3.420387268E-1,4.500470909E0
1.232944742E1,1.844015350E0,4.229604492E0,9.846524048E-1,4.717996093E0
1.233945642E1,1.970053253E0,4.295317841E0,1.833537140E0,5.068799031E0
1.234946442E1,2.168390808E0,4.278702393E0,2.890189819E0,5.600215179E0
1.235947342E1,2.599344635E0,4.219275970E0,3.915856934E0,6.316076137E0
1.236948142E1,3.508703613E0,4.248165894E0,4.765340424E0,7.284667725E0
1.237949042E1,4.880600739E0,4.699178009E0,5.405259705E0,8.667143128E0
1.238949842E1,6.553821259E0,5.812113647E0,6.141728210E0,1.069832059E1
1.239950742E1,8.494685211E0,7.330705719E0,7.449109497E0,1.346804201E1
1.240951542E1,1.022942780E1,8.963809662E0,9.762099609E0,1.674185370E1
1.241952342E1,1.092039093E1,1.025786865E1,1.249032623E1,1.950607743E1
1.242953242E1,1.030322433E1,1.050500473E1,1.333277435E1,1.985634478E1
1.243954042E1,8.985664215E0,9.634564819E0,1.188079376E1,1.774035685E1
1.244954942E1,7.524851990E0,8.012687531E0,9.512568512E0,1.453669559E1
1.245955742E1,6.262527008E0,6.158942413E0,6.854994965E0,1.114193754E1
1.246956642E1,5.385500793E0,4.405788116E0,4.295018463E0,8.176904752E0
1.247957442E1,4.893324280E0,2.817291412E0,2.057920532E0,6.009724646E0
1.248958342E1,4.846322021E0,1.741328888E0,5.101391602E-1,5.174872500E0
1.249959142E1,5.125491486E0,1.596430206E0,2.612068176E-1,5.374707562E0
1.250960042E1,5.910758514E0,2.689906311E0,1.388213196E0,6.640767881E0
1.251960842E1,7.082372131E0,4.769831085E0,2.994971924E0,9.048819835E0
1.252961742E1,8.648265839E0,6.996600494E0,3.907923431E0,1.179053799E1
1.253962542E1,1.069735474E1,9.231902161E0,4.321363678E0,1.477618354E1
1.254963442E1,1.285257294E1,1.173080566E1,3.589535522E0,1.776753213E1
1.255964242E1,1.461710358E1,1.468551132E1,1.622925110E0,2.078359559E1
1.256965142E1,1.464958603E1,1.721764572E1,3.318598938E-1,2.260902090E1
1.257965942E1,1.159533737E1,1.734413269E1,6.084846497E-1,2.087201574E1
1.258966842E1,6.525979156E0,1.468191879E1,1.315314789E0,1.612070707E1
1.259967642E1,1.949845276E0,1.037073395E1,1.359023895E0,1.063959422E1
1.260968542E1,5.583389282E-2,7.538174286E0,-1.145118713E-1,7.539250756E0
1.261969342E1,-1.788780212E-1,5.967939606E0,-2.116748199E0,6.334739412E0
1.262970142E1,-2.847079468E-1,4.312831421E0,-3.317700806E0,5.448734910E0
1.263971042E1,2.230361938E-2,3.163820801E0,-2.834056549E0,4.247603564E0
1.264971842E1,1.280736694E0,2.508932648E0,-1.851649475E0,3.370999153E0
1.265972742E1,3.439996490E0,3.075205078E0,-2.524200897E0,5.259472625E0
1.266973542E1,5.017715607E0,4.946014709E0,-3.772904205E0,7.992204800E0
1.267974442E1,6.023025055E0,6.817123718E0,-4.406087494E0,1.010760177E1
1.268975242E1,6.996899872E0,8.400381317E0,-3.984414368E0,1.163608920E1
1.269976142E1,7.797734528E0,9.552984467E0,-2.265538788E0,1.253781648E1
1.270976942E1,8.451724548E0,1.051518356E1,-5.770500183E-1,1.350310038E1
1.271977842E1,8.867110748E0,1.094419144E1,4.709207153E-1,1.409335821E1
1.272978642E1,8.951834564E0,1.049317932E1,4.152365112E-1,1.379907880E1
1.273979542E1,8.881031799E0,9.385482788E0,-9.116043091E-2,1.292162231E1
1.274980342E1,8.725954285E0,8.033194885E0,-5.625302124E-1,1.187396052E1
1.275981242E1,8.295150146E0,6.916517029E0,-1.227447510E0,1.086988276E1
1.276982042E1,7.730374603E0,6.553970947E0,-1.729054413E0,1.028118942E1
1.277982942E1,7.011868744E0,6.990762634E0,-1.898352356E0,1.008170656E1
1.278983742E1,6.620283051E0,7.644602966E0,-2.192341003E0,1.034767903E1
1.279984642E1,6.385571136E0,7.845784607E0,-2.278861084E0,1.036942924E1
1.280985442E1,5.915249176E0,7.794441376E0,-1.738634491E0,9.938125531E0
1.281986342E1,5.736071777E0,7.512427826E0,-1.228645020E0,9.531456335E0
1.282987142E1,5.692063293E0,7.137756958E0,-1.068029022E0,9.191726982E0
1.283988042E1,5.665568390E0,6.846163330E0,-1.256187744E0,8.974777166E0
1.284988842E1,5.734574890E0,6.654112701E0,-1.524878998E0,8.915594258E0
1.285989742E1,5.889652405E0,6.514153748E0,-1.655407562E0,8.936586524E0
1.286990542E1,6.228098602E0,6.445746002E0,-1.606609039E0,9.105934676E0
1.287991342E1,6.647376709E0,6.517147522E0,-1.459764404E0,9.422936965E0
1.288992242E1,7.009773102E0,6.643185425E0,-1.137185211E0,9.724300578E0
1.289993042E1,7.376061401E0,6.583459625E0,-7.824229431E-1,9.917681589E0
1.290993942E1,7.655829620E0,6.436165924E0,-6.110293579E-1,1.002044489E1
1.291994742E1,7.825726318E0,6.221661987E0,-7.517367554E-1,1.002577570E1
1.292995642E1,7.995772705E0,5.951922913E0,-8.901988220E-1,1.000750825E1
1.293996442E1,8.211474152E0,5.684728546E0,-7.970924377E-1,1.001897214E1
1.294997342E1,8.432115326E0,5.380411377E0,-4.414320374E-1,1.001220544E1
1.295998142E1,8.632249146E0,5.119953003E0,1.179547119E-1,1.003710901E1
1.296999042E1,8.750952301E0,5.059329071E0,4.638853455E-1,1.011885203E1
1.297999842E1,8.701105957E0,5.341043243E0,4.819976807E-1,1.022097400E1
1.299000742E1,8.510701904E0,5.860014038E0,2.143542480E-1,1.033526774E1
1.300001542E1,8.292306061E0,6.453978882E0,-1.678010559E-1,1.050925023E1
1.301002442E1,7.860154724E0,7.182064819E0,-4.522096252E-1,1.065685605E1
1.302003242E1,6.965914307E0,8.013435974E0,-6.322851562E-1,1.063667724E1
1.303004142E1,6.173911285E0,8.360863495E0,-7.667056274E-1,1.042156689E1
1.304004942E1,5.648653564E0,8.281977539E0,-8.798703003E-1,1.006342938E1
1.305005842E1,5.284011841E0,8.076754303E0,-1.137035522E0,9.718415045E0
1.306006642E1,5.195096741E0,7.600744171E0,-1.597028961E0,9.344027162E0
1.307007542E1,5.650749207E0,6.862030334E0,-2.071841583E0,9.127483468E0
1.308008342E1,6.212680664E0,6.663842468E0,-2.104623413E0,9.350595552E0
1.309009242E1,6.467001801E0,7.008276215E0,-2.098186798E0,9.764242706E0
1.310010042E1,6.717281342E0,7.246430969E0,-2.208806763E0,1.012479421E1
1.311010942E1,7.111411743E0,7.155569916E0,-2.171534271E0,1.031939528E1
1.312011742E1,7.508386230E0,6.975195007E0,-1.987117767E0,1.043924548E1
1.313012583E1,7.945626984E0,6.575675812E0,-1.836081848E0,1.047586259E1
1.314013483E1,8.357720032E0,6.218368835E0,-1.844913483E0,1.057938093E1
1.315014283E1,8.792565765E0,6.104605408E0,-1.762135620E0,1.084806627E1
1.316015183E1,8.875193939E0,6.586303711E0,-1.276395721E0,1.112554044E1
1.317015983E1,8.166268158E0,7.616611176E0,-7.634124756E-1,1.119301121E1
1.318016883E1,7.347919922E0,8.368198242E0,-5.912704468E-1,1.115205227E1
1.319017683E1,6.798262939E0,8.818910980E0,-6.104306030E-1,1.115177992E1
1.320018583E1,6.292764130E0,9.251062317E0,-6.759942627E-1,1.120883592E1
1.321019383E1,5.838907928E0,9.607770538E0,-6.833290100E-1,1.126361572E1
1.322020283E1,5.463189240E0,9.964628448E0,-4.987628174E-1,1.137492950E1
1.323021083E1,5.121150513E0,1.033361115E1,-1.844165039E-1,1.153445756E1
1.324021983E1,4.907395020E0,1.075139236E1,6.676116943E-2,1.181860485E1
1.325022783E1,4.708309021E0,1.126422592E1,1.389111328E-1,1.220943306E1
1.326023683E1,4.561015320E0,1.185340073E1,7.903564453E-2,1.270087462E1
1.327024483E1,4.647535400E0,1.211026657E1,-1.249900818E-1,1.297203778E1
1.328025383E1,4.994663544E0,1.186597458E1,-4.652325439E-1,1.288271935E1
1.329026183E1,5.548811188E0,1.100107315E1,-4.769082642E-1,1.233046461E1
1.330027083E1,6.102509766E0,9.385033722E0,-1.817221069E-1,1.119609335E1
1.331027883E1,6.332132263E0,8.015381927E0,2.565664673E-1,1.021802685E1
1.332028783E1,6.282435608E0,7.048542480E0,8.898994446E-1,9.483821450E0
1.333029583E1,5.966293030E0,6.431824951E0,1.545536041E0,8.908069733E0
1.334030483E1,5.542973328E0,6.206543427E0,2.062710571E0,8.573243815E0
1.335031283E1,5.234913940E0,6.238277435E0,2.348616028E0,8.475637237E0
1.336032183E1,5.133125610E0,6.334227905E0,2.490970001E0,8.525042712E0
1.337032983E1,5.261857910E0,6.372248840E0,2.596350861E0,8.662201899E0
1.338033783E1,5.322332153E0,6.293512573E0,2.556084595E0,8.629547411E0
1.339034683E1,5.196593628E0,6.231541443E0,2.239642639E0,8.417404187E0
1.340035483E1,4.954097900E0,6.250252533E0,1.880090332E0,8.194112666E0
1.341036383E1,4.687352600E0,6.300098877E0,1.673819275E0,8.028959535E0
1.342037183E1,4.403393097E0,6.357429657E0,1.484912109E0,7.874753747E0
1.343038083E1,4.195774841E0,6.476282501E0,1.175355835E0,7.805653265E0
1.344038883E1,4.044289856E0,6.643185425E0,6.242019653E-1,7.802424054E0
1.345039783E1,3.877686310E0,6.805747375E0,1.453477478E-1,7.834269234E0
1.346040583E1,3.702999573E0,7.043752441E0,-8.981323242E-4,7.957804666E0
1.347041483E1,3.576662292E0,7.385641479E0,1.534309387E-1,8.207542523E0
1.348042283E1,3.547922058E0,7.767198029E0,5.550457764E-1,8.557171960E0
1.349043183E1,3.640878754E0,8.134983215E0,1.070274353E0,8.976604993E0
1.350043983E1,3.792962494E0,8.442144470E0,1.460063782E0,9.369533285E0
1.351044883E1,3.976181488E0,8.757239227E0,1.832189941E0,9.790616839E0
1.352045683E1,4.232448578E0,9.017398224E0,2.254461823E0,1.021321153E1
1.353046583E1,4.556075592E0,9.122629395E0,2.420017548E0,1.048029946E1
1.354047383E1,4.942272491E0,9.036558380E0,2.376158752E0,1.057031575E1
1.355048283E1,5.270988922E0,8.914113007E0,2.444416809E0,1.064048441E1
1.356049083E1,5.464835815E0,8.843310242E0,2.777623901E0,1.076028629E1
1.357049983E1,5.538482666E0,8.790919189E0,2.976709900E0,1.080813824E1
1.358050783E1,5.504054260E0,8.716972961E0,2.692900085E0,1.065513687E1
1.359051683E1,5.435197449E0,8.650062103E0,2.298021240E0,1.047119130E1
1.360052483E1,5.361849976E0,8.480764160E0,1.934726715E0,1.021841296E1
1.361053383E1,5.249583435E0,8.276738434E0,1.475332031E0,9.911565464E0
1.362054183E1,5.237159271E0,7.936495972E0,1.136736145E0,9.576428071E0
1.363055083E1,5.333708496E0,7.543563080E0,9.937834167E-1,9.292007089E0
1.364055883E1,5.437742157E0,7.202272797E0,8.458909607E-1,9.064066677E0
1.365056683E1,5.500012665E0,6.975045319E0,9.871971130E-1,8.937334874E0
1.366057583E1,5.526058502E0,6.896009674E0,1.227896576E0,8.921883321E0
1.367058383E1,5.427862701E0,6.906787262E0,1.634451141E0,8.935146016E0
1.368059283E1,5.313500519E0,6.888076172E0,1.989363098E0,8.923925518E0
1.369060083E1,5.188510437E0,6.884633331E0,2.375410309E0,8.942113329E0
1.370060983E1,5.130880280E0,6.741081848E0,2.525847473E0,8.840137012E0
1.371061783E1,5.164260864E0,6.500681763E0,2.467618561E0,8.661269827E0
1.372062683E1,5.138215027E0,6.378685455E0,2.472109222E0,8.555711882E0
1.373063483E1,5.132377167E0,6.323300629E0,2.396965485E0,8.489456388E0
1.374064383E1,5.087171173E0,6.316414948E0,2.488574982E0,8.483478872E0
1.375065183E1,4.979095917E0,6.406677246E0,2.659519501E0,8.538732544E0
1.376066083E1,4.933740234E0,6.556365967E0,2.832559662E0,8.680502383E0
1.377066883E1,4.878954163E0,6.736441498E0,3.026556244E0,8.851207854E0
1.378067783E1,4.768034821E0,7.097939758E0,3.153342590E0,9.113642211E0
1.379068583E1,4.557123413E0,7.410789185E0,3.022514648E0,9.209927521E0
1.380069483E1,4.380939789E0,7.898325348E0,3.237467651E0,9.594653382E0
1.381070283E1,4.208348694E0,8.578959961E0,3.590882721E0,1.020799645E1
1.382071183E1,4.098477173E0,9.241781616E0,3.661835175E0,1.075253828E1
1.383071983E1,4.132306824E0,9.676477661E0,3.436254272E0,1.106878598E1
1.384072883E1,4.271068268E0,9.984387360E0,3.454366608E0,1.139573007E1
1.385073683E1,4.407584381E0,1.034858002E1,3.922892303E0,1.191255608E1
1.386074583E1,4.499493256E0,1.093386292E1,4.822222137E0,1.276904946E1
1.387075383E1,4.752467194E0,1.137065460E1,5.475314026E0,1.348542896E1
1.388076283E1,5.151687012E0,1.163036453E1,5.343138885E0,1.379689789E1
1.389077083E1,5.481301575E0,1.181777481E1,5.043162689E0,1.396917887E1
1.390077983E1,5.784870300E0,1.153965317E1,4.578678589E0,1.369644542E1
1.391078783E1,5.955964508E0,1.070483917E1,4.283043365E0,1.297734778E1
1.392079583E1,5.733227692E0,9.389973450E0,3.582051086E0,1.157033237E1
1.393080483E1,5.245092773E0,7.610623627E0,1.774410095E0,9.411754426E0
1.394081283E1,4.735851746E0,5.668861542E0,-5.104385376E-2,7.386940396E0
1.395082183E1,4.382736053E0,4.241579590E0,-1.046473846E0,6.188253408E0
1.396082983E1,4.190386047E0,3.696413269E0,-1.370998993E0,5.753472388E0
1.397083883E1,4.337829437E0,4.107757874E0,-1.179846497E0,6.089538302E0
1.398084683E1,5.069358215E0,5.386548615E0,-2.306703186E-1,7.400439682E0
1.399085583E1,6.404880981E0,6.847510529E0,6.547384644E-1,9.398913942E0
1.400086383E1,7.792345734E0,8.084089050E0,5.195695496E-1,1.124024467E1
1.401087283E1,8.772507477E0,9.034911804E0,-2.288740540E-1,1.259519361E1
1.402088083E1,9.258097687E0,9.587263184E0,-8.063731384E-1,1.335208694E1
1.403088983E1,9.268126831E0,9.635612640E0,-1.029559021E0,1.340907147E1
1.404089783E1,8.869356079E0,9.198072510E0,-1.126707001E0,1.282729449E1
1.405090683E1,8.060288544E0,8.516090698E0,-1.159937897E0,1.178293292E1
1.406091483E1,7.106771393E0,7.884553986E0,-8.774752808E-1,1.065093207E1
1.407092383E1,6.379284210E0,7.429051208E0,-4.233197021E-1,9.801289123E0
1.408093183E1,5.896388397E0,7.186256104E0,3.532653809E-2,9.295747462E0
1.409094083E1,5.607189789E0,7.134613495E0,3.219804382E-1,9.080030752E0
1.410094883E1,5.451064453E0,7.189998322E0,1.948947144E-1,9.024863627E0
1.411095783E1,5.363646240E0,7.330256653E0,-1.193019104E-1,9.083809583E0
1.412096583E1,5.369035034E0,7.357050934E0,-1.836680603E-1,9.109690972E0
1.413097479E1,5.497318268E0,7.366032257E0,-5.523513794E-2,9.191408503E0
1.414098279E1,5.657185822E0,7.272925873E0,1.070274353E-1,9.214697881E0
1.415099179E1,5.861061859E0,7.065157928E0,9.220825195E-2,9.180250815E0
1.416099979E1,6.045178986E0,6.874304810E0,-9.056167603E-2,9.154695899E0
1.417100879E1,6.203250275E0,6.725813599E0,-4.406835938E-1,9.160299371E0
1.418101679E1,6.380332031E0,6.489604797E0,-9.556127930E-1,9.150781555E0
1.419102579E1,6.528823242E0,6.211034088E0,-1.437460785E0,9.125172375E0
1.420103379E1,6.770420837E0,5.948480072E0,-1.679058380E0,9.167456055E0
1.421104279E1,7.083120575E0,5.754932556E0,-1.721270599E0,9.287228773E0
1.422105079E1,7.342830505E0,5.684129791E0,-1.582958221E0,9.419779618E0
1.423105979E1,7.566166077E0,5.689668274E0,-1.243613892E0,9.548076753E0
1.424106779E1,7.825576630E0,5.706732788E0,-1.002764740E0,9.737144644E0
1.425107579E1,7.998616791E0,5.879024506E0,-8.171507263E-1,9.960348137E0
1.426108479E1,8.132438507E0,6.016438751E0,-6.542893982E-1,1.013716854E1
1.427109279E1,8.277037811E0,5.997128906E0,-4.263134766E-1,1.023018344E1
1.428110179E1,8.366701355E0,5.926475830E0,-2.291734314E-1,1.025559983E1
1.429110979E1,8.433013458E0,5.924529877E0,-5.328918457E-2,1.030624131E1
1.430111879E1,8.494236145E0,5.929469604E0,2.239343262E-1,1.036150588E1
1.431112679E1,8.514294434E0,5.865851898E0,3.995191956E-1,1.034703067E1
1.432113579E1,8.457712097E0,5.849984894E0,4.483177185E-1,1.029350309E1
1.433114379E1,8.238268433E0,5.870941315E0,3.118016052E-1,1.012098014E1
1.434115279E1,7.950417023E0,5.979765015E0,1.555265808E-1,9.949417520E0
1.435116079E1,7.656278687E0,6.008056183E0,1.507365417E-1,9.733348033E0
1.436116979E1,7.393275604E0,6.049669647E0,3.442840576E-3,9.552959691E0
1.437117779E1,7.264393616E0,6.096522217E0,-3.623963928E-1,9.490538915E0
1.438118679E1,7.207062836E0,6.106251984E0,-5.981561279E-1,9.464980653E0
1.439119479E1,7.154522095E0,6.136489105E0,-6.527925110E-1,9.448270900E0
1.440120379E1,7.070846100E0,6.170917511E0,-6.173162842E-1,9.405220194E0
1.441121179E1,7.022796021E0,6.259233856E0,-5.529501343E-1,9.423556986E0
1.442122079E1,7.006629639E0,6.310726776E0,-6.411167908E-1,9.451410587E0
1.443122879E1,7.010671234E0,6.342909851E0,-8.554710388E-1,9.492831360E0
1.444123779E1,6.995702362E0,6.321204987E0,-8.798703003E-1,9.469511907E0
1.445124579E1,6.998546448E0,6.236032104E0,-8.467890930E-1,9.411949881E0
1.446125479E1,6.981781311E0,6.228847046E0,-1.060245209E0,9.416364782E0
1.447126279E1,6.999145203E0,6.278543701E0,-1.446591797E0,9.513189392E0
1.448127179E1,7.030729523E0,6.329587555E0,-1.556014252E0,9.587284109E0
1.449127979E1,7.048692169E0,6.341712341E0,-1.358574829E0,9.578470770E0
1.450128879E1,7.107669525E0,6.339017944E0,-1.104553070E0,9.587604083E0
1.451129679E1,7.262597351E0,6.347101135E0,-1.018781433E0,9.698913790E0
1.452130579E1,7.467221832E0,6.439459076E0,-1.022074585E0,9.913156487E0
1.453131379E1,7.498357086E0,6.634204102E0,-7.336244202E-1,1.003873637E1
1.454132179E1,7.691455536E0,6.616241455E0,-6.174659729E-1,1.016436931E1
1.455133079E1,7.852221222E0,6.489305420E0,-8.261320496E-1,1.022012510E1
1.456133879E1,7.978857880E0,6.325096893E0,-1.070723419E0,1.023794278E1
1.457134779E1,7.902666321E0,6.199508057E0,-8.875044250E-1,1.008333770E1
1.458135579E1,7.771389313E0,6.035748596E0,-4.956193542E-1,9.852430741E0
1.459136479E1,7.775281219E0,5.866001587E0,-3.876937866E-1,9.747578116E0
1.460137279E1,7.895331573E0,5.787115631E0,-4.719685364E-1,9.800496022E0
1.461138179E1,8.180488586E0,5.611530762E0,-7.249424744E-1,9.946618149E0
1.462138979E1,8.798553314E0,5.297483826E0,-1.406475220E0,1.036610090E1
1.463139879E1,9.706116028E0,5.044809265E0,-2.335593109E0,1.118542731E1
1.464140679E1,1.055320450E1,5.181175690E0,-2.870281219E0,1.210178586E1
1.465141579E1,1.127874573E1,5.740712128E0,-2.850522308E0,1.297271592E1
1.466142379E1,1.166599045E1,6.272406464E0,-2.413730621E0,1.346345095E1
1.467143279E1,1.174382858E1,6.195167084E0,-1.533560944E0,1.336597973E1
1.468144079E1,1.171598648E1,5.748346252E0,-5.132826233E-1,1.306029414E1
1.469144979E1,1.156614807E1,5.877826996E0,3.878434753E-1,1.297979406E1
1.470145779E1,1.089434509E1,7.245083771E0,2.177970886E-1,1.308531350E1
1.471146679E1,9.648785248E0,8.608448639E0,8.761280823E-1,1.296040297E1
1.472147479E1,8.422086182E0,9.221423950E0,2.423610077E0,1.272163830E1
1.473148379E1,7.960745544E0,9.462422791E0,2.634222107E0,1.264318159E1
1.474149179E1,7.683372345E0,9.827513580E0,1.979932709E0,1.263069148E1
1.475150079E1,7.491321716E0,1.028885422E1,1.421144714E0,1.280625138E1
1.476150879E1,7.242688751E0,1.076591217E1,9.117539978E-1,1.300740945E1
1.477151779E1,7.160509644E0,1.116827545E1,5.025050354E-1,1.327613597E1
1.478152579E1,7.318131866E0,1.134580627E1,4.116439819E-2,1.350126174E1
1.479153479E1,7.650740204E0,1.156884247E1,-5.743556213E-1,1.388170833E1
1.480154279E1,8.004005585E0,1.172676407E1,-1.143621826E0,1.424390999E1
1.481155179E1,8.393196259E0,1.135239258E1,-1.362766113E0,1.418378272E1
1.482155979E1,8.703950043E0,1.023825943E1,-1.311123505E0,1.350184237E1
1.483156879E1,8.845405884E0,9.248667297E0,-1.561403046E0,1.289251843E1
1.484157679E1,8.969348145E0,8.673263855E0,-1.887125702E0,1.261887299E1
1.485158579E1,9.078321533E0,7.921676788E0,-1.455872498E0,1.213624529E1
1.486159379E1,9.206904144E0,6.831793213E0,-1.266366577E-1,1.146544893E1
1.487160279E1,9.405391388E0,5.749693451E0,1.138831787E0,1.108229668E1
1.488161079E1,9.449549561E0,4.675227814E0,1.809437256E0,1.069699982E1
1.489161979E1,9.473050690E0,3.978127441E0,1.994153137E0,1.046617571E1
1.490162779E1,9.400751038E0,3.458408203E0,2.032623138E0,1.022087394E1
1.491163679E1,8.989107056E0,3.094065857E0,1.937271423E0,9.702077600E0
1.492164479E1,8.169112244E0,3.194057922E0,1.744622040E0,8.943159784E0
1.493165279E1,7.266788635E0,3.925437012E0,1.140029297E0,8.337561970E0
1.494166179E1,6.489754486E0,4.887636108E0,3.905378723E-1,8.133782628E0
1.495166979E1,5.894292755E0,5.416186981E0,2.516267395E-1,8.008812928E0
1.496167879E1,5.451064453E0,5.653892670E0,3.725752258E-1,7.862532562E0
1.497168679E1,5.050048370E0,5.700146484E0,2.011816406E-1,7.618079321E0
1.498169579E1,4.727768555E0,5.499563599E0,9.580078125E-2,7.253011311E0
1.499170379E1,4.436474304E0,5.135969696E0,7.828720093E-2,6.787239340E0
1.500171279E1,4.116589508E0,4.728516998E0,1.390608215E-1,6.270926574E0
1.501172079E1,3.719615021E0,4.381089478E0,2.665956116E-1,5.753308103E0
1.502172979E1,3.336860962E0,3.955225067E0,6.203100586E-1,5.211835663E0
1.503173779E1,2.987038422E0,3.556005249E0,1.180145874E0,4.791692410E0
1.504174679E1,2.813698883E0,3.294199677E0,1.620679779E0,4.625500606E0
1.505175479E1,2.827919312E0,3.135080566E0,2.004481659E0,4.673735606E0
1.506176379E1,2.976560211E0,3.124752045E0,2.302212524E0,4.891233846E0
1.507177179E1,3.195105743E0,3.268004150E0,2.583028564E0,5.249817940E0
1.508178079E1,3.416645050E0,3.351231079E0,3.024759979E0,5.661570990E0
1.509178879E1,3.598067780E0,3.401077423E0,3.538341980E0,6.085497790E0
1.510179779E1,3.715723114E0,3.538641357E0,4.028273163E0,6.523462699E0
1.511180579E1,3.891008606E0,3.788172455E0,4.427642670E0,7.006726634E0
1.512181479E1,4.185745697E0,4.110901337E0,4.815037079E0,7.589766723E0
1.513182204E1,4.664599915E0,4.542154541E0,5.337450714E0,8.418909690E0
1.514183104E1,5.304968262E0,5.048252106E0,6.015241241E0,9.476848884E0
1.515183904E1,6.126010895E0,5.512287140E0,6.819967804E0,1.069697527E1
1.516184804E1,7.198530579E0,5.828579407E0,7.830815735E0,1.212900884E1
1.517185604E1,8.328530731E0,5.960305481E0,8.781638489E0,1.349099107E1
1.518186504E1,9.266031189E0,5.852379913E0,9.487420807E0,1.449554546E1
1.519187304E1,9.688901825E0,5.653593292E0,9.503437500E0,1.470215154E1
1.520188204E1,9.531429291E0,5.623805237E0,8.800798645E0,1.413963884E1
1.521189004E1,8.795709229E0,5.731880493E0,7.873626709E0,1.312299327E1
1.522189904E1,7.757767639E0,5.880671082E0,7.016359406E0,1.199977293E1
1.523190704E1,6.654112701E0,5.868246918E0,5.897885284E0,1.065357163E1
1.524191604E1,5.600004730E0,5.446873169E0,4.659061432E0,9.095896532E0
1.525192404E1,4.704866180E0,4.666545868E0,4.050576782E0,7.766568636E0
1.526193304E1,4.140240326E0,3.736080780E0,4.519551544E0,7.178177743E0
1.527194104E1,4.232149200E0,3.263064423E0,5.185816040E0,7.446567282E0
1.528195004E1,5.444029083E0,3.833528137E0,5.342091064E0,8.536470440E0
1.529195804E1,7.635172577E0,5.497467957E0,5.000052338E0,1.065450785E1
1.530196704E1,1.036399796E1,7.558981018E0,3.904181213E0,1.340870160E1
1.531197504E1,1.346704514E1,1.032133667E1,2.599644012E0,1.716535593E1
1.532198304E1,1.682052155E1,1.388527542E1,1.078507233E0,2.183790275E1
1.533199204E1,1.739951752E1,1.698682571E1,5.709127808E-1,2.432326868E1
1.534200004E1,1.188229065E1,1.723396179E1,2.078427887E0,2.103611496E1
1.535200904E1,4.933141479E0,1.422042847E1,2.913391571E0,1.533115524E1
1.536201704E1,8.208929443E-1,9.838291168E0,3.014132080E0,1.032234617E1
1.537202604E1,-8.050259399E-1,6.516099701E0,2.748883667E0,7.117863689E0
1.538203404E1,-1.291364594E0,4.095333710E0,1.970202942E0,4.724519059E0
1.539204304E1,-1.042581940E0,2.116897888E0,7.822732544E-1,2.485997831E0
1.540205104E1,9.445358276E-1,4.565505981E-1,-9.178912354E-1,1.393955056E0
1.541206004E1,3.891457672E0,1.694476318E-1,-3.498225403E0,5.235430859E0
1.542206804E1,6.066883850E0,1.561103668E0,-7.372319183E0,9.674461972E0
1.543207704E1,7.793692932E0,3.465593262E0,-1.014994308E1,1.325795349E1
1.544208504E1,9.651779022E0,5.348677368E0,-1.000549347E1,1.489547205E1
1.545209404E1,1.159369080E1,6.640041962E0,-6.427633667E0,1.482627054E1
1.546210204E1,1.394395340E1,7.309000854E0,1.235081635E0,1.579179396E1
1.547211104E1,1.534084854E1,7.546706543E0,4.841232605E0,1.776884765E1
1.548211904E1,1.444960190E1,6.335874481E0,5.269492035E0,1.663435742E1
1.549212804E1,1.212688202E1,5.006488953E0,5.068759460E0,1.406479725E1
1.550213604E1,8.846304016E0,5.211562500E0,4.531077576E0,1.122266200E1
1.551214504E1,5.900130615E0,6.478677521E0,3.444487152E0,9.415375480E0
1.552215304E1,4.484374695E0,7.639962616E0,1.563648376E0,8.995756857E0
1.553216204E1,4.431235199E0,8.449479218E0,-4.016148376E-1,9.549389452E0
1.554217004E1,4.908891907E0,8.886570282E0,-1.784289551E0,1.030786303E1
1.555217904E1,5.689368896E0,8.752149811E0,-2.596350861E0,1.075686211E1
1.556218704E1,6.320007477E0,7.939639435E0,-3.103346558E0,1.061183908E1
1.557219604E1,6.691834259E0,7.038812714E0,-3.012036438E0,1.016847548E1
1.558220404E1,6.890022125E0,6.364614716E0,-2.412383423E0,9.685056486E0
1.559221304E1,6.811884613E0,5.970783691E0,-1.299148407E0,9.150946205E0
1.560222104E1,6.612499237E0,5.766907654E0,1.077758789E-1,8.774621683E0
1.561223004E1,6.415658569E0,5.559888153E0,1.140628052E0,8.565866185E0
1.562223804E1,6.357729034E0,5.469925232E0,1.202449493E0,8.472702361E0
1.563224704E1,6.444249115E0,5.443130951E0,4.878355408E-1,8.449497306E0
1.564225504E1,6.732399902E0,5.330115967E0,-4.845423889E-1,8.600588700E0
1.565226404E1,7.171287231E0,5.112917633E0,-1.218166809E0,8.891187640E0
1.566227204E1,7.495363312E0,4.918322296E0,-1.414708099E0,9.075889179E0
1.567228104E1,7.715405731E0,4.777165833E0,-1.160237274E0,9.148494385E0
1.568228904E1,7.872878265E0,4.744683380E0,-7.993377686E-1,9.226763974E0
1.569229804E1,7.792345734E0,4.981490936E0,-4.330494690E-1,9.258695147E0
1.570230604E1,7.620652771E0,5.292693787E0,-1.100212097E-1,9.278957961E0
1.571231504E1,7.483986969E0,5.495671692E0,8.232879639E-2,9.285431941E0
1.572232304E1,7.275021515E0,5.656287689E0,2.188449097E-1,9.217777474E0
1.573233204E1,7.123536530E0,5.765261078E0,3.658392334E-1,9.171523665E0
1.574234004E1,7.067552948E0,5.871989136E0,6.951544189E-1,9.214868461E0
1.575234904E1,6.932533722E0,5.995781708E0,9.876461792E-1,9.218723722E0
1.576235704E1,7.000342712E0,5.942342834E0,8.342152405E-1,9.220203442E0
1.577236604E1,7.383695526E0,5.859115906E0,2.710862732E-1,9.429829616E0
1.578237404E1,7.930957489E0,5.681285706E0,-1.401086426E-1,9.756880874E0
1.579238304E1,8.597371674E0,5.420228577E0,-5.044509888E-1,1.017586106E1
1.580239104E1,9.362580414E0,5.028942261E0,-1.188528442E0,1.069395961E1
1.581240004E1,9.903106384E0,4.678520966E0,-1.982028351E0,1.113052159E1
1.582240804E1,1.019305344E1,4.502936096E0,-2.229164429E0,1.136415179E1
1.583241704E1,1.050769913E1,4.244124298E0,-1.540296936E0,1.143664490E1
1.584242504E1,1.071082672E1,3.807182922E0,-3.329077148E-1,1.137221519E1
1.585243404E1,1.092682755E1,3.249592438E0,6.765930176E-1,1.141985943E1
1.586244204E1,1.088222031E1,2.845283203E0,7.849676514E-1,1.127539487E1
1.587245104E1,1.054257660E1,2.877017212E0,4.379891968E-1,1.093686353E1
1.588245904E1,1.015293686E1,3.067570953E0,2.555186462E-1,1.060930762E1
1.589246804E1,1.055949142E1,3.128793640E0,-3.149450684E-1,1.101777651E1
1.590247604E1,1.148546585E1,3.626209259E0,-1.506167908E0,1.213811605E1
1.591248504E1,1.268701721E1,4.691992950E0,-1.705702972E0,1.363395123E1
1.592249304E1,1.334774323E1,5.716013489E0,-4.149371338E-1,1.452608799E1
1.593250204E1,1.349937790E1,6.370153198E0,5.969586182E-1,1.493882241E1
1.594251004E1,1.329325653E1,6.385571136E0,7.749385071E-1,1.476775940E1
1.595251904E1,1.261905853E1,5.944887543E0,4.254153442E-1,1.395576241E1
1.596252704E1,1.150926636E1,6.064488831E0,-4.355941772E-2,1.300934796E1
1.597253604E1,1.018107834E1,7.043003998E0,5.830375671E-1,1.239347386E1
1.598254404E1,8.977431335E0,8.023165741E0,2.145189056E0,1.222977097E1
1.599255204E1,8.488098907E0,8.316106567E0,3.025508423E0,1.226210230E1
1.600256104E1,8.758287048E0,8.030650177E0,2.076931000E0,1.206285939E1
1.601257004E1,9.276210022E0,7.799081726E0,2.942880249E-1,1.212272055E1
1.602257804E1,9.689350891E0,7.810308380E0,-1.154698792E0,1.249871061E1
1.603258704E1,9.811646576E0,8.136031036E0,-2.274969177E0,1.294754395E1
1.604259504E1,9.697733459E0,8.919202423E0,-2.870430908E0,1.348471652E1
1.605260304E1,9.572893066E0,1.003887405E1,-2.565814362E0,1.410683087E1
1.606261204E1,9.683063965E0,1.134415970E1,-1.548080750E0,1.499494051E1
1.607262004E1,1.034708313E1,1.232312393E1,4.490661621E-4,1.609103828E1
1.608262904E1,1.136556519E1,1.219798416E1,1.005010071E0,1.670260264E1
1.609263704E1,1.170625671E1,1.089105194E1,4.793032837E-1,1.599628677E1
1.610264604E1,1.082893112E1,9.089398499E0,-5.505551147E-1,1.414871108E1
1.611265404E1,9.894125061E0,7.505691833E0,-1.081051941E0,1.246586515E1
1.612266304E1,9.123377838E0,6.115382996E0,-8.089178467E-1,1.101309586E1
1.613267154E1,8.394992523E0,4.846022644E0,-4.984634399E-2,9.693416301E0
1.614268054E1,7.712411957E0,3.769910431E0,9.380992126E-1,8.635598009E0
1.615268854E1,7.153773651E0,3.375630341E0,1.512305145E0,8.053472822E0
1.616269754E1,7.108417969E0,3.467988281E0,1.220412140E0,8.002871643E0
1.617270554E1,7.191944275E0,3.509452057E0,5.740562439E-1,8.023082747E0
1.618271454E1,7.248376923E0,3.416645050E0,4.158352661E-1,8.024048254E0
1.619272254E1,7.259004822E0,3.209326172E0,4.318519592E-1,7.948548395E0
1.620273154E1,7.131619720E0,2.943628693E0,1.619631958E-1,7.716941220E0
1.621273954E1,6.722670135E0,2.842588806E0,-2.962339783E-1,7.304954445E0
1.622274854E1,6.067482605E0,3.041674805E0,-7.179071045E-1,6.825065669E0
1.623275654E1,5.303621063E0,3.331621857E0,-9.069639587E-1,6.328560990E0
1.624276554E1,4.507576447E0,3.453019409E0,-8.866062927E-1,5.746969565E0
1.625277354E1,3.901935883E0,3.474424896E0,-8.342152405E-1,5.290807789E0
1.626278254E1,3.443139954E0,3.471431122E0,-5.125341797E-1,4.916171077E0
1.627279054E1,3.051254883E0,3.413800964E0,-1.050814819E-1,4.579872870E0
1.628279954E1,2.580633545E0,3.280428314E0,3.088078308E-1,4.185240936E0
1.629280754E1,2.100731506E0,3.062631226E0,6.542893982E-1,3.771057876E0
1.630281654E1,1.777403870E0,2.792143707E0,1.123563538E0,3.495372086E0
1.631282454E1,1.783241730E0,2.564616852E0,1.848655701E0,3.629702269E0
1.632283354E1,2.035467224E0,2.433339844E0,2.829116821E0,4.250667195E0
1.633284154E1,2.362986145E0,2.467768250E0,3.836072845E0,5.137026234E0
1.634285054E1,2.947071533E0,2.460583191E0,4.821174316E0,6.163069207E0
1.635285854E1,4.061204681E0,2.370769958E0,6.232738953E0,7.807750541E0
1.636286754E1,5.846242676E0,2.580483856E0,7.697143707E0,1.000417271E1
1.637287554E1,8.138426056E0,3.275039520E0,9.160500641E0,1.268363649E1
1.638288454E1,1.049467621E1,4.193529510E0,1.095691498E1,1.574096262E1
1.639289254E1,1.245245499E1,5.160518646E0,1.280601974E1,1.859270635E1
1.640290154E1,1.350701202E1,6.167923737E0,1.358200607E1,2.012345761E1
1.641290954E1,1.339893677E1,6.753805389E0,1.249182312E1,1.952411428E1
1.642291854E1,1.206341400E1,6.482120361E0,1.047895889E1,1.724390969E1
1.643292654E1,9.878407745E0,5.507946167E0,8.347840576E0,1.405727046E1
1.644293554E1,7.823930054E0,4.369264069E0,5.968538361E0,1.076697730E1
1.645294354E1,6.147865448E0,3.335663452E0,3.448229370E0,7.798280966E0
1.646295254E1,4.796475677E0,2.440973969E0,1.575324097E0,5.607689261E0
1.647296054E1,4.066743164E0,1.692680054E0,1.346450043E0,4.606136499E0
1.648296954E1,4.803960114E0,1.645228729E0,2.282902679E0,5.567446002E0
1.649297754E1,7.113058319E0,2.995271301E0,2.964585114E0,8.267769573E0
1.650298654E1,9.685009918E0,5.183121643E0,2.452799377E0,1.125523842E1
1.651299454E1,1.207374252E1,8.133186951E0,2.111509094E0,1.470994423E1
1.652300354E1,1.536958878E1,1.168784500E1,3.362008667E0,1.959931331E1
1.653301154E1,1.824885132E1,1.529773819E1,3.640130310E0,2.408924899E1
1.654302054E1,1.500599487E1,1.677097458E1,2.967578888E0,2.269916287E1
1.655302854E1,7.835755463E0,1.484687576E1,1.885928192E0,1.689335694E1
1.656303754E1,2.811752930E0,1.125599304E1,1.024768982E0,1.164703762E1
1.657304554E1,6.256988525E-1,7.826175385E0,6.897656250E-1,7.881389270E0
1.658305454E1,1.739382935E-1,4.920717316E0,-3.261717224E-1,4.934582193E0
1.659306254E1,3.141966248E-1,2.314936066E0,-1.720372467E0,2.901263506E0
1.660307154E1,1.496438141E0,3.737727356E-1,-3.097508698E0,3.460288037E0
1.661307954E1,3.686683502E0,1.342707825E-1,-5.617518311E0,6.720578536E0
1.662308854E1,6.007158051E0,1.159039764E0,-8.257428589E0,1.027688902E1
1.663309654E1,8.160579987E0,2.419718170E0,-8.734636230E0,1.219606378E1
1.664310554E1,1.054811508E1,3.646417236E0,-6.340814209E0,1.283608255E1
1.665311354E1,1.286080582E1,4.601431274E0,-1.873354340E0,1.378705743E1
1.666312254E1,1.462488739E1,5.114713898E0,1.960323486E0,1.561699387E1
1.667313054E1,1.541180099E1,4.820874939E0,2.290686493E0,1.630986480E1
1.668313954E1,1.483729568E1,3.570674744E0,9.169931030E-1,1.528842496E1
1.669314754E1,1.277024414E1,2.772684174E0,1.097218323E0,1.311376380E1
1.670315654E1,1.012045441E1,2.616708527E0,1.968556366E0,1.063700969E1
1.671316454E1,7.572752380E0,4.162394257E0,2.444716187E0,8.980464453E0
1.672317354E1,6.308032379E0,6.420598297E0,2.107617188E0,9.244317454E0
1.673318154E1,5.779182129E0,7.800728302E0,1.616787872E0,9.841966833E0
1.674319054E1,5.864205322E0,8.255931702E0,9.252259827E-1,1.016884238E1
1.675319854E1,6.291566620E0,8.061186676E0,-9.939331055E-2,1.022626130E1
1.676320754E1,6.851701813E0,7.300169220E0,-1.366957397E0,1.010479396E1
1.677321554E1,7.012467499E0,6.357579346E0,-2.171534271E0,9.711286045E0
1.678322454E1,6.909631348E0,5.760620728E0,-2.227966919E0,9.267771745E0
1.679323254E1,6.931186523E0,5.362448730E0,-1.645977173E0,8.916638597E0
1.680324154E1,7.013515320E0,5.004243622E0,-7.015910339E-1,8.644309189E0
1.681324954E1,7.281009064E0,4.699028320E0,2.421963501E-1,8.669061034E0
1.682325854E1,7.698939972E0,4.506378937E0,7.156617737E-1,8.949485996E0
1.683326654E1,8.157885590E0,4.316423950E0,7.512876892E-1,9.259970097E0
1.684327554E1,8.548573151E0,4.127516785E0,6.327342224E-1,9.513929278E0
1.685328354E1,8.752598877E0,3.799548798E0,3.484753418E-1,9.548088459E0
1.686329254E1,8.821006622E0,3.494483185E0,-5.119354248E-2,9.488107890E0
1.687330054E1,8.806786194E0,3.351979523E0,-3.661386108E-1,9.430233680E0
1.688330954E1,8.833131409E0,3.322640533E0,-4.995112610E-1,9.450590569E0
1.689331754E1,8.879983978E0,3.241808624E0,-3.924838257E-1,9.461367880E0
1.690332654E1,8.897647247E0,3.179089050E0,-1.336720276E-1,9.449476279E0
1.691333454E1,8.837921448E0,3.263962555E0,1.975891113E-1,9.423446744E0
