"Time (s)","Acceleration x (m/s^2)","Acceleration y (m/s^2)","Acceleration z (m/s^2)","Absolute acceleration (m/s^2)"
2.087166766E-3,2.078876953E0,9.019194489E0,-6.965016174E-1,9.281848583E0
1.216716669E-2,2.628983002E0,9.497300262E0,2.877017212E-1,9.858652858E0
2.224616671E-2,2.925067291E0,9.974507904E0,7.875123596E-1,1.042434661E1
3.232616675E-2,2.923869781E0,1.017419266E1,9.375004578E-1,1.062742292E1
4.240616667E-2,2.879262543E0,1.000788849E1,7.934999084E-1,1.044402350E1
5.248516670E-2,2.911295929E0,9.752519531E0,5.465135193E-1,1.019244614E1
6.256516674E-2,2.948718109E0,9.311237183E0,3.448828125E-1,9.773076308E0
7.264516677E-2,2.292632446E0,9.424252167E0,2.965333557E-1,9.703639754E0
8.272416668E-2,1.760039978E0,9.314380646E0,4.064048767E-1,9.487918236E0
9.280416672E-2,2.493514709E0,8.784781952E0,8.472381592E-2,9.132206068E0
1.028831667E-1,1.969604187E0,1.033840118E1,1.468446350E0,1.062629824E1
1.129631667E-1,1.104553070E0,1.010428802E1,2.295177155E0,1.042038925E1
1.230431667E-1,1.756896515E0,9.795180817E0,1.283880157E0,1.003397234E1
1.331221667E-1,1.524878998E0,9.699080658E0,4.334985352E-1,9.827784214E0
1.432021668E-1,1.102008362E0,9.328152008E0,-1.329235840E-1,9.393961411E0
1.532821667E-1,8.800199890E-1,9.002728729E0,-1.974394226E-1,9.047792111E0
1.633611667E-1,8.842112732E-1,9.041947174E0,1.062789917E-1,9.085699395E0
1.734411668E-1,1.938468933E-1,8.888665924E0,1.770069122E0,9.065269065E0
1.835201667E-1,3.902384949E-1,9.094787292E0,2.441722412E0,9.424937682E0
1.936001667E-1,1.901944885E0,9.660760345E0,1.989812164E0,1.004524949E1
2.036801667E-1,2.624791718E0,9.710457001E0,1.525777130E0,1.017401113E1
2.137591668E-1,2.340083771E0,9.735604706E0,4.656816101E-1,1.002371440E1
2.238391667E-1,2.158810730E0,9.409582672E0,-1.236428833E-1,9.654843209E0
2.339191667E-1,1.151705017E0,8.997339935E0,5.167254639E-1,9.085458467E0
2.439981668E-1,1.222208405E0,9.311835938E0,8.904981995E-1,9.433825786E0
2.540785833E-1,2.449955292E0,1.007509872E1,1.117276611E0,1.042872007E1
2.641575834E-1,2.714305573E0,1.014051270E1,4.474195862E-1,1.050702797E1
2.742375834E-1,2.261048126E0,1.006147705E1,-1.857637024E-1,1.031407617E1
2.843175834E-1,2.260000305E0,1.024319916E1,-7.405101013E-1,1.051565907E1
2.943965833E-1,1.698068848E0,9.523346100E0,3.305126953E-1,9.679194047E0
3.044765834E-1,1.816173248E0,1.011671219E1,5.159770203E-1,1.029138392E1
3.145565834E-1,1.655108185E0,9.857002258E0,1.215771790E0,1.006866315E1
3.246355834E-1,1.386267242E0,9.347910919E0,1.380878448E0,9.550497406E0
3.347155834E-1,1.138532410E0,9.579928436E0,1.719324646E0,9.799355190E0
3.447945834E-1,3.270698547E-1,9.002429352E0,-8.382568359E-2,9.008758831E0
3.548745834E-1,-2.885848846E0,5.931265869E0,-2.087708588E0,6.918566725E0
3.649545833E-1,-5.014572144E-2,9.330397339E0,-4.370910645E0,1.030357651E1
3.750335834E-1,2.325563965E0,1.128997238E1,-6.436614990E-3,1.152700159E1
3.851135834E-1,1.246607666E0,9.855355682E0,9.418414307E-1,9.978433323E0
3.951935833E-1,3.071313171E0,1.066771637E1,3.468287659E-1,1.110645881E1
4.052725834E-1,4.322860565E0,1.120914047E1,-4.200265503E-1,1.202116367E1
4.153525834E-1,2.762505341E0,1.011746063E1,-1.242416382E-1,1.048855955E1
4.254315834E-1,1.004710693E0,7.805069275E0,2.694396973E-1,7.874080754E0
4.355115833E-1,9.773176575E-1,7.047644348E0,2.838098145E-1,7.120743548E0
4.455915834E-1,2.182760925E0,8.285570068E0,4.894821167E-2,8.568401983E0
4.556705834E-1,3.273243256E0,9.099577332E0,-5.303471375E-1,9.684921120E0
4.657505833E-1,3.753444672E0,9.194030914E0,-1.149459686E0,9.996989993E0
4.758305834E-1,3.684887238E0,9.561367035E0,-1.342109070E0,1.033437905E1
4.859095834E-1,3.352129211E0,1.005728577E1,2.412982178E-1,1.060396115E1
4.959895834E-1,9.530680847E-1,9.808503113E0,2.728526001E0,1.022545482E1
5.060685833E-1,3.052153015E-1,8.868607635E0,4.170627136E0,9.805074629E0
5.161485834E-1,4.421804810E-1,9.078471222E0,-7.625143433E-1,9.121161737E0
5.262285834E-1,1.668729858E0,8.719817047E0,-2.007325745E0,9.102154982E0
5.363075833E-1,1.847607880E0,8.305478668E0,7.667056274E-1,8.542977719E0
5.463875834E-1,1.789378967E0,8.064928894E0,5.769003296E-1,8.281169552E0
5.564675834E-1,1.919907532E0,8.211324463E0,3.730242920E-1,8.441033200E0
5.665465834E-1,2.217189331E0,8.433761902E0,3.192860413E-1,8.726179687E0
5.766265834E-1,2.436333618E0,8.471483459E0,-3.472778320E-2,8.814928220E0
5.867055834E-1,2.596949615E0,8.344098358E0,-5.113366699E-1,8.753832869E0
5.967855834E-1,2.907254333E0,8.040529633E0,-7.499404907E-1,8.582811618E0
6.068655833E-1,2.805466003E0,7.974516907E0,-7.514373779E-1,8.486943945E0
6.169445834E-1,2.527044983E0,8.226443024E0,-7.858657837E-1,8.641637935E0
6.270245834E-1,2.555186462E0,8.570427704E0,-8.635542297E-1,8.984816904E0
6.371045834E-1,2.473606110E0,9.028325500E0,-6.484515381E-1,9.383489645E0
6.471835834E-1,2.386786652E0,9.557475128E0,-3.387455750E-1,9.856816419E0
6.572635834E-1,2.439028015E0,9.825867004E0,-9.834548950E-2,1.012453416E1
6.673425834E-1,2.636168060E0,9.964778137E0,4.011657715E-2,1.030765709E1
6.774225833E-1,2.602488098E0,9.890233154E0,2.222877502E-1,1.022932393E1
6.875025834E-1,2.368973694E0,9.692793732E0,5.144801331E-1,9.991345079E0
6.975815834E-1,2.076931000E0,9.547595673E0,7.177574158E-1,9.797213952E0
7.076615834E-1,1.613345032E0,9.314081268E0,6.774911499E-1,9.477024128E0
7.177415834E-1,1.358874207E0,8.822503510E0,7.414082336E-1,8.957276006E0
7.278205834E-1,1.101708984E0,7.957751770E0,1.017583923E0,8.097842488E0
7.379005834E-1,1.265169067E0,7.509434052E0,1.039887543E0,7.685936420E0
7.479795833E-1,1.605261841E0,7.276518402E0,6.599775696E-1,7.480652112E0
7.580595834E-1,1.732497253E0,7.113507385E0,5.902226257E-1,7.345195491E0
7.681395834E-1,1.918111267E0,6.714736633E0,6.110293579E-1,7.010006831E0
7.782185834E-1,2.248474274E0,6.157445526E0,-9.205856323E-2,6.555779644E0
7.882985834E-1,2.336790619E0,5.250182190E0,-1.018332367E0,5.836266292E0
7.983785834E-1,2.088906097E0,3.917353821E0,-1.272204437E0,4.618191613E0
8.084575834E-1,1.818418579E0,2.768792267E0,-1.109792175E0,3.493493297E0
8.185375833E-1,2.006577301E0,1.973346405E0,-9.380992126E-1,2.966560067E0
8.286165834E-1,2.073787537E0,1.814676361E0,-2.938389587E-1,2.771278834E0
8.386965834E-1,2.022144928E0,2.277064819E0,7.761360168E-1,3.142686974E0
8.487765833E-1,1.624122620E0,2.648143158E0,2.088756409E0,3.743439569E0
8.588555834E-1,1.322350159E0,2.992127838E0,3.126099243E0,4.524813302E0
8.689355834E-1,5.619314575E-1,3.969146118E0,3.196752319E0,5.127291026E0
8.790155834E-1,-2.110610962E-2,4.506977692E0,2.952460327E0,5.387978783E0
8.890945833E-1,-2.915936279E-1,4.859195251E0,2.934347992E0,5.683942599E0
8.991745834E-1,-4.076023865E-1,5.403613129E0,3.269950104E0,6.329119072E0
9.092545834E-1,1.847158813E-1,6.451134796E0,3.897744598E0,7.539474323E0
9.193335834E-1,1.037642212E0,7.873327332E0,4.523443451E0,9.139339434E0
9.294135834E-1,1.590742035E0,9.381291504E0,5.047952728E0,1.077130063E1
9.394925834E-1,2.321522369E0,1.072355026E1,5.279670868E0,1.217616199E1
9.495725834E-1,3.072959747E0,1.187645279E1,5.025050354E0,1.325686024E1
9.596525833E-1,3.945644989E0,1.272997787E1,4.376449127E0,1.402760700E1
9.697315834E-1,5.050497437E0,1.299717224E1,3.815565491E0,1.445657465E1
9.798115834E-1,5.219795380E0,1.336286179E1,3.536994781E0,1.477574604E1
9.898915833E-1,4.312232666E0,1.317979248E1,3.972439270E0,1.442506687E1
9.999705834E-1,3.244652710E0,1.324176361E1,4.886139221E0,1.448262515E1
1.010050583E0,2.948718109E0,1.389186172E1,5.954168243E0,1.539905452E1
1.020129583E0,3.167712708E0,1.501946686E1,6.665638733E0,1.673468040E1
1.030209583E0,3.658092957E0,1.630170044E1,7.073241119E0,1.814270711E1
1.040289583E0,4.293970642E0,1.742227020E1,7.401658173E0,1.941026086E1
1.050368583E0,4.903503113E0,1.823103836E1,7.499704285E0,2.031405097E1
1.060448583E0,5.256469116E0,1.893741943E1,7.390581207E0,2.099707153E1
1.070528583E0,5.718258820E0,1.959365479E1,7.264842682E0,2.166535785E1
1.080607583E0,5.924829254E0,2.012325348E1,7.233108673E0,2.218933963E1
1.090687583E0,5.622158661E0,2.041454773E1,6.896309052E0,2.226929513E1
1.100766583E0,5.246439972E0,2.040242294E1,6.368207245E0,2.200768179E1
1.110846583E0,5.143903198E0,2.029015640E1,5.952821045E0,2.176203725E1
1.120926583E0,5.204227753E0,2.027922913E1,5.581293640E0,2.166753237E1
1.131005583E0,5.245392151E0,2.042532532E1,5.450914764E0,2.178119659E1
1.141085583E0,5.479954376E0,2.074880264E1,5.688171387E0,2.220130638E1
1.151165583E0,6.237978058E0,2.090702362E1,5.790857849E0,2.257321514E1
1.161244583E0,7.168742523E0,2.070584198E1,5.609135742E0,2.261824850E1
1.171324583E0,8.012687531E0,2.056064392E1,5.360203400E0,2.270847904E1
1.181403583E0,8.984766083E0,2.015977753E1,4.983885956E0,2.262701418E1
1.191483583E0,9.693991241E0,1.968092331E1,4.542902985E0,2.240424460E1
1.201563583E0,1.001956421E1,1.905761948E1,3.968547363E0,2.189369533E1
1.211642583E0,9.567354584E0,1.787627609E1,3.244652710E0,2.053346760E1
1.221722583E0,8.663534088E0,1.623598709E1,2.396366730E0,1.855819693E1
1.231802583E0,7.811805267E0,1.425725189E1,1.634600830E0,1.633907748E1
1.241881583E0,6.750661926E0,1.222552689E1,1.073268127E0,1.400667157E1
1.251962042E0,5.702840881E0,1.023646317E1,5.150788879E-1,1.172914654E1
1.262041042E0,4.804858246E0,8.253985748E0,1.942959595E-1,9.552627618E0
1.272121042E0,3.953578491E0,6.335425415E0,2.814147949E-2,7.467877210E0
1.282201042E0,3.122656403E0,4.445455627E0,-8.322692871E-2,5.433229745E0
1.292280042E0,2.302212524E0,2.636766815E0,-9.475296021E-2,3.501671011E0
1.302360042E0,1.419498138E0,1.219813385E0,-1.577719116E-1,1.878246958E0
1.312440042E0,5.837860107E-1,1.133143616E-1,-1.451980591E-1,6.121509023E-1
1.322519042E0,-3.158432007E-2,-6.222560120E-1,4.340972900E-2,6.245674649E-1
1.332599042E0,-3.550616455E-1,-9.141490173E-1,2.757266235E-1,1.018706223E0
1.342678042E0,-7.604187012E-1,-1.105002136E0,5.266049194E-1,1.441034026E0
1.352758042E0,-1.174906769E0,-1.225950623E0,6.945556641E-1,1.834603067E0
1.362838042E0,-1.349892883E0,-1.331780548E0,6.015989685E-1,1.989414875E0
1.372917042E0,-1.340312805E0,-1.401984558E0,4.607418823E-1,1.993560182E0
1.382997042E0,-1.375938721E0,-1.458267517E0,3.330574036E-1,2.032407132E0
1.393077042E0,-1.475332031E0,-1.487157440E0,2.860551453E-1,2.114253864E0
1.403156042E0,-1.734443207E0,-1.506467285E0,2.917433167E-1,2.315783039E0
1.413236042E0,-1.935774536E0,-1.546284485E0,4.225712585E-1,2.513321554E0
1.423315042E0,-2.003284149E0,-1.595831451E0,4.369413757E-1,2.598219230E0
1.433395042E0,-2.117047577E0,-1.662293243E0,3.071612549E-1,2.709143279E0
1.443475042E0,-2.149080963E0,-1.739382935E0,3.382965088E-2,2.764985791E0
1.453554042E0,-2.043101349E0,-1.827998657E0,-2.636018372E-1,2.754147444E0
1.463634042E0,-1.820963287E0,-1.887874146E0,-6.355783081E-1,2.698876779E0
1.473714042E0,-1.574276276E0,-1.907782745E0,-9.698332214E-1,2.656794548E0
1.483793042E0,-1.223405914E0,-1.895957336E0,-1.028211823E0,2.479636224E0
1.493873042E0,-9.644444275E-1,-1.843266907E0,-9.794132996E-1,2.299355639E0
1.503952042E0,-6.586303711E-1,-1.116977234E0,-7.539820862E-1,1.499973697E0
1.514032042E0,-2.415975952E-1,-2.544708252E-1,-2.574645996E-1,4.352158303E-1
1.524112042E0,-3.032693481E-1,1.496887207E-2,3.252735901E-1,4.449710924E-1
1.534191042E0,-3.555107117E-1,3.532653809E-1,6.673123169E-1,8.345597784E-1
1.544271042E0,-3.842509460E-1,6.879693604E-1,8.649014282E-1,1.170044918E0
1.554351042E0,-3.847000122E-1,9.364526367E-1,1.039139099E0,1.450774865E0
1.564430042E0,-3.764671326E-1,1.178199921E0,1.294208679E0,1.790211904E0
1.574510042E0,-3.858975220E-1,1.388362885E0,1.743574219E0,2.261972470E0
1.584589042E0,-4.285588074E-1,1.700763245E0,2.496807861E0,3.051279693E0
1.594669042E0,-4.833448792E-1,2.420616302E0,3.549718323E0,4.323598701E0
1.604749042E0,-5.240602112E-1,4.916675720E0,4.508324890E0,6.691287810E0
1.614828042E0,3.717519379E0,2.000934036E1,4.934039612E0,2.094130843E1
1.624908042E0,1.107247467E1,4.101875107E1,4.657115479E0,4.274138930E1
1.634988042E0,1.306962158E1,3.951408005E1,3.596271515E0,4.177452213E1
1.645067042E0,1.136167328E1,3.359314270E1,-6.539900208E-1,3.546850094E1
1.655147042E0,9.762997742E0,2.515234543E1,-4.544848938E0,2.736077955E1
1.665226042E0,8.601263580E0,1.984797592E1,-4.575834503E0,2.211022715E1
1.675306042E0,8.397836609E0,1.965278183E1,-2.797682190E0,2.155417637E1
1.685386042E0,9.486672363E0,1.962329315E1,-3.935316467E-1,2.179966637E1
1.695465042E0,9.879006500E0,1.838686432E1,1.224603424E0,2.090863942E1
1.705545042E0,8.802744598E0,1.654808807E1,1.281185760E0,1.878746838E1
1.715625042E0,6.753356323E0,1.454585175E1,7.843688965E-1,1.605630279E1
1.725704042E0,6.204298096E0,1.278012360E1,5.930667114E-1,1.421888189E1
1.735784042E0,6.129154358E0,1.108909012E1,6.587800598E-1,1.268733400E1
1.745863042E0,5.966293030E0,9.892777863E0,6.137237549E-1,1.156893959E1
1.755943042E0,4.711302795E0,9.884095917E0,5.051994324E-1,1.096115654E1
1.766023042E0,3.369493103E0,1.016835480E1,5.668711853E-1,1.072708096E1
1.776102042E0,3.064726868E0,9.999805298E0,6.682104492E-1,1.048022719E1
1.786182042E0,2.574196930E0,9.463919678E0,8.592132568E-1,9.845329498E0
1.796262042E0,1.965412903E0,8.559799805E0,1.046324158E0,8.844648937E0
1.806341042E0,1.473086700E0,7.626191254E0,1.016087036E0,7.833339666E0
1.816421042E0,1.132095795E0,6.581813049E0,8.452922058E-1,6.731747382E0
1.826500042E0,9.756710815E-1,5.556445312E0,6.497987366E-1,5.678754878E0
1.836580042E0,8.901988220E-1,4.756508789E0,4.972659302E-1,4.864576365E0
1.846660042E0,9.654922485E-1,4.427792358E0,5.164260864E-1,4.561163925E0
1.856739042E0,1.499132538E0,4.577331390E0,6.903643799E-1,4.865795310E0
1.866819042E0,1.900597687E0,4.915478210E0,1.119821320E0,5.387782233E0
1.876899042E0,1.846709747E0,5.504802704E0,1.661395111E0,6.039323092E0
1.886978042E0,1.766027527E0,6.210734711E0,2.067650299E0,6.779915680E0
1.897058042E0,1.643582153E0,6.751560059E0,2.281106415E0,7.313574502E0
1.907137042E0,1.536554718E0,7.195985870E0,2.283651123E0,7.704432198E0
1.917217042E0,1.587299194E0,7.579039307E0,2.119442596E0,8.028287019E0
1.927297042E0,1.657054138E0,7.803871765E0,1.832788696E0,8.185680017E0
1.937376042E0,1.823957062E0,7.928712158E0,1.539249115E0,8.280131864E0
1.947456042E0,2.064057770E0,7.949668579E0,1.205892334E0,8.301309614E0
1.957536042E0,2.343526611E0,7.793992310E0,9.339079285E-1,8.192107001E0
1.967615042E0,2.624791718E0,7.542515259E0,7.890092468E-1,8.025060971E0
1.977695042E0,2.776127014E0,7.205416260E0,7.475454712E-1,7.757817277E0
1.987774042E0,2.768941956E0,6.702162781E0,7.620652771E-1,7.291554634E0
1.997854042E0,2.669099579E0,6.055058441E0,7.631130981E-1,6.661093520E0
2.007934042E0,2.472408600E0,5.347928925E0,6.979985046E-1,5.932988284E0
2.018013042E0,2.203717346E0,4.637506256E0,6.292913818E-1,5.172894940E0
2.028093042E0,1.932032318E0,4.018244019E0,5.661227417E-1,4.494388594E0
2.038172042E0,1.654509430E0,3.476670227E0,5.252577209E-1,3.885940426E0
2.048252042E0,1.375938721E0,3.149300995E0,4.887336731E-1,3.471334718E0
2.058332042E0,1.180594940E0,2.848276978E0,5.198689270E-1,3.126779470E0
2.068411042E0,8.729846191E-1,2.850671997E0,6.355783081E-1,3.048342626E0
2.078491042E0,5.794450378E-1,3.131038971E0,9.204359436E-1,3.314568436E0
2.088571042E0,3.046165466E-1,3.703748016E0,1.336570587E0,3.949298867E0
2.098650042E0,2.273771667E-1,4.273014221E0,1.969903564E0,4.710718731E0
2.108730042E0,2.944377136E-1,4.971312103E0,2.611768799E0,5.623341876E0
2.118810042E0,3.447331238E-1,5.903872833E0,3.163521423E0,6.706893704E0
2.128889042E0,6.152206421E-1,7.160210266E0,3.663332062E0,8.066418616E0
2.138969042E0,1.151255951E0,8.776549072E0,4.129013672E0,9.767392579E0
2.149048042E0,1.902992706E0,1.067550018E1,4.655917969E0,1.180107019E1
2.159128042E0,2.817740479E0,1.266725830E1,5.273982697E0,1.400764033E1
2.169208042E0,3.560645599E0,1.480556168E1,5.622757416E0,1.623262932E1
2.179287042E0,3.911366272E0,1.719549179E1,5.233566742E0,1.839494346E1
2.189367042E0,4.237837372E0,1.962359253E1,3.923790436E0,2.045582511E1
2.199446042E0,4.702022095E0,2.126627655E1,2.245031433E0,2.189528936E1
2.209526042E0,5.977220306E0,2.291120590E1,1.094972992E0,2.370336441E1
2.219606042E0,8.098459167E0,2.336341553E1,3.860472107E-1,2.473020943E1
2.229685042E0,1.004965164E1,2.321537338E1,5.986051941E-1,2.530429583E1
2.239765042E0,1.084869003E1,2.393223267E1,1.012195129E0,2.629582428E1
2.249845042E0,1.058134598E1,2.524694870E1,1.254541168E0,2.740341539E1
2.259924042E0,1.028032196E1,2.656540695E1,1.519939270E0,2.852570913E1
2.270004042E0,9.670340424E0,2.745919830E1,2.065105591E0,2.918540246E1
2.280083042E0,8.639733582E0,2.750560181E1,2.518662415E0,2.894040061E1
2.290163042E0,7.684569855E0,2.724768814E1,2.149979095E0,2.839210336E1
2.300243042E0,6.922354889E0,2.640853317E1,1.412163391E0,2.733722420E1
2.310322042E0,6.816974030E0,2.493409927E1,8.860075378E-1,2.586436643E1
2.320402042E0,6.520889740E0,2.309502365E1,4.929249573E-1,2.400302263E1
2.330482042E0,5.746699677E0,2.114547775E1,3.656895447E-1,2.191550856E1
2.340561042E0,5.109025726E0,1.882051254E1,5.019062805E-1,1.950809438E1
2.350641042E0,4.607718201E0,1.628074402E1,6.677613831E-1,1.693338708E1
2.360720042E0,3.937561798E0,1.365131195E1,7.108717346E-1,1.422561245E1
2.370800042E0,2.958298187E0,1.101813766E1,7.096742249E-1,1.143042096E1
2.380880042E0,1.966161346E0,8.309220886E0,5.801934814E-1,8.558362381E0
2.390959042E0,1.103654938E0,5.727988586E0,3.553610229E-1,5.844158530E0
2.401039042E0,3.730242920E-1,3.491339722E0,6.436614990E-2,3.511800560E0
2.411119042E0,-4.640350342E-2,1.727856903E0,-2.589614868E-1,1.747771099E0
2.421198042E0,-4.305047607E-1,2.444416809E-1,-4.352947998E-1,6.592174506E-1
2.431278042E0,-7.614665222E-1,-9.861492920E-1,-4.450245667E-1,1.323014949E0
2.441357042E0,-8.571176147E-1,-1.621727600E0,-3.412902832E-1,1.865778677E0
2.451437042E0,-1.003363495E0,-1.793270874E0,-2.724334717E-1,2.072867272E0
2.461517042E0,-1.145867157E0,-1.818867645E0,-2.492317200E-1,2.164118181E0
2.471596042E0,-1.337768097E0,-1.873803406E0,-3.354524231E-1,2.326648021E0
2.481676042E0,-1.442999268E0,-1.934577026E0,-4.822970581E-1,2.461187845E0
2.491755042E0,-1.561103668E0,-1.966760101E0,-5.748046875E-1,2.575963973E0
2.501835042E0,-1.724563751E0,-1.938169556E0,-3.606001282E-1,2.619284981E0
2.511915042E0,-1.783241730E0,-1.877545624E0,1.242416382E-2,2.589456120E0
2.521994042E0,-1.783840485E0,-1.854643250E0,4.861889648E-1,2.618810449E0
2.532074042E0,-1.618584137E0,-1.752555542E0,7.728428650E-1,2.507698473E0
2.542154042E0,-1.387315063E0,-1.720073090E0,7.800279236E-1,2.343445771E0
2.552233042E0,-1.024020538E0,-1.742077332E0,6.065386963E-1,2.109820059E0
2.562313042E0,-5.810916138E-1,-1.752405853E0,3.698808289E-1,1.882924737E0
2.572392042E0,-2.164498901E-1,-1.681902466E0,1.498384094E-1,1.702380101E0
2.582472042E0,5.927673340E-2,-1.569785614E0,-3.098556519E-2,1.571209951E0
2.592552042E0,3.210823059E-1,-1.427431641E0,-2.050735474E-2,1.463241432E0
2.602631042E0,5.031037903E-1,-1.226399689E0,1.633103943E-1,1.335604696E0
2.612711042E0,4.230203247E-1,-5.269042969E-1,2.954855347E-1,7.374862944E-1
2.622791042E0,3.073109436E-1,1.347198486E-2,3.466790771E-1,4.634737241E-1
2.632870042E0,3.137475586E-1,1.203497314E-1,3.841012573E-1,5.103482774E-1
2.642950042E0,9.011260986E-2,1.724414062E-1,4.418811035E-1,4.828200811E-1
2.653029042E0,-1.252894592E-1,1.513352966E-1,4.713697815E-1,5.106753289E-1
2.663109042E0,-3.243754578E-1,9.340576172E-2,5.516029358E-1,6.466914818E-1
2.673189042E0,-3.745211792E-1,8.846603394E-2,6.430627441E-1,7.494144686E-1
2.683268042E0,-2.288740540E-1,1.932481384E-1,6.812333679E-1,7.441821532E-1
2.693348042E0,-2.993774414E-3,4.519102478E-1,7.168592834E-1,8.474190622E-1
2.703428042E0,1.416055298E-1,7.762857056E-1,8.080197144E-1,1.129410236E0
2.713507042E0,1.196012878E-1,9.997709656E-1,1.007405090E0,1.424328427E0
2.723587042E0,5.313949585E-2,1.221759338E0,1.676663361E0,2.075263769E0
2.733666042E0,6.750961304E-2,1.699715424E0,3.251538391E0,3.669617416E0
2.743746042E0,-1.224453735E-1,2.604583740E0,5.690566406E0,6.259504402E0
2.753826042E0,4.813989258E-1,6.361321564E0,7.180268555E0,9.604916110E0
2.763905042E0,1.274120453E1,3.985881317E1,7.749385071E0,4.255721148E1
2.773985042E0,1.648327286E1,5.199123367E1,6.825506287E0,5.496702829E1
2.784064042E0,1.369741608E1,4.562362518E1,-2.801125031E0,4.771771876E1
2.794144042E0,8.486901398E0,4.034440338E1,-7.638914795E0,4.192912352E1
2.804224042E0,4.037104797E0,3.112327881E1,-6.052364044E0,3.196228730E1
2.814303042E0,3.523223419E0,2.300431229E1,-3.821852417E0,2.358427533E1
2.824383042E0,7.041357422E0,2.059582077E1,-2.339934082E0,2.189163856E1
2.834463042E0,7.961643677E0,2.057815750E1,-1.113534393E0,2.209272041E1
2.844542042E0,5.770350494E0,2.017699173E1,1.481918335E-1,2.098642182E1
2.854622042E0,4.413571930E0,1.888173523E1,5.557942200E-1,1.939867134E1
2.864701042E0,4.079915771E0,1.687141571E1,1.669029236E-1,1.735852060E1
2.874781042E0,4.209396515E0,1.469075043E1,-6.132746887E-1,1.529422352E1
2.884861042E0,4.148323517E0,1.290646088E1,-1.586101685E0,1.364921386E1
2.894940042E0,3.559298401E0,1.136212234E1,-2.378404083E0,1.214179704E1
2.905020042E0,2.912044373E0,9.935439148E0,-2.758014679E0,1.071445745E1
2.915100042E0,2.269131317E0,8.464298401E0,-2.717898102E0,9.174980896E0
2.925179042E0,1.692829742E0,6.795418854E0,-2.474354553E0,7.427369682E0
2.935259042E0,1.117575989E0,5.253175964E0,-2.176174622E0,5.794874441E0
2.945338042E0,8.445437622E-1,4.278852081E0,-1.790726166E0,4.714714148E0
2.955418042E0,7.770341492E-1,3.494183807E0,-1.156944122E0,3.761864199E0
2.965498042E0,6.268963623E-1,2.891986084E0,-3.495231628E-1,2.979722974E0
2.975577042E0,5.439688110E-1,2.537972260E0,4.846920776E-1,2.640479439E0
2.985657042E0,4.992118835E-1,2.323618011E0,1.065334625E0,2.604486712E0
2.995737042E0,3.845503235E-1,2.240989838E0,1.504521332E0,2.726444359E0
3.005816042E0,2.644999695E-1,2.381697235E0,1.813329163E0,3.005096439E0
3.015896042E0,6.361770630E-2,2.740201721E0,1.920506287E0,3.346804010E0
3.025975042E0,-1.023870850E-1,3.459755402E0,2.008972321E0,4.002044520E0
3.036055042E0,1.601669312E-2,4.602030029E0,2.038610687E0,5.033375653E0
3.046135042E0,4.828958130E-1,5.931714935E0,1.795965271E0,6.216423545E0
3.056214042E0,1.104253693E0,7.217990112E0,1.345102844E0,7.424827213E0
3.066294042E0,1.639989624E0,8.295748901E0,8.509803772E-1,8.499010731E0
3.076373042E0,2.157762909E0,9.196575623E0,3.125500488E-1,9.451488321E0
3.086453042E0,2.709665222E0,1.006132736E1,-1.606159973E-1,1.042105520E1
3.096533042E0,3.238665161E0,1.083387085E1,-5.159770203E-1,1.131936137E1
3.106612042E0,3.584895172E0,1.149878815E1,-7.547305298E-1,1.206827330E1
3.116692042E0,3.722309418E0,1.196267349E1,-9.210346985E-1,1.256222311E1
3.126772042E0,3.802991638E0,1.191327621E1,-1.059047699E0,1.255031783E1
3.136851042E0,3.674409027E0,1.112591354E1,-1.165775757E0,1.177481495E1
3.146931042E0,3.219954071E0,1.009635452E1,-1.206491089E0,1.066583797E1
3.157010042E0,2.728975067E0,9.034013672E0,-1.134640503E0,9.505162650E0
3.167090042E0,2.207908630E0,7.787705383E0,-1.051263885E0,8.162620377E0
3.177170042E0,1.857786713E0,6.373745728E0,-1.049018555E0,6.721342574E0
3.187249042E0,1.835034027E0,5.137616272E0,-1.075812836E0,5.560559693E0
3.197329042E0,1.495689697E0,3.895648956E0,-1.018781433E0,4.295472508E0
3.207409042E0,1.124162292E0,2.763403473E0,-9.132508850E-1,3.119962627E0
3.217488042E0,6.198609924E-1,1.817221069E0,-7.532336426E-1,2.062493875E0
3.227568042E0,1.318757629E-1,9.005273438E-1,-5.469625854E-1,1.061842165E0
3.237647042E0,-2.168989563E-1,2.604583740E-1,-4.034111023E-1,5.269005972E-1
3.247727042E0,-5.231620789E-1,-1.303788757E-1,-2.409988403E-1,5.905740030E-1
3.257807042E0,-8.994795227E-1,-1.842668152E-1,-5.718109131E-2,9.199387741E-1
3.267886042E0,-1.066981201E0,4.507127380E-1,1.380130005E-1,1.166464078E0
3.277966042E0,-6.581813049E-1,1.592388611E0,5.251080322E-1,1.801289139E0
3.288045042E0,-6.039939880E-1,3.037333832E0,1.147214355E0,3.302469730E0
3.298125042E0,-5.677693176E-1,4.286785583E0,1.935175781E0,4.737488569E0
3.308205042E0,3.921844482E-2,5.454507294E0,2.852767639E0,6.155604853E0
3.318284042E0,3.360511780E-1,7.093000031E0,3.687731323E0,8.001433755E0
3.328364042E0,4.703219604E-1,9.300758972E0,4.143832855E0,1.019297164E1
3.338444042E0,1.039887543E0,1.193647797E1,4.633165283E0,1.284628712E1
3.348523042E0,1.792672119E0,1.452519470E1,5.210364990E0,1.553521348E1
3.358603042E0,2.626138916E0,1.679148193E1,5.626649323E0,1.790278341E1
3.368682042E0,3.568579102E0,1.897993103E1,5.878126373E0,2.018724618E1
3.378762042E0,4.502187653E0,2.053340057E1,5.562732239E0,2.174475161E1
3.388842042E0,5.295687561E0,2.101599701E1,4.674030304E0,2.217122000E1
3.398921042E0,5.662724304E0,2.123289597E1,3.472179565E0,2.224765940E1
3.409001042E0,5.609285431E0,2.182087326E1,2.593207397E0,2.267905019E1
3.419080042E0,5.502257996E0,2.248085083E1,2.250869293E0,2.325359993E1
3.429160042E0,5.629643097E0,2.311583038E1,2.402054901E0,2.391243115E1
3.439240042E0,5.493126984E0,2.398028275E1,2.952759705E0,2.477795784E1
3.449319042E0,5.243595886E0,2.507540543E1,3.521127777E0,2.585864644E1
3.459399042E0,5.107079773E0,2.614897293E1,3.702999573E0,2.689913112E1
3.469479042E0,4.841681671E0,2.665072952E1,3.614832916E0,2.732709795E1
3.479558042E0,4.516258392E0,2.648188065E1,3.150498505E0,2.704833143E1
3.489638042E0,4.050726471E0,2.558135330E1,2.498454437E0,2.602030546E1
3.499717042E0,4.014352112E0,2.467648499E1,1.763482819E0,2.506299674E1
3.509797042E0,4.688849487E0,2.454206451E1,9.894424438E-1,2.500554411E1
3.519877042E0,4.736450500E0,2.454011856E1,3.623963928E-1,2.499565389E1
3.529956042E0,3.988905029E0,2.400902298E1,1.034349060E-1,2.433834930E1
3.540036042E0,3.553310852E0,2.252411087E1,1.727407837E-1,2.280332055E1
3.550115042E0,3.668122101E0,2.049702621E1,7.783813477E-2,2.082280630E1
3.560195042E0,3.682492218E0,1.833716766E1,-2.724334717E-1,1.870525827E1
3.570275042E0,3.261717224E0,1.576776077E1,-5.779481506E-1,1.611195528E1
3.580354042E0,2.496807861E0,1.298190399E1,-8.526269531E-1,1.324729608E1
3.590434042E0,1.785936127E0,1.005069946E1,-9.562115479E-1,1.025282732E1
3.600514042E0,1.193617859E0,7.387138367E0,-6.725514221E-1,7.513112688E0
3.610593042E0,7.068301392E-1,4.976102142E0,-1.405577087E-1,5.028017288E0
3.620673042E0,3.347039795E-1,3.146606598E0,2.567161560E-1,3.174754009E0
3.630752042E0,-6.002517700E-2,1.875300293E0,4.805007935E-1,1.936810580E0
3.640832042E0,-4.150868225E-1,8.345146179E-1,7.008425903E-1,1.166144097E0
3.650912042E0,-6.325845337E-1,-1.481918335E-1,8.928932190E-1,1.104256452E0
3.660991042E0,-7.635621643E-1,-8.018824768E-1,9.078620911E-1,1.431871594E0
3.671071042E0,-9.611512756E-1,-1.289268951E0,7.831713867E-1,1.788682092E0
3.681151042E0,-1.138981476E0,-1.573976898E0,7.493417358E-1,2.082353264E0
3.691230042E0,-1.230291595E0,-1.644480286E0,8.430468750E-1,2.220058750E0
3.701310042E0,-1.329984283E0,-1.751956787E0,9.104067993E-1,2.380556934E0
3.711389042E0,-1.458267517E0,-1.836231537E0,8.566685486E-1,2.496431736E0
3.721469042E0,-1.614243164E0,-1.934127960E0,7.629634094E-1,2.632250961E0
3.731549042E0,-1.820514221E0,-2.078876953E0,7.056326294E-1,2.852002599E0
3.741628042E0,-1.875150604E0,-2.247576141E0,6.988966370E-1,3.009359535E0
3.751708042E0,-1.898352356E0,-2.265538788E0,7.473957825E-1,3.048771576E0
3.761787042E0,-1.821412354E0,-2.224673767E0,7.334747314E-1,2.967271729E0
3.771867042E0,-1.390458527E0,-2.121687927E0,6.846762085E-1,2.627492357E0
3.781947042E0,-7.741900635E-1,-1.942809906E0,6.578819275E-1,2.192416296E0
3.792026042E0,-8.652008057E-2,-1.668729858E0,5.748046875E-1,1.767072577E0
3.802106042E0,2.896476746E-1,-1.278491364E0,3.118016052E-1,1.347462869E0
3.812186042E0,5.307962036E-1,-9.508227539E-1,5.718109131E-2,1.090448622E0
3.822265042E0,7.867639160E-1,-7.827223206E-1,-1.420545959E-1,1.118852626E0
3.832345042E0,9.321116638E-1,-6.963519287E-1,-2.550695801E-1,1.191133348E0
3.842424042E0,9.848020935E-1,-6.810836792E-1,-2.740800476E-1,1.228344420E0
3.852504042E0,9.821076965E-1,-6.508465576E-1,-2.338137817E-1,1.201168453E0
3.862584042E0,9.630972290E-1,-6.852749634E-1,-1.927990723E-1,1.197634974E0
3.872663042E0,9.665400696E-1,-7.397616577E-1,-1.230441284E-1,1.223350675E0
3.882743042E0,9.589059448E-1,-6.349795532E-1,-4.086502075E-2,1.150812580E0
3.892823042E0,7.491920471E-1,-6.709048462E-1,5.074447632E-2,1.006964268E0
3.902902042E0,1.401086426E-1,-3.185375977E-1,2.637515259E-1,4.366480279E-1
3.912982042E0,2.504292297E-1,1.927990723E-1,6.242019653E-1,6.996530389E-1
3.923061042E0,4.552033997E-1,6.018983459E-1,1.016685791E0,1.266152341E0
3.933141042E0,3.212319946E-1,7.667056274E-1,1.585652618E0,1.790341236E0
3.943221042E0,2.923420715E-1,1.026864624E0,2.446662140E0,2.669470073E0
3.953300042E0,3.538641357E-1,1.476679230E0,4.147874451E0,4.417087709E0
3.963380042E0,5.990542603E-1,2.501298523E0,6.633305969E0,7.114499869E0
3.973459042E0,9.526190186E-1,5.378465424E0,6.870861969E0,8.777477856E0
3.983539042E0,1.275632309E1,3.911321365E1,5.467380524E0,4.150252415E1
3.993619042E0,1.725207413E1,6.472330719E1,1.879042511E0,6.700948706E1
4.003698042E0,8.208330688E0,4.516138641E1,-8.244854736E0,4.663587830E1
4.013778042E0,1.165476379E0,3.864648422E1,-9.669442291E0,3.985482646E1
4.023857042E0,-3.116818542E0,2.750575150E1,-6.317163391E0,2.839344073E1
4.033937042E0,-4.252506866E0,2.151610703E1,-3.702101440E0,2.224257699E1
4.044017042E0,-2.236349487E0,1.917692139E1,-2.460433502E0,1.946302407E1
4.054096042E0,2.714305573E0,1.797237625E1,-1.875749359E0,1.827271733E1
4.064176042E0,3.943998413E0,1.754890686E1,-1.554816742E0,1.805371736E1
4.074256042E0,3.294349365E0,1.689102493E1,-1.399439850E0,1.726609084E1
4.084335042E0,1.895957336E0,1.483355347E1,-1.666783905E0,1.504683127E1
4.094415042E0,2.725532227E0,1.264929565E1,-1.916464691E0,1.308075087E1
4.104494042E0,2.544558563E0,1.107666595E1,-1.869312744E0,1.151788336E1
4.114574042E0,1.213077393E0,9.980794830E0,-1.452878723E0,1.015867505E1
4.124654042E0,3.906875610E-1,8.998088379E0,-9.815089417E-1,9.059889130E0
4.134733042E0,3.742218018E-3,8.242459717E0,-7.800279236E-1,8.279287394E0
4.144813042E0,-1.815724182E-1,7.516768799E0,-8.250842285E-1,7.564095828E0
4.154892042E0,-1.043330383E-1,6.808292084E0,-8.541238403E-1,6.862452478E0
4.164972042E0,-8.487350464E-2,6.226002960E0,-8.174501038E-1,6.280011230E0
4.175052042E0,-2.625540161E-1,5.782026215E0,-5.843847656E-1,5.817410705E0
4.185131042E0,-4.555027771E-1,5.385500793E0,-3.020718384E-1,5.413164414E0
4.195211042E0,-6.150709534E-1,4.960833893E0,4.041595459E-2,4.998981760E0
4.205291042E0,-4.089495850E-1,4.760101318E0,5.604345703E-1,4.810394083E0
4.215370042E0,4.864883423E-2,4.595144348E0,9.075627136E-1,4.684163572E0
4.225450042E0,4.926255798E-1,4.581522675E0,1.015338593E0,4.718468230E0
4.235529042E0,9.255253601E-1,4.766238556E0,9.506730652E-1,4.947464648E0
4.245609042E0,1.233135681E0,5.308860168E0,9.220825195E-1,5.527644713E0
4.255688917E0,1.460512848E0,5.916446686E0,1.013242950E0,6.177709967E0
4.265767917E0,1.635349274E0,6.519991608E0,1.125359802E0,6.815503833E0
4.275847917E0,1.758393402E0,7.272476807E0,1.145268402E0,7.569181328E0
4.285926917E0,1.770069122E0,8.083041229E0,9.277706909E-1,8.326431328E0
4.296006917E0,1.712139587E0,9.079069977E0,5.486091614E-1,9.255371717E0
4.306086917E0,1.677561493E0,1.013692017E1,1.332229614E-1,1.027565625E1
4.316165917E0,1.613195343E0,1.107816284E1,-2.270777893E-1,1.119730572E1
4.326245917E0,1.579665070E0,1.160476776E1,-5.492079163E-1,1.172465803E1
4.336325917E0,1.664089508E0,1.168604874E1,-7.259902954E-1,1.182624162E1
4.346404917E0,1.922751617E0,1.146256348E1,-7.902067566E-1,1.164953913E1
4.356484917E0,2.048190765E0,1.096020813E1,-8.219407654E-1,1.118019831E1
4.366563917E0,2.101779327E0,1.015787659E1,-7.387138367E-1,1.039930917E1
4.376643917E0,1.998045044E0,9.226064301E0,-6.412664795E-1,9.461694836E0
4.386723917E0,1.772613831E0,8.222700806E0,-5.670208740E-1,8.430686864E0
4.396802917E0,1.489103394E0,7.225923615E0,-4.619393921E-1,7.392211374E0
4.406882917E0,1.150657196E0,6.185587006E0,-3.436853027E-1,6.301080715E0
4.416961917E0,8.135581970E-1,5.119354248E0,-2.438429260E-1,5.189327917E0
4.427041917E0,5.445675659E-1,4.261637878E0,-1.273851013E-1,4.298178475E0
4.437121917E0,2.242337036E-1,3.405717773E0,-1.347198486E-2,3.413118193E0
4.447200917E0,-6.661148071E-2,2.816243591E0,-2.335144043E-2,2.817128031E0
4.457280917E0,-3.035687256E-1,2.361638947E0,-5.568420410E-2,2.381720642E0
4.467360917E0,-4.993615723E-1,1.969753876E0,-1.517843628E-1,2.037726872E0
4.477439917E0,-5.568420410E-1,1.780247955E0,-2.947370911E-1,1.888445338E0
4.487519917E0,-4.709207153E-1,2.150128784E0,-4.318519592E-1,2.243059568E0
4.497598917E0,7.364685059E-2,2.911744995E0,-5.159770203E-1,2.958025534E0
4.507678917E0,2.966830444E-1,2.881358185E0,-4.005670166E-1,2.924157956E0
4.517758917E0,2.453398132E-1,3.284320221E0,-1.005908203E-1,3.295006745E0
4.527837917E0,2.339634705E-1,3.967050476E0,4.731660461E-1,4.002013805E0
4.537917917E0,-1.871109009E-1,4.780309296E0,1.096320190E0,4.907981806E0
4.547996917E0,-5.911207581E-1,6.042783966E0,1.878892822E0,6.355698235E0
4.558076917E0,-8.909472656E-1,7.853269043E0,2.946023712E0,8.434848985E0
4.568156917E0,-1.274000702E0,9.950258331E0,4.338278503E0,1.092938146E1
4.578235917E0,-1.675465851E0,1.263148270E1,5.973927155E0,1.407300062E1
4.588315917E0,-1.442849579E0,1.526795013E1,7.207661591E0,1.694527963E1
4.598395917E0,2.874023438E-2,1.766686157E1,7.574548645E0,1.922219059E1
4.608474917E0,1.513502655E0,2.093277008E1,6.787784729E0,2.205777811E1
4.618554917E0,1.317709808E0,2.365545822E1,6.077511749E0,2.445921527E1
4.628633917E0,4.249662781E-1,2.474010269E1,5.054988098E0,2.525482493E1
4.638713917E0,4.445755005E-1,2.375425278E1,3.313509521E0,2.398836213E1
4.648793917E0,1.665436707E0,2.184572159E1,2.213447113E0,2.202063985E1
4.658872917E0,2.262245636E0,2.114502869E1,1.716480560E0,2.133486112E1
4.668952917E0,1.555415497E0,2.185470291E1,1.304088135E0,2.194875857E1
4.679031917E0,9.614506531E-1,2.334799759E1,1.498234406E0,2.341576574E1
4.689111917E0,6.396199036E-1,2.490745468E1,1.982178040E0,2.499438821E1
4.699191917E0,4.317022705E-1,2.581816086E1,2.448308716E0,2.593757916E1
4.709270917E0,4.330494690E-1,2.589734619E1,2.762954407E0,2.604791717E1
4.719350917E0,7.828720093E-1,2.550830521E1,2.666105804E0,2.565920192E1
4.729429917E0,1.286275177E0,2.509351776E1,1.930535431E0,2.520051794E1
4.739509917E0,1.246158600E0,2.487691818E1,8.156538391E-1,2.492146185E1
4.749589917E0,7.744894409E-1,2.468875946E1,-2.859054565E-1,2.470255897E1
4.759668917E0,5.132826233E-1,2.407488602E1,-9.500743103E-1,2.409909204E1
4.769748917E0,8.104147339E-1,2.269924667E1,-1.034349060E0,2.273724806E1
4.779828917E0,1.221459961E0,2.099983063E1,-7.478448486E-1,2.104861332E1
4.789907917E0,1.699266357E0,1.883757706E1,-3.047662354E-1,1.891651918E1
4.799987917E0,2.017654266E0,1.624751312E1,-1.133143616E-1,1.637270447E1
4.810066917E0,1.694027252E0,1.345042969E1,-3.121009827E-1,1.356028002E1
4.820146917E0,1.364113312E0,1.059332108E1,-6.500981140E-1,1.070055532E1
4.830226917E0,1.165775757E0,7.785310364E0,-7.551795959E-1,7.908248023E0
4.840305917E0,9.068142700E-1,5.326224060E0,-4.815486145E-1,5.424284647E0
4.850385917E0,7.083270264E-1,3.419339447E0,-2.933898926E-2,3.492058162E0
4.860464917E0,6.307882690E-1,1.914518738E0,3.465293884E-1,2.045326002E0
4.870544917E0,3.872447205E-1,9.369017029E-1,5.893244934E-1,1.172623824E0
4.880624917E0,1.040336609E-1,-5.523513794E-2,7.264393616E-1,7.359266737E-1
4.890703917E0,-1.047821045E-1,-6.915618896E-1,7.455995178E-1,1.022328605E0
4.900783917E0,-4.635859680E-1,-1.051712952E0,5.034031677E-1,1.254761663E0
4.910862917E0,-8.348139954E-1,-1.350341949E0,2.688409424E-1,1.610159383E0
4.920942917E0,-1.186432800E0,-1.367705841E0,1.935475159E-1,1.820907109E0
4.931022917E0,-1.429826660E0,-1.365310822E0,2.914439392E-1,1.998353694E0
4.941101917E0,-1.696721649E0,-1.506317596E0,6.297404480E-1,2.354661353E0
4.951181917E0,-1.961520996E0,-1.650767212E0,9.376501465E-1,2.729795744E0
4.961261917E0,-2.144590302E0,-1.745669861E0,1.118623810E0,2.982943186E0
4.971340917E0,-2.106269989E0,-1.865420837E0,1.228195953E0,3.069956590E0
4.981420917E0,-1.740879822E0,-1.878593445E0,1.235381012E0,2.843579106E0
4.991499917E0,-1.095122681E0,-1.750160522E0,1.176403656E0,2.376190460E0
5.001579917E0,-3.213816833E-1,-1.537003784E0,9.163943481E-1,1.818088397E0
5.011659917E0,1.438508606E-1,-1.276246033E0,4.287084961E-1,1.353989653E0
5.021738917E0,3.379971313E-1,-1.100361786E0,-3.876937866E-2,1.151755697E0
5.031818917E0,4.489164734E-1,-9.532177734E-1,-3.974235535E-1,1.126097511E0
5.041898917E0,4.926255798E-1,-8.666976929E-1,-6.007008362E-1,1.163909940E0
5.051977917E0,5.264552307E-1,-8.599617004E-1,-6.298901367E-1,1.188886378E0
5.062057917E0,5.807922363E-1,-8.848100281E-1,-4.908293152E-1,1.166671258E0
5.072136917E0,6.596781921E-1,-9.445358276E-1,-3.113525391E-1,1.193425176E0
5.082216917E0,6.816824341E-1,-9.586065674E-1,-1.682501221E-1,1.188244754E0
5.092296917E0,6.243516541E-1,-1.005908203E0,-4.655319214E-2,1.184834799E0
5.102375917E0,4.246669006E-1,-1.084045715E0,7.304809570E-2,1.166547519E0
5.112455917E0,-7.768844604E-2,-1.119671631E0,2.122586060E-1,1.142258189E0
5.122534917E0,-2.900967407E-1,-8.625064087E-1,3.362008667E-1,9.701053792E-1
5.132614917E0,-1.887574768E-1,-5.319937134E-1,4.608915710E-1,7.287439443E-1
5.142694917E0,-2.294728088E-1,-1.624122620E-1,6.659651184E-1,7.228727770E-1
5.152773917E0,-1.908531189E-1,4.031117249E-1,9.488768005E-1,1.048470867E0
5.162853917E0,-6.316864014E-2,7.289840698E-1,1.398841095E0,1.578659070E0
5.172932917E0,-6.271957397E-2,9.821076965E-1,2.200723572E0,2.410737130E0
5.183012917E0,-1.073268127E-1,1.491947479E0,3.745062103E0,4.032730648E0
5.193092917E0,-3.186872864E-1,3.093766479E0,6.916666718E0,7.583747827E0
5.203171917E0,3.151845703E0,2.307466599E1,1.299013687E1,2.666679579E1
5.213251917E0,7.073839874E0,5.568555130E1,1.659059967E1,5.853347616E1
5.223331917E0,2.350412292E0,4.612568115E1,5.815406799E-1,4.618918801E1
5.233410917E0,-2.536924438E0,4.481710236E1,-8.534352722E0,4.569292971E1
5.243490917E0,-5.885311432E0,3.316533234E1,-9.216184845E0,3.492154382E1
5.253569917E0,-3.071911926E0,2.282378769E1,-7.301815796E0,2.415943793E1
5.263649042E0,-1.133742371E0,2.059372513E1,-5.024451599E0,2.122809460E1
5.273729042E0,1.187031555E-1,2.084939346E1,-3.197949829E0,2.109355782E1
5.283808042E0,1.678609314E0,2.162687668E1,-1.765428772E0,2.176364544E1
5.293888042E0,2.101030884E0,2.079146393E1,-1.257834320E0,2.093517256E1
5.303967042E0,9.867480469E-1,1.765264114E1,-1.803300018E0,1.777192454E1
5.314047042E0,1.203647003E0,1.481439331E1,-2.296524353E0,1.503958242E1
5.324127042E0,2.547252960E0,1.287008652E1,-2.378254395E0,1.333355611E1
5.334206042E0,2.786305847E0,1.106020020E1,-2.567011871E0,1.169106833E1
5.344286042E0,2.388732605E0,9.441915436E0,-2.413580933E0,1.003400137E1
5.354365042E0,1.598825226E0,8.180488586E0,-1.941462708E0,8.558382619E0
5.364445042E0,1.234183502E0,6.974745941E0,-1.570683746E0,7.255159357E0
5.374525042E0,9.755213928E-1,5.820496216E0,-1.269959106E0,6.036771846E0
5.384604042E0,7.047344971E-1,4.875062256E0,-9.767189026E-1,5.021639426E0
5.394684042E0,4.875361633E-1,3.790268097E0,-5.095404053E-1,3.855315186E0
5.404764042E0,5.093907166E-1,2.836451569E0,2.993774414E-3,2.881830211E0
5.414843042E0,5.516029358E-1,2.227218475E0,4.538562012E-1,2.338964170E0
5.424923042E0,4.953199768E-1,2.097588043E0,5.228627014E-1,2.217792344E0
5.435002042E0,3.264710999E-1,2.837200012E0,6.400689697E-1,2.926768794E0
5.445082042E0,5.119354248E-2,3.729494476E0,1.045725403E0,3.873666409E0
5.455162042E0,-2.682421875E-1,4.833748169E0,1.496288452E0,5.067144597E0
5.465241042E0,-3.209326172E-1,5.864055634E0,1.798210602E0,6.141962845E0
5.475321042E0,-1.287322998E-2,6.720275116E0,1.904489594E0,6.984936934E0
5.485400042E0,4.797523499E-1,7.523504791E0,1.772613831E0,7.744381606E0
5.495480042E0,8.982820129E-1,8.345445557E0,1.551074524E0,8.535760323E0
5.505560042E0,1.301393738E0,9.355994110E0,1.301393738E0,9.535296383E0
5.515639042E0,1.763033752E0,1.054152878E1,9.252259827E-1,1.072791499E1
5.525719042E0,2.107916565E0,1.155402328E1,3.760180664E-1,1.175075129E1
5.535798042E0,2.085612946E0,1.226040436E1,-2.757266235E-1,1.243958687E1
5.545878042E0,1.683848419E0,1.256846375E1,-1.066083069E0,1.272549251E1
5.555958042E0,1.286275177E0,1.236698273E1,-1.676513672E0,1.254621312E1
5.566037042E0,7.444020081E-1,1.154623947E1,-1.870061188E0,1.172036301E1
5.576117042E0,3.710783386E-1,1.038585251E1,-1.722617798E0,1.053427945E1
5.586197042E0,2.257305908E-1,9.307345276E0,-1.485810242E0,9.427898093E0
5.596276042E0,2.639012146E-1,8.402327271E0,-1.305734711E0,8.507272803E0
5.606356042E0,4.402345276E-1,7.630382538E0,-1.212927704E0,7.738716801E0
5.616435042E0,6.047424316E-1,6.824009399E0,-1.174906769E0,6.950771440E0
5.626515042E0,6.957531738E-1,5.970933380E0,-1.135239258E0,6.117588257E0
5.636595042E0,7.291337585E-1,5.114115143E0,-1.118025055E0,5.285431842E0
5.646674042E0,6.707551575E-1,4.265080719E0,-1.114133148E0,4.458936946E0
5.656754042E0,6.087840271E-1,3.474724274E0,-1.108295288E0,3.697654015E0
5.666833042E0,5.894741821E-1,2.800226898E0,-1.034648438E0,3.042901228E0
5.676913042E0,5.261558533E-1,2.349214783E0,-9.023236084E-1,2.570960515E0
5.686993042E0,4.011657715E-1,1.808239746E0,-7.056326294E-1,1.982065176E0
5.697072042E0,3.695814514E-1,1.448687439E0,-5.165757751E-1,1.581814236E0
5.707152042E0,3.360511780E-1,1.394350433E0,-2.883004761E-1,1.462962983E0
5.717232042E0,1.613644409E-1,1.594933319E0,-1.691482544E-2,1.603164647E0
5.727311042E0,-1.228944397E-1,1.750609589E0,3.207829285E-1,1.783995141E0
5.737391042E0,-4.062551880E-1,2.140548706E0,6.878196716E-1,2.284751177E0
5.747470042E0,-7.200027466E-1,2.916085968E0,1.136436768E0,3.211456033E0
5.757550042E0,-6.749464417E-1,4.395160217E0,1.884880371E0,4.829674942E0
5.767630042E0,-5.146298218E-1,6.192921753E0,3.040327606E0,6.918143945E0
5.777709042E0,-8.309220886E-1,8.216713257E0,4.201912079E0,9.266114255E0
5.787789042E0,-1.098864899E0,1.011237122E1,5.175188141E0,1.141271782E1
5.797868042E0,-7.635621643E-1,1.179127991E1,5.464536438E0,1.301838959E1
5.807948042E0,1.871109009E-2,1.380713791E1,5.054988098E0,1.470341158E1
5.818028042E0,2.386038208E-1,1.566013458E1,4.522395630E0,1.630180386E1
5.828107042E0,2.282752991E-1,1.700478836E1,4.070635071E0,1.748670943E1
5.838187042E0,9.011260986E-2,1.842952560E1,4.008364563E0,1.886060765E1
5.848266042E0,2.960842896E-1,2.012939072E1,4.011807404E0,2.052741180E1
5.858346042E0,9.472302246E-1,2.196083221E1,3.967499542E0,2.233643770E1
5.868426042E0,1.399140472E0,2.387654846E1,3.669918365E0,2.419742675E1
5.878505042E0,1.716330872E0,2.535951462E1,2.740351410E0,2.556482543E1
5.888585042E0,1.882784729E0,2.604898087E1,1.450783081E0,2.615719889E1
5.898664042E0,1.841620331E0,2.660267944E1,4.442761230E-1,2.667004875E1
5.908744042E0,1.932930450E0,2.704485992E1,8.921447754E-2,2.711399321E1
5.918824042E0,1.858535156E0,2.704800339E1,6.900650024E-1,2.712056102E1
5.928903042E0,1.821562042E0,2.693423996E1,1.719624023E0,2.705048017E1
5.938983042E0,1.726958771E0,2.707824051E1,2.380649414E0,2.723749231E1
5.949063042E0,1.509760437E0,2.715278549E1,2.602937164E0,2.731901203E1
5.959142042E0,1.090781708E0,2.669503738E1,2.545157318E0,2.683826841E1
5.969222042E0,5.292993164E-1,2.579391129E1,2.145338745E0,2.588838534E1
5.979301042E0,1.878593445E-1,2.452529938E1,1.296004944E0,2.456023676E1
5.989381042E0,-4.894821167E-1,2.341640533E1,3.751199341E-1,2.342452447E1
5.999461042E0,-9.461824036E-1,2.184617065E1,-4.101470947E-2,2.186668964E1
6.009540042E0,-1.152004395E0,1.990785141E1,-4.812492371E-1,1.994696124E1
6.019620042E0,-1.046623535E0,1.710328354E1,-1.056203613E0,1.716779819E1
6.029699042E0,-5.634283447E-1,1.405816589E1,-1.483115845E0,1.414740656E1
6.039779042E0,-2.234852600E-1,1.124536514E1,-1.423988800E0,1.133736861E1
6.049859042E0,-1.178050232E-1,8.800199890E0,-1.280886383E0,8.893709353E0
6.059938042E0,5.029541016E-2,6.801406403E0,-1.019978943E0,6.877646089E0
6.070018042E0,5.797444153E-1,4.984784088E0,-7.658074951E-1,5.076478810E0
6.080097042E0,5.776487732E-1,3.380719757E0,-3.489244080E-1,3.447418226E0
6.090177042E0,3.614982605E-1,1.902543640E0,1.122665405E-1,1.939834290E0
6.100257042E0,2.670446777E-1,8.692424011E-1,4.417314148E-1,1.010950965E0
6.110336042E0,1.502874756E-1,-5.882766724E-2,4.828958130E-1,5.091516336E-1
6.120416042E0,-5.239105225E-3,-7.577243042E-1,3.022215271E-1,8.157888335E-1
6.130495042E0,-3.007246399E-1,-1.145418091E0,6.885681152E-3,1.184257288E0
6.140575042E0,-6.560856628E-1,-1.374441833E0,-2.004331970E-1,1.536135481E0
6.150655042E0,-1.035097504E0,-1.543739777E0,-5.448669434E-2,1.859442965E0
6.160734042E0,-1.307980042E0,-1.677411804E0,2.770738220E-1,2.145062249E0
6.170814042E0,-1.507365417E0,-1.683099976E0,5.977070618E-1,2.337141365E0
6.180894042E0,-1.618883514E0,-1.668729858E0,9.786648560E-1,2.522543969E0
6.190973042E0,-1.629212036E0,-1.795965271E0,1.275946655E0,2.740047989E0
6.201053042E0,-1.498084717E0,-1.860630798E0,1.407523041E0,2.772602730E0
6.211132042E0,-1.246308289E0,-1.871707764E0,1.401984558E0,2.649931132E0
6.221212042E0,-8.722361755E-1,-1.824705505E0,1.272204437E0,2.389320041E0
6.231292042E0,-3.821553040E-1,-1.715881805E0,1.084943848E0,2.065767702E0
6.241371042E0,3.158432007E-2,-1.593735809E0,8.550219727E-1,1.808881968E0
6.251451042E0,2.258802795E-1,-1.481918335E0,5.568420410E-1,1.599117541E0
6.261530292E0,3.829037476E-1,-1.357377319E0,2.784210205E-1,1.437569731E0
6.271610292E0,4.682263184E-1,-1.252445526E0,2.061213684E-1,1.352901216E0
6.281690292E0,5.444178772E-1,-1.156644745E0,2.236349487E-1,1.297779057E0
6.291769292E0,6.038442993E-1,-1.062340851E0,2.101629639E-1,1.239905034E0
6.301849292E0,6.638694763E-1,-9.966275024E-1,1.981878662E-1,1.213782308E0
6.311929292E0,7.161108398E-1,-7.946974182E-1,1.273851013E-1,1.077304825E0
6.322008292E0,4.016148376E-1,-3.700305176E-1,5.089416504E-2,5.484590028E-1
6.332088292E0,3.106040955E-1,-2.751278687E-1,7.514373779E-2,4.216833285E-1
6.342167292E0,3.285667419E-1,-1.094224548E-1,1.493893433E-1,3.771558742E-1
6.352247292E0,3.583547974E-1,1.158590698E-1,2.347119141E-1,4.437692728E-1
6.362327292E0,3.580554199E-1,4.216731262E-1,3.306623840E-1,6.444761604E-1
6.372406292E0,2.743794250E-1,6.318360901E-1,4.848417664E-1,8.423612361E-1
6.382486292E0,1.752854919E-1,7.303312683E-1,8.023315430E-1,1.099019868E0
6.392565292E0,1.746867371E-1,9.279203796E-1,1.475332031E0,1.751615337E0
6.402645292E0,2.772235107E-1,1.333427124E0,2.705024872E0,3.028537655E0
6.412725292E0,4.770579529E-1,2.334844666E0,4.254752197E0,4.876679215E0
6.422804292E0,1.722617798E0,1.012928604E1,5.801934814E0,1.179967353E1
6.432884292E0,1.030726593E1,4.990636917E1,8.659791870E0,5.169020613E1
6.442963292E0,6.031108246E0,4.545088440E1,1.395847321E0,4.587053029E1
6.453043292E0,-3.826043701E-1,3.904271027E1,-6.998696136E0,3.966687987E1
6.463123292E0,-5.324727173E0,3.238006531E1,-7.303761749E0,3.361794587E1
6.473202292E0,-3.832630005E0,2.250240601E1,-4.681814117E0,2.330164613E1
6.483282292E0,-3.300636292E-1,2.076511871E1,-2.524649963E0,2.092063466E1
6.493361292E0,5.927673340E-1,2.093441666E1,-1.065334625E0,2.096988583E1
6.503441292E0,1.565893707E0,2.129067581E1,-2.788700867E-1,2.135000394E1
6.513521292E0,2.380350037E0,2.129531616E1,-6.456074524E-1,2.143766232E1
6.523600292E0,1.587299194E0,2.022893372E1,-1.823957062E0,2.037292560E1
6.533680292E0,6.846762085E-1,1.798779419E1,-2.958597565E0,1.824233595E1
6.543759292E0,9.511221313E-1,1.568468353E1,-3.572171631E0,1.611441408E1
6.553839292E0,8.985813904E-1,1.368020187E1,-3.626059570E0,1.418110291E1
6.563919292E0,7.845185852E-1,1.202239929E1,-3.122057648E0,1.244591492E1
6.573998292E0,5.177732849E-1,1.041743683E1,-2.391427002E0,1.070093465E1
6.584078292E0,3.312611389E-1,8.864865417E0,-1.892664185E0,9.070708381E0
6.594158292E0,2.570155334E-1,7.416776733E0,-1.497785339E0,7.570864879E0
6.604237292E0,3.797602844E-1,6.233487396E0,-1.184935913E0,6.356465693E0
6.614317292E0,5.719606018E-1,5.366640015E0,-9.621990967E-1,5.482133807E0
6.624396292E0,6.098318481E-1,4.592150574E0,-6.676116943E-1,4.680325539E0
6.634476292E0,6.933581543E-1,4.006119232E0,-3.778143311E-1,4.083194889E0
6.644556292E0,8.334667969E-1,3.684737549E0,-1.050814819E-1,3.779285623E0
6.654635292E0,8.662486267E-1,3.467389526E0,1.701960754E-1,3.578008317E0
6.664715292E0,7.801776123E-1,3.551215210E0,4.272116089E-1,3.660917417E0
6.674794292E0,6.906637573E-1,3.789369965E0,6.786886597E-1,3.911132758E0
6.684874292E0,6.120771790E-1,4.276606750E0,9.066645813E-1,4.414299994E0
6.694954292E0,6.846762085E-1,5.040767670E0,9.800120544E-1,5.180593001E0
6.705033292E0,8.126600647E-1,6.137536926E0,9.148974609E-1,6.258339498E0
6.715113292E0,9.225315857E-1,7.550598450E0,9.033714294E-1,7.660201134E0
6.725192292E0,1.015937347E0,8.856183472E0,9.563612366E-1,8.965419187E0
6.735272292E0,9.642947388E-1,9.908495178E0,8.375083923E-1,9.990473530E0
6.745352292E0,8.761280823E-1,1.091096054E1,4.794529724E-1,1.095657499E1
6.755431292E0,7.490423584E-1,1.204799606E1,3.263214111E-2,1.207130227E1
6.765511292E0,6.294410706E-1,1.301244049E1,-4.104464722E-1,1.303411945E1
6.775590292E0,5.622308350E-1,1.339354797E1,-8.878038025E-1,1.343470976E1
6.785670292E0,5.231620789E-1,1.301618271E1,-1.350791016E0,1.309653951E1
6.795750292E0,4.171824646E-1,1.211745163E1,-1.594783630E0,1.222906415E1
6.805829292E0,2.680924988E-1,1.127111160E1,-1.601220245E0,1.138743767E1
6.815909292E0,2.050735474E-1,1.062924637E1,-1.492396545E0,1.073546371E1
6.825989292E0,9.116043091E-2,1.004950195E1,-1.374890900E0,1.014352625E1
6.836068292E0,-1.119671631E-1,9.387877808E0,-1.250200195E0,9.471419477E0
6.846148292E0,-3.010240173E-1,8.697513428E0,-1.124012604E0,8.775007671E0
6.856227292E0,-4.562512207E-1,8.026758270E0,-9.812095642E-1,8.099369464E0
6.866307292E0,-5.489085388E-1,7.479945374E0,-7.918533325E-1,7.541744830E0
6.876387292E0,-4.893324280E-1,7.079677734E0,-5.809419250E-1,7.120307337E0
6.886466292E0,-2.779719543E-1,6.761289825E0,-4.504133606E-1,6.781974691E0
6.896546292E0,1.287322998E-2,6.442003784E0,-3.733236694E-1,6.452824888E0
6.906625292E0,2.588117981E-1,6.079457703E0,-3.100053406E-1,6.092855883E0
6.916705292E0,4.173321533E-1,5.655838623E0,-2.234852600E-1,5.675616470E0
6.926785292E0,5.071453857E-1,5.184768219E0,-1.383123779E-1,5.211348025E0
6.936864292E0,5.704637146E-1,4.652475128E0,-4.475692749E-2,4.687532064E0
6.946944292E0,5.783972168E-1,4.103566589E0,5.209167480E-2,4.144456012E0
6.957023292E0,5.637277222E-1,3.607198792E0,1.508862305E-1,3.654098893E0
6.967103292E0,5.029541016E-1,3.157384186E0,2.903961182E-1,3.210353194E0
6.977183292E0,3.921844482E-1,2.866239624E0,4.534071350E-1,2.928261644E0
6.987262292E0,2.615061951E-1,2.771037598E0,6.192622375E-1,2.851406771E0
6.997342292E0,1.354682922E-1,2.955603790E0,8.170010376E-1,3.069435798E0
7.007421292E0,3.442840576E-2,3.411555634E0,1.110989685E0,3.588062881E0
7.017501292E0,-9.505233765E-2,4.300556946E0,1.542392578E0,4.569770219E0
7.027581292E0,-2.210902405E-1,5.669909363E0,2.062860260E0,6.037561224E0
7.037660292E0,-2.555186462E-1,7.530390472E0,2.614313507E0,7.975381217E0
7.047740292E0,-2.237846375E-1,9.812095642E0,3.285817108E0,1.035006737E1
7.057820292E0,-4.501139832E-1,1.237147339E1,4.010160828E0,1.301296839E1
7.067899292E0,-8.907975769E-1,1.550969742E1,4.383634186E0,1.614188598E1
7.077979292E0,-1.155447235E0,1.882575165E1,4.092339935E0,1.930003185E1
7.088058292E0,-1.071771240E0,2.184796692E1,2.822081451E0,2.205553209E1
7.098138292E0,-7.348219299E-1,2.417532715E1,6.194119263E-1,2.419442244E1
7.108218292E0,1.933978271E-1,2.618849075E1,-1.447639618E0,2.622918434E1
7.118297292E0,1.336420898E0,2.748704041E1,-2.250869293E0,2.761140749E1
7.128377292E0,1.616189117E0,2.843127686E1,-1.532962189E0,2.851840711E1
7.138456292E0,1.397793274E0,2.901805664E1,-7.813751221E-1,2.906220887E1
7.148536292E0,1.697470093E0,2.943523911E1,-7.071295166E-1,2.949262176E1
7.158616292E0,1.918560333E0,2.980182678E1,-1.079704742E0,2.988303056E1
7.168695292E0,1.813329163E0,3.032903046E1,-1.504671021E0,3.042042547E1
7.178775292E0,1.860481110E0,3.012485504E1,-1.861528931E0,3.023960270E1
7.188854292E0,2.459086304E0,2.835748032E1,-2.264341278E0,2.855382701E1
7.198934292E0,3.159030762E0,2.548001404E1,-2.617157593E0,2.580814028E1
7.209014292E0,2.790796509E0,2.238145752E1,-2.791395264E0,2.272685797E1
7.219093292E0,1.619781647E0,1.944456482E1,-2.744393005E0,1.970397134E1
7.229173292E0,7.232958984E-1,1.655392593E1,-2.444566498E0,1.674907538E1
7.239252292E0,9.475296021E-2,1.340312805E1,-1.745819550E0,1.351668249E1
7.249332292E0,-4.011657715E-1,1.019724472E1,-9.892927551E-1,1.025297196E1
7.259412542E0,-6.526428223E-1,7.204817505E0,-9.011260986E-2,7.234877899E0
7.269491542E0,-5.807922363E-1,4.709506531E0,6.936575317E-1,4.795615931E0
7.279571542E0,-6.149212646E-1,2.772534485E0,1.121467896E0,3.053320467E0
7.289650542E0,-6.192622375E-1,1.542542267E0,1.222807159E0,2.063535731E0
7.299730542E0,-6.063890076E-1,5.382806396E-1,1.063688049E0,1.337492408E0
7.309810542E0,-6.453080750E-1,-2.080673218E-1,8.464897156E-1,1.084554914E0
7.319889542E0,-5.569917297E-1,-6.261479187E-1,6.390211487E-1,1.053873347E0
7.329969542E0,-6.367758179E-1,-9.904902649E-1,4.390370178E-1,1.256705180E0
7.340049542E0,-8.156538391E-1,-1.197509766E0,3.641926575E-1,1.493973599E0
7.350128542E0,-1.049617310E0,-1.341360626E0,4.507127380E-1,1.761841877E0
7.360208542E0,-1.213077393E0,-1.430575104E0,6.150709534E-1,1.973933678E0
7.370287542E0,-1.287921753E0,-1.563498688E0,8.469387817E-1,2.195580991E0
7.380367542E0,-1.416803741E0,-1.732497253E0,1.122815094E0,2.503915596E0
7.390447542E0,-1.574725342E0,-1.922452240E0,1.372346191E0,2.838823099E0
7.400526542E0,-1.568588104E0,-2.046394501E0,1.306333466E0,2.890450867E0
7.410606542E0,-1.454076233E0,-2.116598511E0,1.067280579E0,2.780901793E0
7.420685542E0,-1.125659180E0,-2.076481934E0,7.414082336E-1,2.475595278E0
7.430765542E0,-5.999523926E-1,-1.874701538E0,3.992198181E-1,2.008438496E0
7.440845542E0,-7.993377686E-2,-1.645977173E0,1.945953369E-3,1.647918095E0
7.450924542E0,2.984793091E-1,-1.539698181E0,-2.830613708E-1,1.593701392E0
7.461004542E0,4.866380310E-1,-1.501228180E0,-3.513194275E-1,1.616764659E0
7.471083542E0,4.796026611E-1,-1.457219696E0,-3.402424622E-1,1.571392022E0
7.481163542E0,5.462141418E-1,-1.367556152E0,-1.025367737E-1,1.476168523E0
7.491243542E0,5.246589661E-1,-1.245709534E0,2.309696960E-1,1.371279065E0
7.501322542E0,5.078938293E-1,-1.157542877E0,6.147715759E-1,1.405633574E0
7.511402542E0,4.968168640E-1,-1.121318207E0,8.460406494E-1,1.489955133E0
7.521481542E0,3.138972473E-1,-1.141975250E0,8.605604553E-1,1.463968323E0
7.531561542E0,-2.739303589E-2,-1.152303772E0,8.051756287E-1,1.406009301E0
7.541641542E0,-4.267625427E-1,-1.122366028E0,7.415579224E-1,1.411290162E0
7.551720542E0,-7.743397522E-1,-8.756790161E-1,6.709048462E-1,1.347786743E0
7.561800542E0,-6.288423157E-1,6.107299805E-2,7.469467163E-1,9.783158826E-1
7.571879542E0,-3.210823059E-1,5.242098999E-1,9.117539978E-1,1.099629583E0
7.581959542E0,-2.300715637E-1,6.686595154E-1,1.272503815E0,1.455783099E0
7.592039542E0,-7.050338745E-2,9.009764099E-1,2.345173187E0,2.513278038E0
7.602118542E0,1.622625732E-1,1.233584747E0,4.137695618E0,4.320715855E0
7.612198542E0,4.038601685E-1,1.682650909E0,7.249275055E0,7.452946125E0
7.622278542E0,1.411564636E-1,2.691403198E0,9.769134979E0,1.013407986E1
7.632357542E0,1.537303162E-1,8.108787689E0,4.574038239E0,9.311170528E0
7.642437542E0,1.109732300E1,6.863766724E1,3.528163147E-1,6.952988150E1
7.652516542E0,6.137387238E0,6.465684540E1,-9.317075043E0,6.561236977E1
7.662596542E0,-3.379073181E0,4.339880173E1,-1.566237991E1,4.626212567E1
7.672676542E0,-6.600823517E0,3.591780853E1,-9.654024353E0,3.777380080E1
7.682755542E0,1.407373352E0,2.580498825E1,-3.602558441E0,2.609322797E1
7.692835542E0,1.942510529E0,2.198747681E1,-1.596879272E0,2.213080448E1
7.702914542E0,1.956281891E0,1.716450623E1,-1.524130554E0,1.734273008E1
7.712994542E0,3.487148438E0,1.529938477E1,-1.408121796E0,1.575481467E1
7.723074542E0,5.001249847E0,1.584544922E1,-1.272354126E0,1.666462259E1
7.733153542E0,3.898193665E0,1.566417618E1,-2.124082947E0,1.628109510E1
7.743233542E0,1.417402496E0,1.427326859E1,-2.866089935E0,1.462701943E1
7.753312542E0,1.654210052E0,1.269060974E1,-2.693648529E0,1.307836874E1
7.763392542E0,1.408720551E0,1.135179382E1,-2.285597076E0,1.166497624E1
7.773472542E0,7.463479614E-1,9.566157074E0,-1.790726166E0,9.760896303E0
7.783551542E0,4.667294312E-1,8.016429749E0,-1.414558411E0,8.153646900E0
7.793631542E0,5.346881104E-1,6.936275940E0,-1.373394012E0,7.091123071E0
7.803710542E0,5.986051941E-1,6.132148132E0,-1.369502106E0,6.311664195E0
7.813790542E0,6.894662476E-1,5.512736206E0,-1.242416382E0,5.692909858E0
7.823870542E0,6.195616150E-1,5.040318604E0,-1.014141083E0,5.178527817E0
7.833949542E0,4.631369019E-1,4.535867615E0,-6.996450806E-1,4.612818449E0
7.844029542E0,1.763333130E-1,4.192781067E0,-3.053649902E-1,4.207582951E0
7.854108542E0,-6.631210327E-2,4.066144409E0,8.068222046E-2,4.067485375E0
7.864188542E0,-6.212081909E-2,4.032763824E0,4.483177185E-1,4.058082286E0
7.874268542E0,-8.622070312E-2,4.357738037E0,8.220904541E-1,4.435442202E0
7.884347542E0,-1.324745178E-1,5.104235687E0,1.227597198E0,5.251453735E0
7.894427542E0,1.477427673E-1,5.945486298E0,1.537303162E0,6.142795475E0
7.904506542E0,3.532653809E-1,6.770271149E0,1.547032928E0,6.953752853E0
7.914586542E0,5.086422729E-1,7.687264252E0,1.388512573E0,7.828200036E0
7.924666542E0,6.221063232E-1,8.795559540E0,1.270557861E0,8.908602650E0
7.934745542E0,8.307723999E-1,9.979597321E0,1.184486847E0,1.008392555E1
7.944825542E0,9.886940002E-1,1.110226273E1,9.943821716E-1,1.119046690E1
7.954904542E0,1.228794708E0,1.221130646E1,6.029461670E-1,1.228777791E1
7.964984542E0,1.429078217E0,1.318353470E1,6.945556641E-2,1.326094551E1
7.975064542E0,1.696571960E0,1.373917923E1,-5.186714172E-1,1.385324591E1
7.985143542E0,1.957479401E0,1.346360229E1,-1.227447510E0,1.366041507E1
7.995223542E0,1.932032318E0,1.223510696E1,-1.634451141E0,1.249407947E1
8.005303542E0,1.789828033E0,1.100451599E1,-1.672921143E0,1.127393107E1
8.015382542E0,1.525328064E0,1.019724472E1,-1.568438416E0,1.042930605E1
8.025462542E0,1.203796692E0,9.776469727E0,-1.437760162E0,9.954679356E0
8.035541542E0,8.355624390E-1,9.460626526E0,-1.296603699E0,9.585551627E0
8.045621542E0,4.168830872E-1,9.182953949E0,-1.177601166E0,9.267533612E0
8.055701542E0,-6.406677246E-2,8.999285889E0,-1.040486298E0,9.059462611E0
8.065780542E0,-5.077441406E-1,8.953481140E0,-8.934919739E-1,9.012267004E0
8.075860542E0,-8.481362915E-1,9.088949432E0,-7.816744995E-1,9.161842172E0
8.085939542E0,-9.080117798E-1,9.264384613E0,-7.228468323E-1,9.336798980E0
8.096019542E0,-6.357279968E-1,9.405690765E0,-6.649172974E-1,9.450570558E0
8.106099542E0,-1.350192261E-1,9.493857422E0,-6.207591248E-1,9.515088062E0
8.116178542E0,3.332070923E-1,9.387728119E0,-5.825885010E-1,9.411688242E0
8.126258542E0,6.466552734E-1,9.320517883E0,-4.918771362E-1,9.355862321E0
8.136337542E0,7.096742249E-1,9.226962433E0,-4.129911804E-1,9.263424580E0
8.146417542E0,6.963519287E-1,9.103618927E0,-2.930905151E-1,9.134915743E0
8.156497542E0,6.854246521E-1,8.964109039E0,-1.927990723E-1,8.992342815E0
8.166576542E0,6.747967529E-1,8.754095764E0,-1.225950623E-1,8.780920957E0
8.176656542E0,6.436614990E-1,8.471034393E0,-6.855743408E-2,8.495729747E0
8.186735542E0,5.442681885E-1,8.168363800E0,-2.350112915E-2,8.186510083E0
8.196815542E0,4.688250732E-1,7.786208496E0,-1.721420288E-2,7.800329225E0
8.206895542E0,4.294569397E-1,7.375462646E0,-5.074447632E-2,7.388129500E0
8.216974542E0,4.257147217E-1,6.912625122E0,-1.504371643E-1,6.927355227E0
8.227054542E0,4.394860840E-1,6.284082184E0,-3.332070923E-1,6.308237779E0
8.237133542E0,4.264631653E-1,5.564229126E0,-5.339396667E-1,5.606033193E0
8.247213542E0,3.881428528E-1,4.827311554E0,-6.830296326E-1,4.890820094E0
8.257293542E0,3.141966248E-1,4.146976318E0,-7.330256653E-1,4.222968000E0
8.267373167E0,1.880090332E-1,3.555855560E0,-7.182064819E-1,3.632530346E0
8.277453167E0,9.729766846E-2,3.133433990E0,-6.761439514E-1,3.207030722E0
8.287533167E0,1.196012878E-1,2.750530243E0,-6.048921204E-1,2.818796829E0
8.297612167E0,-9.280700684E-3,2.458786926E0,-4.604425049E-1,2.501544839E0
8.307692167E0,-2.540217590E-1,2.445464630E0,-3.046165466E-1,2.477421149E0
8.317771167E0,-4.330494690E-1,3.226240997E0,-1.528321838E-1,3.258760576E0
8.327851167E0,-3.806584167E-1,4.609215088E0,9.984237671E-2,4.625984550E0
8.337931167E0,-2.460882568E-1,6.381679230E0,5.143304443E-1,6.407099580E0
8.348010167E0,-2.571652222E-1,8.437204742E0,1.239422607E0,8.531630924E0
8.358090167E0,-4.773573303E-1,1.077399536E1,2.258054352E0,1.101842346E1
8.368169167E0,-6.351292419E-1,1.306827438E1,3.274590454E0,1.348725796E1
8.378249167E0,-4.689747620E-1,1.499776199E1,3.688479767E0,1.545178582E1
8.388329167E0,-8.337661743E-2,1.704505463E1,2.671494598E0,1.725333945E1
8.398408167E0,2.773731995E-1,1.980666183E1,1.124761047E0,1.984051099E1
8.408488167E0,3.812571716E-1,2.238609787E1,-3.833528137E-1,2.239262589E1
8.418567167E0,5.480104065E-1,2.389166702E1,-1.327888641E0,2.393481474E1
8.428647167E0,9.782157898E-1,2.472797791E1,-1.336420898E0,2.478337786E1
8.438727167E0,8.339158630E-1,2.543061676E1,-4.257147217E-1,2.544784701E1
8.448806167E0,5.261558533E-1,2.666839279E1,3.959266663E-1,2.667652099E1
8.458886167E0,1.278341675E-1,2.769450897E1,5.556445312E-1,2.770037743E1
8.468965167E0,-2.418969727E-1,2.780183578E1,2.198927307E-1,2.780375766E1
8.479045167E0,-3.098556519E-1,2.778881287E1,-4.209246826E-1,2.779372786E1
8.489125167E0,-1.466949463E-1,2.799747894E1,-1.101858673E0,2.801953674E1
8.499204167E0,1.624871063E0,2.687047256E1,-1.832489319E0,2.698185536E1
8.509284167E0,3.273243256E0,2.483141281E1,-2.709814911E0,2.519238537E1
8.519363167E0,3.520828400E0,2.286180862E1,-3.463796997E0,2.338923718E1
8.529443167E0,1.695524139E0,2.034494247E1,-3.350632324E0,2.068860129E1
8.539523167E0,4.649331665E-1,1.758019180E1,-2.572250977E0,1.777345723E1
8.549602167E0,-7.355703735E-1,1.467473373E1,-1.702110443E0,1.479141825E1
8.559682167E0,-1.270258484E0,1.176897629E1,-7.426057434E-1,1.186059960E1
8.569761167E0,-1.272952881E0,8.904083862E0,2.688409424E-1,8.998632892E0
8.579841167E0,-1.184037781E0,6.449488220E0,1.183439026E0,6.663210315E0
8.589921167E0,-9.774673462E-1,4.453089752E0,1.687291260E0,4.861316956E0
8.600000167E0,-9.592053223E-1,2.724634094E0,1.596879272E0,3.300564983E0
8.610080167E0,-1.030307465E0,1.520987091E0,1.297352142E0,2.249012624E0
8.620159167E0,-9.946815491E-1,7.084767151E-1,9.773176575E-1,1.564122899E0
8.630239167E0,-1.160087585E0,5.493576050E-2,7.418572998E-1,1.378105002E0
8.640319167E0,-1.331032104E0,-4.200265503E-1,6.209088135E-1,1.527611378E0
8.650398167E0,-1.445094910E0,-7.478448486E-1,5.477110291E-1,1.716845534E0
8.660478167E0,-1.526076508E0,-1.028660889E0,4.592449951E-1,1.896828589E0
8.670557167E0,-1.550924835E0,-1.291663971E0,3.953279114E-1,2.056708005E0
8.680637167E0,-1.537602539E0,-1.466949463E0,4.833448792E-1,2.179400047E0
8.690717167E0,-1.496737518E0,-1.625619507E0,9.232800293E-1,2.394850307E0
8.700796167E0,-1.624122620E0,-1.623074799E0,1.450483704E0,2.715888264E0
8.710876167E0,-1.683848419E0,-1.685345306E0,1.512754211E0,2.822084266E0
8.720955167E0,-1.612446899E0,-1.796264648E0,1.453627167E0,2.817726678E0
8.731035167E0,-1.464255066E0,-1.846560059E0,1.322350159E0,2.702302146E0
8.741115167E0,-1.151255951E0,-1.779050446E0,1.069825287E0,2.373802203E0
8.751194167E0,-8.041278076E-1,-1.663790131E0,7.488926697E-1,1.993905555E0
8.761274167E0,-4.221221924E-1,-1.527124329E0,4.331991577E-1,1.642546003E0
8.771354167E0,-7.319778442E-2,-1.362167358E0,1.666035461E-1,1.374268740E0
8.781433167E0,2.155517578E-1,-1.180744629E0,-7.035369873E-2,1.202318627E0
8.791513167E0,4.412823486E-1,-1.011147308E0,-2.760260010E-1,1.137250783E0
8.801592167E0,5.273533630E-1,-8.220904541E-1,-4.143383789E-1,1.060947961E0
8.811672167E0,5.198689270E-1,-7.096742249E-1,-4.355941772E-1,9.816534490E-1
8.821752167E0,5.328918457E-1,-6.625222778E-1,-3.839515686E-1,9.329138732E-1
8.831831167E0,6.030958557E-1,-5.396278381E-1,-2.972817993E-1,8.621480633E-1
8.841911167E0,6.649172974E-1,-3.885919189E-1,-1.432521057E-1,7.833516819E-1
8.851990167E0,6.966513062E-1,-1.769320679E-1,-1.736389160E-2,7.189780968E-1
8.862070167E0,5.535488892E-1,1.669029236E-1,6.735992432E-2,5.820741516E-1
8.872150167E0,3.562591553E-1,4.646337891E-1,8.711883545E-2,5.919415809E-1
8.882229167E0,2.278262329E-1,5.956114197E-1,1.821711731E-1,6.632074276E-1
8.892309167E0,1.442999268E-1,8.328680420E-1,6.923103333E-1,1.092604797E0
8.902388167E0,2.561174011E-1,1.776206360E0,2.179916840E0,2.823569121E0
8.912468167E0,1.881138153E0,9.701176300E0,6.099815369E0,1.161289154E1
8.922548167E0,1.058793228E1,4.035533066E1,1.769170990E1,4.531725523E1
8.932627167E0,7.667954407E0,3.834995087E1,1.769066208E1,4.292406995E1
8.942707167E0,1.598974915E0,4.178919891E1,-5.337301025E0,4.215899250E1
8.952786167E0,-4.547992401E0,4.101455978E1,-1.269105881E1,4.317338674E1
8.962866167E0,-6.736890564E0,3.372995819E1,-1.410292282E1,3.717510197E1
8.972946167E0,2.707868958E-1,2.687960358E1,-7.590864716E0,2.793219721E1
8.983025167E0,1.192719727E0,2.067605392E1,-3.398981781E0,2.098749302E1
8.993105167E0,1.401685181E0,1.554696991E1,-2.271825714E0,1.577447897E1
9.003184167E0,2.700833588E0,1.400547546E1,-1.810934143E0,1.437801542E1
9.013264167E0,4.226311340E0,1.425380905E1,-1.446591797E0,1.493738290E1
9.023344167E0,3.897594910E0,1.421563843E1,-1.684746552E0,1.483623918E1
9.033423167E0,1.714085541E0,1.274090515E1,-2.235451355E0,1.304860131E1
9.043503167E0,1.779798889E0,1.128473328E1,-2.100432129E0,1.161570938E1
9.053582167E0,1.208287354E0,1.042342438E1,-1.360221405E0,1.058101774E1
9.063662167E0,4.858895874E-1,9.566157074E0,-6.803352356E-1,9.602619741E0
9.073742167E0,1.246907043E-1,8.916508026E0,-4.984634399E-1,8.931300519E0
9.083821167E0,1.154100037E-1,8.262967072E0,-7.915539551E-1,8.301596350E0
9.093901167E0,4.046086121E-1,7.433841248E0,-1.210682373E0,7.542642483E0
9.103980167E0,5.644761658E-1,6.659800873E0,-1.558708649E0,6.863028024E0
9.114060167E0,3.347039795E-1,6.072422333E0,-1.593735809E0,6.286997182E0
9.124140167E0,1.502874756E-1,5.714217224E0,-1.318757629E0,5.866343537E0
9.134219167E0,1.351689148E-1,5.514682159E0,-9.014254761E-1,5.589504257E0
9.144299167E0,3.980223083E-1,5.423521729E0,-3.400927734E-1,5.448731301E0
9.154378167E0,6.948550415E-1,5.285808105E0,3.546125793E-1,5.343064751E0
9.164458167E0,4.704716492E-1,5.186863861E0,7.502398682E-1,5.261916015E0
9.174538167E0,1.604663086E-1,5.006788330E0,9.559121704E-1,5.099749690E0
9.184617167E0,-8.232879639E-2,5.138664093E0,1.208287354E0,5.279451204E0
9.194697167E0,-4.041595459E-3,5.688620453E0,1.393152924E0,5.856730663E0
9.204777167E0,1.074765015E-1,6.552474060E0,1.572629700E0,6.739408852E0
9.214856167E0,-2.305206299E-2,7.376510468E0,1.839973755E0,7.602561509E0
9.224936167E0,-2.522254944E-1,8.005951538E0,1.990261230E0,8.253485173E0
9.235015167E0,-3.924838257E-1,8.565937042E0,1.910477142E0,8.785171818E0
9.245095167E0,-3.493734741E-1,9.367220764E0,1.638642426E0,9.515883336E0
9.255175167E0,-2.516267395E-1,1.058673477E1,1.331181793E0,1.067306489E1
9.265254542E0,-7.783813477E-3,1.185040695E1,1.029259644E0,1.189502337E1
9.275334542E0,4.257147217E-1,1.295346313E1,6.520440674E-1,1.297684868E1
9.285413542E0,9.009764099E-1,1.377181137E1,1.709445190E-1,1.380231028E1
9.295493542E0,1.397044830E0,1.417282745E1,-3.722758484E-1,1.424638065E1
9.305573542E0,1.808688812E0,1.406026154E1,-7.827223206E-1,1.419770981E1
9.315652542E0,2.147135010E0,1.353949448E1,-1.016386414E0,1.374631372E1
9.325732542E0,2.118245087E0,1.265872604E1,-1.139729919E0,1.288523541E1
9.335811542E0,1.475032654E0,1.166643951E1,-1.168320465E0,1.181721223E1
9.345891542E0,1.065184937E0,1.085213287E1,-1.144519958E0,1.096418409E1
9.355971542E0,8.006849670E-1,1.007105713E1,-1.083297272E0,1.016074904E1
9.366050542E0,4.879852295E-1,9.294322357E0,-1.015188904E0,9.362326964E0
9.376130542E0,1.790277100E-1,8.549770660E0,-8.858578491E-1,8.597405038E0
9.386209542E0,-9.924362183E-2,7.783214722E0,-6.797364807E-1,7.813470572E0
9.396289542E0,-2.794688416E-1,7.176825714E0,-4.655319214E-1,7.197336322E0
9.406369542E0,-4.881349182E-1,6.699767761E0,-2.923420715E-1,6.723884862E0
9.416448542E0,-6.601272583E-1,6.441405029E0,-1.618135071E-1,6.477163759E0
9.426528542E0,-7.937992859E-1,6.347400513E0,-4.056564331E-2,6.396972420E0
9.436607542E0,-8.357121277E-1,6.368806000E0,1.284329224E-1,6.424686735E0
9.446687542E0,-6.686595154E-1,6.387816467E0,3.694317627E-1,6.433333863E0
9.456767542E0,-4.037104797E-1,6.409820709E0,6.432124329E-1,6.454649945E0
9.466846542E0,-2.323168945E-1,6.443650360E0,8.755293274E-1,6.507007969E0
9.476926542E0,-1.434017944E-1,6.370302887E0,8.931925964E-1,6.434214479E0
9.487005542E0,-5.553451538E-2,6.157295837E0,7.560777283E-1,6.203791554E0
9.497085542E0,2.140548706E-2,5.816903687E0,5.828878784E-1,5.846074321E0
9.507165542E0,1.532812500E-1,5.464087372E0,4.703219604E-1,5.486433149E0
9.517244542E0,2.995271301E-1,5.156477051E0,4.068539429E-1,5.181168035E0
9.527324542E0,4.011657715E-1,4.916076965E0,3.818559265E-1,4.947177039E0
9.537403542E0,5.099894714E-1,4.773124237E0,3.707789612E-1,4.814590458E0
9.547483542E0,5.454656982E-1,4.698130188E0,3.836521912E-1,4.745223819E0
9.557563542E0,4.562512207E-1,4.769531708E0,4.510121155E-1,4.812484786E0
9.567642542E0,3.204835510E-1,4.987328796E0,5.550457764E-1,5.028343071E0
9.577722542E0,6.242019653E-2,5.469625854E0,6.942562866E-1,5.513863896E0
9.587801542E0,-1.133143616E-1,6.380481720E0,9.241781616E-1,6.448061135E0
9.597881542E0,-2.484832764E-1,7.631879425E0,1.255588989E0,7.738464396E0
9.607961542E0,-5.171745300E-1,9.291777649E0,1.667532349E0,9.454378113E0
9.618040542E0,-9.765692139E-1,1.129012207E1,2.230212250E0,1.154964893E1
9.628120542E0,-1.547332306E0,1.332139801E1,3.053500214E0,1.375419012E1
9.638199542E0,-2.135159912E0,1.537183411E1,3.877237244E0,1.599641086E1
9.648279542E0,-2.320324860E0,1.771925262E1,4.045786743E0,1.832277848E1
9.658359542E0,-1.796863403E0,1.996847534E1,2.955603790E0,2.026584119E1
9.668438542E0,-1.409468994E0,2.152029831E1,1.334025879E0,2.160762521E1
9.678518542E0,-7.472460938E-1,2.256258087E1,-2.420466614E-1,2.257624900E1
9.688597542E0,3.085084534E-1,2.280597473E1,-1.416354675E0,2.285199601E1
9.698677542E0,1.220711517E0,2.297482361E1,-1.277144165E0,2.304265075E1
9.708757542E0,1.642684021E0,2.366354141E1,-4.311035156E-1,2.372440628E1
9.718836542E0,1.826651459E0,2.488515106E1,2.010319519E-1,2.495291191E1
9.728916542E0,2.005529480E0,2.607562546E1,3.906875610E-1,2.615555444E1
9.738995542E0,2.057172089E0,2.672302917E1,5.403762817E-2,2.680214852E1
9.749075542E0,1.754950562E0,2.641167664E1,-7.414082336E-1,2.648029834E1
9.759155542E0,1.373843079E0,2.545112411E1,-1.484313354E0,2.553136012E1
9.769234542E0,2.000739441E0,2.376368317E1,-1.917063446E0,2.392468868E1
9.779314542E0,2.418370972E0,2.171219925E1,-2.251617737E0,2.196219244E1
9.789393542E0,1.732497253E0,1.959290634E1,-2.322270813E0,1.980597050E1
9.799473542E0,7.536827087E-1,1.711076797E1,-2.117496643E0,1.725775798E1
9.809553542E0,-2.086660767E-1,1.436218369E1,-1.631307678E0,1.445603772E1
9.819632542E0,-8.684939575E-1,1.166584076E1,-1.055604858E0,1.174565554E1
9.829712542E0,-1.273701324E0,9.229806519E0,-4.336482239E-1,9.327362661E0
9.839792542E0,-1.262624359E0,7.142996063E0,2.656974792E-1,7.258595469E0
9.849871542E0,-9.909393311E-1,5.407055969E0,9.038204956E-1,5.570916128E0
9.859951542E0,-7.857160950E-1,3.780238953E0,1.251846771E0,4.058900918E0
9.870030542E0,-6.098318481E-1,2.479144592E0,1.335672455E0,2.881331931E0
9.880110542E0,-6.105802917E-1,1.515897675E0,1.140478363E0,1.992848451E0
9.890190542E0,-6.950047302E-1,5.986051941E-1,8.303233337E-1,1.237253649E0
9.900269542E0,-7.655081177E-1,1.341210938E-1,6.215075684E-1,9.951194921E-1
9.910349542E0,-8.411009216E-1,-1.857637024E-1,5.135820007E-1,1.002858607E0
9.920428542E0,-9.740245056E-1,-5.903723145E-1,5.152285767E-1,1.250089474E0
9.930508542E0,-1.066232758E0,-9.160949707E-1,4.903802490E-1,1.488809953E0
9.940588542E0,-9.490264893E-1,-1.259480896E0,4.893324280E-1,1.651178255E0
9.950667542E0,-8.893006897E-1,-1.418600006E0,7.321275330E-1,1.827373092E0
9.960747542E0,-9.180409241E-1,-1.463806000E0,9.572593689E-1,1.975315834E0
9.970826542E0,-9.702822876E-1,-1.458117828E0,9.693841553E-1,2.001814417E0
9.980906542E0,-9.475296021E-1,-1.439556427E0,8.397537231E-1,1.917112769E0
9.990986542E0,-9.199868774E-1,-1.454974365E0,7.017407227E-1,1.858969150E0