"Time (s)","Acceleration x (m/s^2)","Acceleration y (m/s^2)","Acceleration z (m/s^2)","Absolute acceleration (m/s^2)"
-1.637041685E-3,-1.472637634E0,9.434131622E0,5.462141418E-1,9.563987189E0
8.442958235E-3,-1.697919159E0,9.539362793E0,4.079017639E-1,9.697873778E0
1.852320833E-2,-1.802701263E0,9.695637817E0,5.219645691E-1,9.875604870E0
2.860320825E-2,-1.328487396E0,9.989626465E0,7.554789734E-1,1.010585296E1
3.868320829E-2,-5.152285767E-1,1.027972321E1,9.273216248E-1,1.033431638E1
4.876420833E-2,-4.400848389E-1,9.830058289E0,8.415499878E-1,9.875825383E0
5.884420825E-2,-5.450166321E-1,1.013617172E1,4.574487305E-1,1.016111606E1
6.892420829E-2,-1.369502106E0,9.747879181E0,2.610571289E-1,9.847072426E0
7.900420832E-2,-1.251547394E0,9.324110413E0,4.828958130E-1,9.420116466E0
8.908420824E-2,-1.176104279E0,9.419013062E0,3.766168213E-1,9.499624653E0
9.916420828E-2,-7.381150818E-1,9.976453857E0,5.001100159E-1,1.001621463E1
1.092452083E-1,-1.042581940E0,1.001881577E1,3.679348755E-1,1.007963405E1
1.193252082E-1,-1.354832611E0,1.025891647E1,4.546046448E-1,1.035797297E1
1.294052083E-1,-1.597777405E0,9.519454193E0,8.443940735E-1,9.689473779E0
1.394852083E-1,-1.674268341E0,9.075178070E0,9.337582397E-1,9.275448018E0
1.495652082E-1,-1.353335724E0,9.184001770E0,6.357279968E-1,9.304921073E0
1.596462083E-1,-6.673123169E-1,1.031355286E1,3.586541748E-1,1.034133991E1
1.697262083E-1,-8.264314270E-1,1.004905289E1,6.306385803E-1,1.010268073E1
1.798062082E-1,-9.205856323E-2,9.815538483E0,2.770738220E-1,9.819879856E0
1.898862083E-1,-4.519102478E-1,1.025023453E1,4.758604431E-1,1.027122066E1
1.999662083E-1,-1.350940704E0,9.778864746E0,6.218069458E-1,9.891303270E0
2.100462082E-1,-1.541943512E0,9.352401581E0,9.858499146E-1,9.529790406E0
2.201272083E-1,-2.300266571E0,8.669072571E0,1.108894043E0,9.037349807E0
2.302072083E-1,-1.788031769E0,9.184001770E0,5.366340637E-1,9.371815312E0
2.402872082E-1,-1.046473846E0,9.699679413E0,4.046086121E-1,9.764353350E0
2.503672083E-1,-2.640808411E0,7.963889008E0,1.257385254E-2,8.390325100E0
2.604472083E-1,-1.457668762E0,9.580826569E0,2.619552612E-2,9.691115630E0
2.705282082E-1,-8.211923218E-1,1.048359924E1,1.538800049E-1,1.051683835E1
2.806082083E-1,-2.139500885E0,8.867410126E0,8.650511169E-1,9.162791049E0
2.906882083E-1,-3.578757935E0,7.410938873E0,5.577401733E-1,8.248672465E0
3.007682083E-1,-1.010997620E0,1.011686188E1,3.577560425E-1,1.017354411E1
3.108482083E-1,-1.273851013E-1,1.031714539E1,9.656419373E-1,1.036301984E1
3.209282083E-1,-6.939569092E-1,1.049347870E1,7.011419678E-1,1.053974722E1
3.310092083E-1,-7.571255493E-1,1.044198578E1,3.766168213E-1,1.047617040E1
3.410892083E-1,-8.764274597E-1,1.081875229E1,2.715353394E-1,1.085758986E1
3.511692083E-1,-1.013392639E-1,1.229273712E1,1.146615601E-1,1.229368955E1
3.612492083E-1,-9.351054382E-1,1.196641571E1,-7.274871826E-2,1.200311707E1
3.713292083E-1,-1.539099426E0,1.147543671E1,2.891986084E-1,1.158180083E1
3.814092083E-1,-7.321275330E-1,7.388186188E0,1.191821594E0,7.519424485E0
3.914902083E-1,-1.004411316E0,8.114775238E0,1.253193970E0,8.272177125E0
4.015702083E-1,-6.861730957E-1,7.878716125E0,1.059197388E0,7.979154116E0
4.116502083E-1,2.695893860E-1,7.356601868E0,1.328936462E0,7.480530837E0
4.217302083E-1,4.951702881E-1,7.479645996E0,1.413360901E0,7.628098510E0
4.318102082E-1,3.900888062E-1,7.780819702E0,1.046473846E0,7.860561814E0
4.418912083E-1,-3.308120728E-2,8.285270691E0,6.430627441E-1,8.310254778E0
4.519712083E-1,-7.771838379E-1,8.762927399E0,2.158511353E-1,8.799971763E0
4.620512082E-1,-7.854167175E-1,8.742270355E0,-1.709445190E-1,8.779145312E0
4.721312083E-1,-1.037193146E0,8.681496735E0,1.624122620E-1,8.744743159E0
4.822112083E-1,-1.403481445E0,9.480535126E0,3.378474426E-1,9.589809557E0
4.922912082E-1,-1.731150055E0,9.583221588E0,-3.727249146E-2,9.738398521E0
5.023722083E-1,-1.847907257E0,9.337283020E0,-4.279600525E-1,9.527999015E0
5.124522083E-1,-1.572629700E0,9.322463837E0,-6.236032104E-1,9.474723063E0
5.225322082E-1,-1.869612122E0,9.195228424E0,-7.870632935E-1,9.416323268E0
5.326122083E-1,-2.288441162E0,9.161997528E0,-7.455995178E-1,9.472860196E0
5.426922083E-1,-2.097438354E0,9.201665039E0,-3.788621521E-1,9.445285791E0
5.527732082E-1,-1.908531189E0,9.192833405E0,-2.261796570E-1,9.391583175E0
5.628532083E-1,-1.853146362E0,9.041348419E0,-1.053808594E-1,9.229909956E0
5.729332083E-1,-1.556313629E0,9.213041382E0,-2.260299683E-2,9.343594304E0
5.830132082E-1,-1.423390045E0,9.259744263E0,-1.264869690E-1,9.369359743E0
5.930932083E-1,-1.126108246E0,9.412726135E0,-4.694238281E-1,9.491464155E0
6.031732083E-1,-9.216334534E-1,1.000833755E1,-4.950205994E-1,1.006286610E1
6.132542082E-1,-9.985734558E-1,1.031085846E1,-3.444337463E-1,1.036482444E1
6.233342083E-1,-7.789801025E-1,1.065978287E1,-3.623963928E-1,1.069434953E1
6.334142083E-1,-5.453160095E-1,1.073193283E1,-4.337979126E-1,1.075453079E1
6.434942083E-1,-4.975653076E-1,1.061158310E1,-4.474195862E-1,1.063265966E1
6.535742083E-1,-4.800517273E-1,1.070034851E1,-3.360511780E-1,1.071638177E1
6.636542083E-1,-6.092330933E-1,1.090257797E1,-2.142045593E-1,1.092168737E1
6.737352083E-1,-7.595205688E-1,1.114582214E1,-2.170486450E-1,1.117377881E1
6.838152083E-1,-8.861572266E-1,1.128263763E1,-1.565744019E-1,1.131846731E1
6.938952083E-1,-1.032253418E0,1.105780518E1,-9.445358276E-2,1.110628308E1
7.039752083E-1,-1.189127197E0,1.052401520E1,-1.332229614E-1,1.059182079E1
7.140552083E-1,-1.260528717E0,1.016581009E1,-1.442999268E-1,1.024467910E1
7.241362083E-1,-1.311722260E0,9.885293427E0,-1.432521057E-1,9.972971602E0
7.342162083E-1,-1.275497589E0,9.953850861E0,-5.688171387E-3,1.003524157E1
7.442962083E-1,-1.064436493E0,1.002824615E1,2.180964661E-1,1.008693769E1
7.543762083E-1,-8.125103760E-1,1.002121078E1,2.850073242E-1,1.005813441E1
7.644562083E-1,-5.502557373E-1,9.926607513E0,2.312690735E-1,9.944536364E0
7.745362082E-1,-4.095483398E-1,9.679321747E0,2.267784119E-1,9.690636087E0
7.846172083E-1,-3.710783386E-1,9.352551270E0,3.409909058E-1,9.366119217E0
7.946972083E-1,-1.155596924E-1,9.309141541E0,5.733078003E-1,9.327494417E0
8.047772083E-1,2.246827698E-1,9.367819519E0,7.319778442E-1,9.399059339E0
8.148572083E-1,5.929170227E-1,9.545500031E0,6.358776855E-1,9.585012356E0
8.249372083E-1,9.702822876E-1,9.555080109E0,4.252656555E-1,9.613628580E0
8.350172082E-1,9.476792908E-1,9.612560577E0,2.415975952E-1,9.662183309E0
8.450982083E-1,8.396040344E-1,9.855655060E0,1.255888367E-1,9.892150633E0
8.551782083E-1,7.671546936E-1,1.002435425E1,1.755848694E-1,1.005519937E1
8.652582082E-1,8.289761353E-1,9.990524597E0,2.998265076E-1,1.002934091E1
8.753382083E-1,9.777667236E-1,9.792037354E0,3.168910217E-1,9.845833800E0
8.854182083E-1,1.093176727E0,9.434580688E0,2.862048340E-1,9.502013541E0
8.954982082E-1,1.172362061E0,9.050778809E0,3.827540588E-1,9.134414623E0
9.055792083E-1,1.225202179E0,8.612789612E0,5.712121582E-1,8.718230819E0
9.156592083E-1,1.359323273E0,8.425229645E0,6.209088135E-1,8.556738986E0
9.257392082E-1,1.866768036E0,8.402027893E0,6.536906433E-1,8.631697809E0
9.358192083E-1,2.239193573E0,8.310418396E0,7.490423584E-1,8.639334826E0
9.458992083E-1,1.917063446E0,8.553512878E0,6.279441833E-1,8.788175505E0
9.559802082E-1,1.969155121E0,8.887618103E0,5.692662048E-1,9.120931501E0
9.660602083E-1,1.853745117E0,9.317524109E0,5.631289673E-1,9.516813580E0
9.761402083E-1,1.977837067E0,9.902058563E0,5.225633240E-1,1.011116589E1
9.862202083E-1,2.288740540E0,1.051308792E1,4.314028931E-1,1.076798307E1
9.963002083E-1,2.752925262E0,1.084614532E1,2.095642090E-1,1.119202319E1
1.006380208E0,3.048261108E0,1.067520081E1,-6.077362061E-2,1.110204943E1
1.016460708E0,3.181184692E0,9.985285492E0,-2.668949890E-1,1.048318155E1
1.026540708E0,2.490071869E0,8.780291290E0,-3.432362366E-1,9.133005210E0
1.036620708E0,1.095871124E0,7.558382263E0,-2.182461548E-1,7.640530567E0
1.046700708E0,3.050656128E-1,6.870712280E0,1.829196167E-1,6.879913652E0
1.056780708E0,8.068222046E-2,6.390510864E0,6.996450806E-1,6.429202281E0
1.066860708E0,-5.403762817E-2,5.643564148E0,1.041983185E0,5.739204241E0
1.076941708E0,-1.758842468E-1,4.683909760E0,1.172811127E0,4.831711068E0
1.087021708E0,-1.448986816E-1,4.054319000E0,1.149759064E0,4.216686387E0
1.097101708E0,-2.183958435E-1,3.406615906E0,9.939331055E-1,3.555366604E0
1.107181708E0,-5.155279541E-1,2.505938873E0,9.809101868E-1,2.740015238E0
1.117261708E0,-8.961863708E-1,1.251996460E0,9.837542725E-1,1.827133716E0
1.127341708E0,-5.459147644E-1,4.791535950E-1,7.711962891E-1,1.059412485E0
1.137422708E0,-5.388793945E-2,2.775228882E-1,4.562512207E-1,5.367383346E-1
1.147502708E0,4.879852295E-2,1.520837402E-1,2.471360779E-1,2.942566922E-1
1.157582708E0,1.475930786E-1,3.847000122E-2,1.122665405E-1,1.893869953E-1
1.167662708E0,5.218148804E-1,2.231858826E-1,-1.166075134E-1,5.793962545E-1
1.177742708E0,1.172362061E0,8.857081604E-1,-3.230282593E-1,1.504413176E0
1.187822708E0,1.200653229E0,1.161434784E0,-2.481838989E-1,1.688814431E0
1.197903708E0,1.098565521E0,8.620573425E-1,-1.646575928E-3,1.396421060E0
1.207983708E0,7.354206848E-1,6.334826660E-1,1.974394226E-1,9.905181459E-1
1.218063708E0,-1.272354126E-1,5.388793945E-1,4.893324280E-1,7.389357734E-1
1.228143708E0,-3.180885315E-1,5.912704468E-1,1.158141632E0,1.338683344E0
1.238223708E0,-2.933898926E-1,9.211843872E-1,2.174677734E0,2.379891080E0
1.248304708E0,-8.101153564E-1,1.743424530E0,2.962190094E0,3.531343390E0
1.258384708E0,-1.778601379E0,2.582579498E0,3.583547974E0,4.761822740E0
1.268464708E0,-2.111658783E0,3.657194824E0,4.712350616E0,6.327750400E0
1.278544708E0,-2.516866150E0,5.313201141E0,5.948480072E0,8.363560053E0
1.288624708E0,-2.983595581E0,7.730673981E0,7.436236267E0,1.113385704E1
1.298704708E0,-2.194736023E0,9.879305878E0,8.725355530E0,1.336223709E1
1.308785708E0,-1.066981201E0,1.139400604E1,1.056248520E1,1.557330781E1
1.318865708E0,-2.161355438E0,1.307650726E1,1.440798843E1,1.957694129E1
1.328945708E0,-4.098028107E0,1.571312439E1,1.941717178E1,2.531250032E1
1.339025708E0,-5.784271545E0,1.904549469E1,2.285851547E1,3.031007085E1
1.349105708E0,-6.537804565E0,2.142240189E1,2.232801865E1,3.162597995E1
1.359185708E0,-4.936434631E0,2.307825851E1,1.926224396E1,3.046323104E1
1.369266708E0,-2.231858826E0,2.453892105E1,1.629182098E1,2.953918196E1
1.379346708E0,-6.017486572E-2,2.597817810E1,1.343306580E1,2.924579654E1
1.389426708E0,1.144370270E0,2.696881805E1,1.040306671E1,2.892836891E1
1.399506708E0,1.624272308E0,2.687376572E1,8.081095276E0,2.810945829E1
1.409586708E0,1.289867706E0,2.641990952E1,6.616391144E0,2.726631639E1
1.419666708E0,7.749385071E-1,2.610197067E1,6.280190277E0,2.685803777E1
1.429747708E0,-5.798941040E-1,2.600706802E1,7.896529083E0,2.718564025E1
1.439827708E0,-3.039130096E0,2.544753159E1,1.048509613E1,2.769025851E1
1.449907708E0,-5.092859344E0,2.445120346E1,1.263761993E1,2.799121299E1
1.459987708E0,-5.134772186E0,2.293500641E1,1.346854202E1,2.708841133E1
1.470067708E0,-3.755540314E0,2.130579437E1,1.270722519E1,2.509012812E1
1.480147708E0,-2.173629913E0,2.059147980E1,1.207419159E1,2.396914287E1
1.490228708E0,-1.070573730E0,2.080583405E1,1.236264175E1,2.422527130E1
1.500308708E0,-5.777984619E-2,2.131537445E1,1.284478912E1,2.488648497E1
1.510388708E0,6.200106812E-1,2.212069977E1,1.327694046E1,2.580672237E1
1.520468708E0,3.483256531E-1,2.309128143E1,1.295510971E1,2.647949162E1
1.530548708E0,-3.832031250E-2,2.329590591E1,1.168260590E1,2.606115848E1
1.540628708E0,-7.276368713E-1,2.348241806E1,1.107112747E1,2.597158595E1
1.550709708E0,-1.145717468E0,2.435944427E1,1.214005463E1,2.724107414E1
1.560789708E0,-1.370250549E0,2.471794876E1,1.134326157E1,2.723094123E1
1.570869708E0,-2.803370361E0,2.543181427E1,8.137677612E0,2.684879624E1
1.580949708E0,-1.804048462E0,2.368479721E1,4.948409729E0,2.426336680E1
1.591029708E0,-9.145980835E-1,2.146850601E1,3.256777496E0,2.173338077E1
1.601109708E0,-6.237528992E-1,1.837952957E1,2.142045593E0,1.851444124E1
1.611190708E0,6.827302551E-1,1.441682007E1,2.003134460E0,1.457132009E1
1.621270708E0,1.929487610E0,1.061113403E1,1.331481171E0,1.086701109E1
1.631350708E0,2.186652832E0,6.481371918E0,8.550219727E-1,6.893525594E0
1.641430708E0,1.380279694E0,2.833757172E0,1.205293579E0,3.374623587E0
1.651510708E0,1.076860657E0,8.328680420E-1,9.217831421E-1,1.644074880E0
1.661590708E0,1.086141357E0,-7.887098694E-1,2.950364685E-1,1.374340869E0
1.671671708E0,8.881031799E-1,-1.567839661E0,1.658551025E-1,1.809518271E0
1.681751708E0,4.616400146E-1,-1.964514771E0,1.260379028E-1,2.021958293E0
1.691831708E0,5.059478760E-2,-2.149979095E0,-5.763015747E-2,2.151346364E0
1.701911708E0,-2.644999695E-1,-2.318079529E0,-3.147953796E-1,2.354261894E0
1.711991708E0,-4.285588074E-1,-2.553390198E0,-6.063890076E-1,2.659167498E0
1.722071708E0,-5.448669434E-1,-2.790197754E0,-9.696835327E-1,3.003725960E0
1.732152708E0,-6.448590088E-1,-3.197201385E0,-1.752106476E0,3.702406912E0
1.742232708E0,-7.945477295E-1,-3.838767242E0,-2.297572174E0,4.543817550E0
1.752312708E0,-9.101074219E-1,-4.153562622E0,-2.067051544E0,4.727904405E0
1.762392708E0,-8.325686646E-1,-4.231400757E0,-1.376537476E0,4.526895003E0
1.772472708E0,-6.433621216E-1,-3.959116974E0,-3.079096985E-1,4.022851031E0
1.782552708E0,-5.093907166E-1,-3.952680359E0,8.096662903E-1,4.066782564E0
1.792633708E0,-4.188290405E-1,-3.920796661E0,1.517095184E0,4.224883670E0
1.802713708E0,-2.809657288E-1,-3.804787903E0,1.852846985E0,4.241272766E0
1.812793708E0,-1.645079041E-1,-3.788022766E0,1.874551849E0,4.229671851E0
1.822873708E0,7.065307617E-2,-3.694467316E0,1.314865723E0,3.922110716E0
1.832953708E0,3.016227722E-1,-3.384162598E0,6.551875305E-1,3.460173910E0
1.843033708E0,4.192781067E-1,-3.183430023E0,3.441343689E-1,3.229310965E0
1.853114708E0,2.456391907E-1,-2.668351135E0,4.320016479E-1,2.714233191E0
1.863194708E0,-1.092727661E-1,-1.148112488E-1,5.875282288E-1,6.085323162E-1
1.873274708E0,3.091072083E-1,8.580157471E-1,6.125262451E-1,1.098602152E0
1.883354708E0,5.304968262E-1,1.159189453E0,2.872526550E-1,1.306775099E0
1.893434708E0,5.116360474E-1,1.250200195E0,-1.139131165E-1,1.355635707E0
1.903514708E0,5.459147644E-1,1.259181519E0,-5.551954651E-1,1.480473921E0
1.913594708E0,3.975732422E-1,1.267863464E0,-1.188827820E0,1.782934052E0
1.923675708E0,1.791773987E-1,1.256487122E0,-1.663790131E0,2.092620851E0
1.933755708E0,8.472381592E-2,1.256936188E0,-1.779649200E0,2.180416928E0
1.943835708E0,1.817221069E-1,1.191372528E0,-1.546284485E0,1.960455848E0
1.953915708E0,3.749702454E-1,5.722599792E-1,-1.099763031E0,1.295207664E0
1.963995708E0,5.490582275E-1,-5.161267090E-1,-9.199868774E-1,1.189213005E0
1.974075708E0,4.040098572E-1,-9.247769165E-1,-8.499325562E-1,1.319402008E0
1.984156708E0,2.631527710E-1,-1.187031555E0,-8.005352783E-1,1.455730066E0
1.994236708E0,1.547781372E-1,-1.403930511E0,-6.650669861E-1,1.561182644E0
2.004316708E0,-8.906478882E-2,-1.622625732E0,-4.185296631E-1,1.678098294E0
2.014397417E0,-5.029541016E-1,-1.824855194E0,8.307723999E-2,1.894719276E0
2.024477417E0,-9.199868774E-1,-2.051783295E0,5.355862427E-1,2.311502361E0
2.034557417E0,-1.287322998E0,-2.265239410E0,8.541238403E-1,2.741904014E0
2.044638417E0,-1.386566620E0,-2.515069885E0,1.022373962E0,3.048506526E0
2.054718417E0,-1.254092102E0,-2.691702576E0,1.077010345E0,3.158791073E0
2.064798417E0,-7.144642639E-1,-2.771486664E0,9.369017029E-1,3.011541518E0
2.074878417E0,-4.975653076E-1,-1.870959320E0,6.253994751E-1,2.034498591E0
2.084958417E0,-7.075785828E-1,-1.105002136E0,3.156935120E-1,1.349577551E0
2.095038417E0,-7.988887024E-1,-9.979747009E-1,2.139051819E-1,1.296121942E0
2.105119417E0,-1.582359467E0,-2.451901245E-1,3.158432007E-2,1.601554635E0
2.115199417E0,-2.261497192E0,6.677613831E-1,1.275347900E-1,2.361469868E0
2.125279417E0,-2.445913696E0,1.388811951E0,9.145980835E-1,2.957664974E0
2.135359417E0,-2.447111206E0,1.735940094E0,1.534908142E0,3.370131195E0
2.145439417E0,-3.302133179E0,2.418370972E0,2.938838654E0,5.038786989E0
2.155519417E0,-5.708978119E0,3.884571991E0,8.013136597E0,1.057793405E1
2.165600417E0,-6.723418579E0,6.691834259E0,9.959988098E0,1.375450348E1
2.175680417E0,-3.158132629E0,1.429512314E1,5.999823303E0,1.582157473E1
2.185760417E0,8.407566376E0,7.161796967E1,8.693771210E0,7.263196548E1
2.195840417E0,5.582790527E0,8.540400146E1,1.276036469E1,8.653229411E1
2.205920417E0,1.548814224E1,6.245522369E1,-1.502425690E0,6.436454614E1
2.216000417E0,6.219865723E0,3.649276291E1,-1.477233078E1,3.985762450E1
2.226080417E0,4.083657990E0,2.413835403E1,-1.333322342E1,2.787671510E1
2.236161417E0,4.877756653E0,2.288276505E1,-7.505542145E0,2.457125575E1
2.246241417E0,4.165687408E0,2.445314941E1,-2.732866974E0,2.495552103E1
2.256321417E0,3.177741852E0,2.704560837E1,-5.364843750E-1,2.723693798E1
2.266401417E0,1.429826660E0,2.718511826E1,5.839356995E-1,2.722895591E1
2.276481417E0,1.192120972E0,2.472842697E1,1.554966431E0,2.480593021E1
2.286561417E0,1.906285858E0,2.205393860E1,9.825567627E-1,2.215796812E1
2.296642417E0,1.426533508E0,1.998988083E1,-3.414399719E-1,2.004362529E1
2.306722417E0,7.179071045E-1,1.781325714E1,-1.042432251E0,1.785816860E1
2.316802417E0,9.644444275E-1,1.495794479E1,-1.451381836E0,1.505910936E1
2.326882417E0,2.557431793E0,1.198527649E1,-1.937271423E0,1.240726926E1
2.336962417E0,3.312611389E0,8.867260437E0,-2.112706604E0,9.698723167E0
2.347042417E0,2.922672272E0,6.055058441E0,-1.826801147E0,6.967276969E0
2.357123417E0,2.198777618E0,3.747307434E0,-1.043031006E0,4.468204304E0
2.367203417E0,1.581012268E0,2.067650299E0,-1.941462708E-1,2.610070943E0
2.377283417E0,9.770182800E-1,5.614823914E-1,5.920188904E-1,1.272915379E0
2.387363417E0,4.854405212E-1,-6.304888916E-1,1.221909027E0,1.458159941E0
2.397443417E0,1.207987976E-1,-1.420995026E0,1.786385193E0,2.285823980E0
2.407523417E0,-9.595046997E-2,-1.958227844E0,2.457589417E0,3.143820689E0
2.417603417E0,-3.131488037E-1,-2.353406067E0,2.879412231E0,3.731969599E0
2.427684417E0,-5.831872559E-1,-2.434537354E0,2.837798767E0,3.784201546E0
2.437764417E0,-8.030799866E-1,-2.475252686E0,2.155816956E0,3.379254366E0
2.447844417E0,-1.016536102E0,-2.579885101E0,1.057850189E0,2.967861150E0
2.457924417E0,-1.187181244E0,-2.666854248E0,-8.831634521E-3,2.919176063E0
2.468004417E0,-1.037193146E0,-2.894979858E0,-7.879614258E-1,3.174517477E0
2.478084417E0,-7.728428650E-1,-3.069816284E0,-1.063538361E0,3.339486780E0
2.488165417E0,-6.153703308E-1,-3.122057648E0,-6.884184265E-1,3.255740243E0
2.498245417E0,-6.801855469E-1,-3.007246399E0,-1.158590698E-1,3.085385974E0
2.508325417E0,-8.872050476E-1,-2.925366669E0,3.221301270E-1,3.073869022E0
2.518405417E0,-1.184037781E0,-2.830464020E0,6.309379578E-1,3.132340138E0
2.528485417E0,-1.865720215E0,-2.416125641E0,1.039288788E0,3.224700950E0
2.538565417E0,-2.670147400E0,-8.744815063E-1,1.766027527E0,3.318622948E0
2.548645417E0,-2.404898987E0,4.737648010E-1,2.730172577E0,3.669037275E0
2.558726417E0,-2.099683685E0,1.301393738E0,3.488046570E0,4.274197716E0
2.568806417E0,-1.882185974E0,1.474882965E0,4.167633362E0,4.804900794E0
2.578886417E0,-1.698667603E0,1.731898499E0,4.728067932E0,5.314091682E0
2.588966417E0,-1.443448334E0,2.001038818E0,4.930746460E0,5.513615882E0
2.599046417E0,-8.824150085E-1,2.439926147E0,4.931794281E0,5.572655622E0
2.609126417E0,-5.093907166E-1,3.396886139E0,4.800666962E0,5.902941438E0
2.619207417E0,1.034498749E0,1.110256210E1,5.730233917E0,1.253685182E1
2.629287417E0,2.232756958E0,3.056314362E1,9.225615234E0,3.200317059E1
2.639367417E0,3.397933960E-2,3.507551010E1,1.511197449E1,3.819246439E1
2.649447417E0,1.163530426E0,3.787858109E1,1.999182678E1,4.284639829E1
2.659527417E0,-5.135820007E-1,3.369238632E1,1.431054108E1,3.660918257E1
2.669607417E0,-2.916385345E0,2.856210480E1,1.242191849E1,3.128263405E1
2.679687417E0,1.627116394E-1,2.421200089E1,1.069241501E1,2.646838115E1
2.689768417E0,6.075865173E-1,2.297332672E1,1.115225876E1,2.554438837E1
2.699848417E0,-1.225651245E0,2.529110687E1,1.406864410E1,2.896668871E1
2.709928417E0,-2.604134674E0,2.770124496E1,1.656739792E1,3.238238972E1
2.720008417E0,-3.824397125E0,2.859788040E1,1.777808029E1,3.388989401E1
2.730088417E0,-4.312532043E0,2.766561905E1,1.650123550E1,3.250038743E1
2.740168417E0,-4.250111847E0,2.698842728E1,1.455857529E1,3.095788707E1
2.750249417E0,-3.655398560E0,2.723481491E1,1.270303391E1,3.027315894E1
2.760329417E0,-2.694995728E0,2.795586548E1,1.159848083E1,3.038615103E1
2.770409417E0,-1.854942627E0,2.911565369E1,1.051967422E1,3.101331404E1
2.780489417E0,-1.589993591E0,2.978655853E1,8.974437561E0,3.114976209E1
2.790569417E0,-2.725232849E0,2.909948730E1,7.604037323E0,3.019980859E1
2.800649417E0,-3.761527863E0,2.717179596E1,7.330556030E0,2.839353164E1
2.810729417E0,-2.968327332E0,2.559512466E1,8.395291901E0,2.709985793E1
2.820810417E0,-2.265239410E0,2.446063385E1,8.938212891E0,2.614087924E1
2.830890417E0,-1.796713715E0,2.301284454E1,9.022487640E0,2.478355256E1
2.840970417E0,-1.330583038E0,2.195229996E1,8.525670776E0,2.358730563E1
2.851050417E0,-7.244934082E-2,2.050391190E1,7.011269989E0,2.166964602E1
2.861130417E0,2.102228394E0,1.691228073E1,4.627028046E0,1.765938822E1
2.871210417E0,3.405268707E0,1.265228943E1,2.556533661E0,1.334961225E1
2.881291417E0,3.487298126E0,8.759933624E0,1.359622650E0,9.526083092E0
2.891371417E0,2.556084595E0,4.754263458E0,1.005758514E0,5.490732162E0
2.901451417E0,1.432521057E0,1.562600555E0,1.331630859E0,2.503413234E0
2.911531417E0,7.131170654E-1,-5.999523926E-1,1.735341339E0,1.969743228E0
2.921611417E0,4.614903259E-1,-1.437011719E0,1.875150604E0,2.407107349E0
2.931691417E0,3.580554199E-1,-1.737886047E0,1.882335663E0,2.586820277E0
2.941771417E0,2.619552612E-1,-1.927990723E0,2.035916290E0,2.816154102E0
2.951852417E0,1.642085266E-1,-2.125879211E0,2.035916290E0,2.948098031E0
2.961932417E0,1.390608215E-1,-2.436333618E0,1.475182343E0,2.851529827E0
2.972012417E0,2.948867798E-1,-2.759212189E0,6.316864014E-1,2.845915990E0
2.982092417E0,3.903881836E-1,-2.824925537E0,2.640509033E-1,2.863971038E0
2.992172417E0,4.090992737E-1,-3.080893250E0,-6.628216553E-1,3.177829130E0
3.002252417E0,2.833607483E-1,-3.622017975E0,-1.313518524E0,3.863241959E0
3.012332417E0,3.314108276E-1,-3.979025574E0,-1.253044281E0,4.184805566E0
3.022413167E0,2.168989563E-1,-4.066443787E0,-7.487429810E-1,4.140486237E0
3.032493167E0,-3.936813354E-2,-4.276307373E0,-2.103126526E-1,4.281656923E0
3.042573167E0,-1.402583313E-1,-4.402195587E0,-3.258723450E-1,4.416468179E0
3.052653167E0,-3.179388428E-1,-4.448299713E0,-1.129102020E0,4.600361596E0
3.062733167E0,-7.194039917E-1,-4.552932129E0,-7.027885437E-1,4.662686437E0
3.072813167E0,-8.979826355E-1,-4.639302521E0,3.188369751E-1,4.736154316E0
3.082894167E0,-7.855664063E-1,-4.818030853E0,7.209008789E-1,4.934595623E0
3.092974167E0,-7.454498291E-1,-4.929249573E0,8.321195984E-1,5.054267486E0
3.103054167E0,-8.628057861E-1,-4.745731201E0,2.191442871E-1,4.828501080E0
3.113134167E0,-1.539997559E0,-2.147434387E0,-1.179696808E0,2.893916289E0
3.123214167E0,-1.130748596E0,3.884422302E-1,-2.030377808E0,2.356249943E0
3.133294167E0,-1.456471252E-1,8.267308044E-1,-2.174078979E0,2.330518465E0
3.143374167E0,1.975891113E-1,1.157393188E0,-1.644480286E0,2.020622642E0
3.153455167E0,1.654060364E-1,1.296454010E0,-1.218915253E0,1.787150399E0
3.163535167E0,2.134561157E-1,1.295406189E0,-1.006806335E0,1.654478681E0
3.173615167E0,2.375559998E-1,1.297501831E0,-9.005273438E-1,1.597151637E0
3.183695167E0,1.758842468E-1,1.229543152E0,-8.834628296E-1,1.524210682E0
3.193775167E0,1.460961914E-1,2.764750671E-1,-8.334667969E-1,8.901963050E-1
3.203855167E0,-9.669891357E-2,-3.412902832E-1,-7.306306458E-1,8.121889422E-1
3.213936167E0,-8.442443848E-2,-7.626640320E-1,-6.873706055E-1,1.030175840E0
3.224016167E0,1.317260742E-2,-1.202299805E0,-6.715036011E-1,1.377176613E0
3.234096167E0,1.978884888E-1,-1.527423706E0,-5.890251160E-1,1.648979569E0
3.244176167E0,3.632945251E-1,-1.650018768E0,-3.975732422E-1,1.735686991E0
3.254256167E0,3.288661194E-1,-1.692230988E0,-4.086502075E-2,1.724374840E0
3.264336167E0,1.305285645E-1,-1.749711456E0,3.373983765E-1,1.786719214E0
3.274416167E0,-8.247848511E-2,-1.728904724E0,5.763015747E-1,1.824291027E0
3.284497167E0,-2.818638611E-1,-1.727557526E0,8.436456299E-1,1.943100664E0
3.294577167E0,-3.183879089E-1,-1.824705505E0,1.272803192E0,2.247431647E0
3.304657167E0,-1.757345581E-1,-2.038910065E0,1.603166199E0,2.599649736E0
3.314737167E0,-3.502716064E-2,-2.203567657E0,1.829944611E0,2.864547888E0
3.324817167E0,2.020797729E-2,-2.350711670E0,1.830094299E0,2.979177548E0
3.334897167E0,-3.727249146E-2,-2.260599060E0,1.667831726E0,2.809512416E0
3.344977167E0,-4.833448792E-1,-1.752555542E0,1.378633118E0,2.281600858E0
3.355058167E0,-9.520202637E-1,-1.014290771E0,1.044827271E0,1.739767909E0
3.365138167E0,-1.856738892E0,-2.978805542E-1,9.217831421E-1,2.094253160E0
3.375218167E0,-2.578837280E0,6.679110718E-1,1.631457367E0,3.123805381E0
3.385298167E0,-2.237996063E0,1.518292694E0,2.776875458E0,3.876193544E0
3.395378167E0,-1.831291809E0,1.967059479E0,3.373085632E0,4.312848173E0
3.405458167E0,-2.222578125E0,2.633174286E0,4.104764099E0,5.359342185E0
3.415538167E0,-3.325035553E0,3.786825256E0,6.241121521E0,8.021689647E0
3.425619167E0,-4.138743439E0,5.294340363E0,7.823181610E0,1.031316671E1
3.435699167E0,-2.781066742E0,7.711663513E0,5.901028748E0,1.010080327E1
3.445779167E0,-7.095245361E-2,1.122770187E1,1.687141571E0,1.135397597E1
3.455859167E0,1.248433868E1,5.287050522E1,3.711681519E0,5.445113051E1
3.465939167E0,1.882485352E1,1.145428569E2,6.947951660E0,1.162872100E2
3.476019167E0,2.109682892E1,7.630187943E1,1.515747986E0,7.917923014E1
3.486099167E0,8.993897095E0,3.840862885E1,-4.664749603E0,3.972244760E1
3.496180167E0,9.406439209E-1,2.537193878E1,-4.824317780E0,2.584364778E1
3.506260167E0,3.115621033E0,2.276166687E1,-3.973187714E0,2.331494786E1
3.516340167E0,2.518063660E0,2.289758423E1,-2.057022400E0,2.312728582E1
3.526420167E0,1.744023285E0,2.390409119E1,-6.894662476E-1,2.397754275E1
3.536500167E0,8.681945801E-1,2.449685852E1,6.283932495E-1,2.452029195E1
3.546580167E0,-9.442364502E-1,2.271601181E1,9.713301086E-1,2.275636740E1
3.556660167E0,-1.258283386E0,1.999242554E1,1.221010895E0,2.006916101E1
3.566741167E0,1.224453735E-1,1.856140137E1,1.373543701E0,1.861255587E1
3.576821167E0,2.755469971E0,1.732991226E1,1.571731567E-1,1.754830981E1
3.586901167E0,4.166435852E0,1.608824432E1,-1.557062073E0,1.669177149E1
3.596981167E0,4.749323730E0,1.489791962E1,-1.817221069E0,1.574186702E1
3.607061167E0,4.843178558E0,1.336585556E1,-1.248403931E0,1.427098405E1
3.617141167E0,4.438569946E0,1.171014862E1,-7.912545776E-1,1.254809020E1
3.627221167E0,3.333567810E0,1.014620087E1,-6.463558960E-1,1.069933841E1
3.637302167E0,2.440973969E0,8.759035492E0,-5.683680725E-1,9.110548772E0
3.647382167E0,1.794468384E0,7.240443420E0,-3.044668579E-1,7.465710802E0
3.657462167E0,1.195713501E0,5.494623871E0,-7.334747314E-3,5.623226481E0
3.667542167E0,7.984396362E-1,3.739373932E0,2.462379456E-1,3.831586666E0
3.677622167E0,6.643185425E-1,1.934726715E0,3.577560425E-1,2.076650181E0
3.687702167E0,5.257067871E-1,5.264552307E-1,3.863465881E-1,8.383235784E-1
3.697782167E0,3.367996216E-1,-7.277865601E-1,2.474354553E-1,8.392446405E-1
3.707863167E0,2.535726929E-1,-1.740430756E0,9.430389404E-2,1.761332322E0
3.717943167E0,2.546205139E-1,-2.039209442E0,1.407073975E-2,2.055092392E0
3.728023167E0,2.362088013E-1,-2.167193298E0,6.391708374E-2,2.180964645E0
3.738103167E0,4.385879517E-2,-2.312990112E0,2.104623413E-1,2.322959589E0
3.748183167E0,-1.607656860E-1,-2.393223267E0,3.348536682E-1,2.421877410E0
3.758263167E0,-2.929408264E-1,-2.442919922E0,3.269201660E-1,2.482045299E0
3.768343167E0,-3.132984924E-1,-2.521506500E0,3.906875610E-1,2.570756260E0
3.778424167E0,-3.077600098E-1,-2.573747864E0,7.069798279E-1,2.686766601E0
3.788504167E0,-3.375480652E-1,-2.488275604E0,1.113384705E0,2.746830843E0
3.798584167E0,-3.504212952E-1,-2.486179962E0,1.431473236E0,2.890155967E0
3.808664167E0,-3.023712158E-1,-2.472258911E0,1.633852386E0,2.978752440E0
3.818744167E0,-1.408570862E-1,-2.456840973E0,1.760339355E0,3.025673963E0
3.828824167E0,1.398092651E-1,-2.529589691E0,1.876048737E0,3.152448175E0
3.838905167E0,3.728746033E-1,-2.629881134E0,1.916315002E0,3.275297458E0
3.848985167E0,3.221301270E-1,-2.705024872E0,1.650168457E0,3.184962058E0
3.859065167E0,-2.189945984E-1,-2.633623352E0,1.591191101E0,3.084772231E0
3.869145167E0,-1.345701599E0,-1.338217163E0,1.694626007E0,2.544306442E0
3.879225167E0,-2.193837891E0,6.641688538E-1,1.915566559E0,2.987212781E0
3.889305167E0,-2.010319519E0,1.363065491E0,1.915117493E0,3.093057890E0
3.899385167E0,-1.667831726E0,1.540895691E0,2.011816406E0,3.033715123E0
3.909466167E0,-2.064207458E0,1.987267456E0,2.563718719E0,3.844845647E0
3.919546167E0,-2.829116821E0,3.420536957E0,3.379671936E0,5.579082134E0
3.929626167E0,-3.772006073E0,5.406906281E0,4.978946228E0,8.261511416E0
3.939706167E0,-4.971611481E0,7.001989288E0,7.241940308E0,1.123345335E1
3.949786167E0,-5.250930634E0,1.087099365E1,9.863588562E0,1.558977725E1
3.959866167E0,-3.374133453E0,3.085279129E1,1.683384384E1,3.530804165E1
3.969946167E0,-7.921227722E0,4.500930267E1,2.750754776E1,5.334086950E1
3.980026167E0,-4.472698975E0,4.307532440E1,2.601829468E1,5.052168115E1
3.990107167E0,-1.643881531E0,3.549418945E1,1.248763184E1,3.766272402E1
4.000187167E0,-1.419947205E0,2.865176834E1,6.911726990E0,2.950783030E1
4.010267167E0,3.160976715E0,2.481255203E1,5.659281464E0,2.564531105E1
4.020347333E0,4.877457275E0,2.481404892E1,6.331683197E0,2.606946155E1
4.030427333E0,4.621788940E0,2.752506134E1,7.614814911E0,2.893052611E1
4.040507333E0,-5.649252319E-1,2.868769363E1,7.912845154E0,2.976434150E1
4.050587333E0,-5.803431702E0,2.764675827E1,9.093589783E0,2.967686704E1
4.060668333E0,-8.738228760E0,2.509755936E1,1.015578094E1,2.844967511E1
4.070748333E0,-9.737101593E0,2.329231339E1,1.026580215E1,2.725306779E1
4.080828333E0,-7.356003113E0,2.331222198E1,1.022957748E1,2.649933454E1
4.090908333E0,-3.787274323E0,2.450254669E1,1.018886215E1,2.680543141E1
4.100988333E0,-2.145937500E0,2.535457489E1,9.720336456E0,2.723865739E1
4.111068333E0,-1.356628876E0,2.614582947E1,9.262139282E0,2.777106524E1
4.121148333E0,-5.870791626E-1,2.721281067E1,9.399703217E0,2.879646067E1
4.131229333E0,-4.763095093E-1,2.721071503E1,9.877808990E0,2.895204645E1
4.141309333E0,-9.499246216E-1,2.641047913E1,1.112875763E1,2.867516366E1
4.151389333E0,-1.942660217E0,2.522075317E1,1.243374390E1,2.818613678E1
4.161469333E0,-3.386108551E0,2.359782806E1,1.174547516E1,2.657591780E1
4.171549333E0,-3.642225952E0,2.410078217E1,9.992021484E0,2.634300674E1
4.181629333E0,-2.348017273E0,2.361474289E1,7.162455597E0,2.478850615E1
4.191709333E0,-8.499325562E-1,2.215872070E1,4.943170624E0,2.271929190E1
4.201789333E0,-3.112028503E-1,1.974633728E1,3.679199066E0,2.008858355E1
4.211870333E0,1.520538025E0,1.531749710E1,3.242557068E0,1.573060487E1
4.221950333E0,3.927382965E0,1.071262299E1,2.600542145E0,1.170245477E1
4.232030333E0,4.463418274E0,6.552174683E0,3.322640533E0,8.596105855E0
4.242110333E0,3.512595520E0,3.060236206E0,4.143383789E0,6.234661350E0
4.252190333E0,1.925146637E0,4.805007935E-1,3.824397125E0,4.308489754E0
4.262270333E0,8.271798706E-1,-1.051862640E0,2.585423584E0,2.911195057E0
4.272350333E0,2.963836670E-1,-1.829645233E0,1.506467285E0,2.388490871E0
4.282431333E0,-1.200503540E-1,-2.136357422E0,1.011446686E0,2.366740273E0
4.292511333E0,-3.252735901E-1,-2.251168671E0,5.764512634E-1,2.346456765E0
4.302591333E0,-4.261637878E-1,-2.464175720E0,3.293151855E-2,2.500972219E0
4.312671333E0,-5.309458923E-1,-2.948269043E0,-4.930746460E-1,3.036003376E0
4.322751333E0,-7.420069885E-1,-3.654051361E0,-1.161434784E0,3.905329241E0
4.332831333E0,-1.093326416E0,-4.538861389E0,-1.517544250E0,4.909130872E0
4.342911333E0,-1.296454010E0,-5.157973938E0,-8.464897156E-1,5.385353562E0
4.352992333E0,-1.426533508E0,-5.370980988E0,-1.088237000E-1,5.558262068E0
4.363072333E0,-1.888023834E0,-5.466183014E0,4.846920776E-1,5.803336726E0
4.373152333E0,-2.113005981E0,-5.436544647E0,1.116378479E0,5.938612034E0
4.383232333E0,-2.150877228E0,-5.251828766E0,1.778302002E0,5.947296549E0
4.393312333E0,-2.263293457E0,-5.099146271E0,1.759441223E0,5.849737035E0
4.403392333E0,-1.918710022E0,-4.775219879E0,1.291514282E0,5.305863001E0
4.413472333E0,-1.128652954E0,-4.155358887E0,5.149291992E-1,4.336590487E0
4.423553333E0,-5.867797852E-2,-3.480412445E0,-2.921923828E-1,3.493149049E0
4.433633333E0,8.994795227E-1,-2.954705658E0,-9.056167603E-1,3.218616264E0
4.443713333E0,1.785337372E0,-2.244881744E0,-1.443148956E0,3.210856971E0
4.453793333E0,1.548679504E0,8.217910767E-2,-2.077978821E0,2.592905242E0
4.463873333E0,1.052012329E0,1.216520233E0,-2.552641754E0,3.017056735E0
4.473953333E0,9.729766846E-1,1.311273193E0,-1.959874420E0,2.550927039E0
4.484033333E0,7.002438354E-1,1.535506897E0,-1.082997894E0,2.005244947E0
4.494114333E0,3.532653809E-1,1.779499512E0,-6.768923950E-1,1.936387940E0
4.504194333E0,7.933502197E-2,2.015558624E0,-7.752378845E-1,2.160963764E0
4.514274333E0,3.981719971E-2,2.145787811E0,-9.439370728E-1,2.344569883E0
4.524354333E0,4.400848389E-2,2.167342987E0,-7.946974182E-1,2.308864733E0
4.534434333E0,8.906478882E-2,2.057022400E0,-4.719685364E-1,2.112351294E0
4.544514333E0,1.884580994E-1,1.840871887E0,-5.583389282E-2,1.851335514E0
4.554594333E0,3.074606323E-1,1.322948914E0,2.237846375E-1,1.376519318E0
4.564675333E0,2.839595032E-1,9.295669556E-1,3.890409851E-1,1.046938686E0
4.574755333E0,3.745211792E-1,6.104306030E-1,3.144960022E-1,7.821760481E-1
4.584835333E0,3.680845642E-1,3.929328918E-1,-1.152603149E-2,5.385307357E-1
4.594915333E0,2.607577515E-1,2.918930054E-2,-9.834548950E-2,2.802114479E-1
4.604995333E0,6.765930176E-2,-2.921923828E-1,2.710862732E-1,4.042795285E-1
4.615075333E0,-1.441502380E-1,-6.755451965E-1,1.001716919E0,1.216789788E0
4.625155333E0,-4.372407532E-1,-1.037791901E0,1.616488495E0,1.970082881E0
4.635235333E0,-1.179547119E0,-1.466949463E0,1.766177216E0,2.581211748E0
4.645316333E0,-2.607876892E0,-1.909279633E0,1.719025269E0,3.660794787E0
4.655396333E0,-4.028422852E0,-2.687062225E0,1.056652679E0,4.956310014E0
4.665476333E0,-4.234693909E0,-3.455115051E0,-4.700225830E-2,5.465588873E0
4.675556333E0,-3.810027008E0,-4.113446045E0,-1.452130280E0,5.791841375E0
4.685636333E0,-3.099454651E0,-4.640500031E0,-1.651066589E0,5.819525801E0
4.695716333E0,-2.041005707E0,-4.872068481E0,-1.029708710E0,5.381733513E0
4.705796333E0,-1.393003235E0,-4.769980774E0,3.023712158E-1,4.978413698E0
4.715877333E0,-1.054107971E0,-3.795806580E0,1.414558411E-1,3.941992004E0
4.725957333E0,-4.625381470E-2,-2.512674866E0,-9.361532593E-1,2.681801134E0
4.736037333E0,-2.963836670E-2,-7.078779602E-1,1.108744354E0,1.315782536E0
4.746117333E0,-2.679428101E-1,1.564995575E0,1.562750244E0,2.227822440E0
4.756197333E0,4.041595459E-3,3.461551666E0,2.108515320E0,4.053170750E0
4.766277333E0,-6.306385803E-1,4.465364227E0,4.080065460E0,6.081456804E0
4.776357333E0,-2.242935791E0,5.693709869E0,9.265731812E0,1.110418295E1
4.786437333E0,-3.215014343E0,7.613617401E0,1.094778397E1,1.371705001E1
4.796518333E0,-2.221081238E0,1.097353043E1,8.464897156E0,1.403588457E1
4.806598333E0,8.743318176E0,6.587501221E1,4.270020447E0,6.658975838E1
4.816678333E0,1.166419418E1,1.002885988E2,-3.071462860E0,1.010113378E2
4.826758333E0,1.943154190E1,5.733616882E1,7.125183105E-2,6.053945947E1
4.836838333E0,3.590134277E0,2.826138016E1,9.493258667E-1,2.850431357E1
4.846918333E0,2.425705719E0,2.400767578E1,9.153465271E-1,2.414726494E1
4.856998333E0,3.154839478E0,2.779030975E1,1.306183777E0,2.799929364E1
4.867079333E0,2.346969452E0,2.769076675E1,1.532812500E0,2.783228958E1
4.877159333E0,7.568261719E-1,2.602098907E1,1.754501495E0,2.609105084E1
4.887239333E0,-1.692230988E0,2.518348068E1,2.212998047E0,2.533710136E1
4.897319333E0,-3.566633148E0,2.428220490E1,2.982996826E0,2.472336176E1
4.907399333E0,-2.554288330E0,2.291434937E1,3.639381866E0,2.334174150E1
4.917479333E0,-2.802172852E-1,2.101375168E1,3.313359833E0,2.127521174E1
4.927559333E0,1.672023010E-1,1.910492111E1,2.130968628E0,1.922412533E1
4.937639333E0,9.605525208E-1,1.746148865E1,6.771917725E-1,1.750099528E1
4.947720333E0,1.861828308E0,1.552152283E1,-4.629872131E-1,1.563964298E1
4.957800333E0,2.450853424E0,1.366807709E1,-1.031954041E0,1.392436508E1
4.967880333E0,2.622696075E0,1.173095535E1,-9.608518982E-1,1.205890064E1
4.977960333E0,2.396067352E0,9.823022919E0,-4.749623108E-1,1.012217898E1
4.988040333E0,2.074985046E0,7.953560486E0,2.010319519E-1,8.222232129E0
4.998120333E0,1.738035736E0,5.983207855E0,7.821235657E-1,6.279431641E0
5.008200333E0,1.383872223E0,3.840114441E0,1.288221130E0,4.280314817E0
5.018280542E0,1.286873932E0,2.163301392E0,1.432221680E0,2.896062217E0
5.028361542E0,1.273701324E0,9.107061768E-1,1.217717743E0,1.983566814E0
5.038441542E0,1.259480896E0,1.139131165E-1,8.464897156E-1,1.521779604E0
5.048521542E0,1.084494781E0,-7.114704895E-1,5.795947266E-1,1.420650990E0
5.058601542E0,9.123527527E-1,-1.398691406E0,4.007167053E-1,1.717352344E0
5.068681542E0,7.717950439E-1,-1.781295776E0,3.242257690E-1,1.968198309E0
5.078761542E0,6.709048462E-1,-2.001487885E0,3.255729675E-1,2.135899066E0
5.088841542E0,4.430786133E-1,-2.120191040E0,2.857557678E-1,2.184762015E0
5.098922542E0,2.146536255E-1,-2.214045868E0,2.546205139E-1,2.238952186E0
5.109002542E0,7.783813477E-3,-2.241887970E0,2.650987244E-1,2.257520674E0
5.119082542E0,-1.490899658E-1,-2.186802521E0,3.297642517E-1,2.216546310E0
5.129162542E0,-2.758763123E-1,-2.127226410E0,4.897814941E-1,2.200246770E0
5.139242542E0,-4.363426208E-1,-1.889221344E0,7.231462097E-1,2.069418423E0
5.149322542E0,-4.348457336E-1,-1.252595215E0,8.720864868E-1,1.587016202E0
5.159402542E0,-4.510121155E-1,-1.079255676E0,8.586145020E-1,1.451007790E0
5.169482542E0,-3.543132019E-1,-9.568103027E-1,9.654922485E-1,1.404706048E0
5.179563542E0,-2.722837830E-1,-6.286926270E-1,1.114432526E0,1.308186811E0
5.189643542E0,-2.582130432E-1,-5.104385376E-2,1.320553894E0,1.346529628E0
5.199723542E0,-1.591191101E-1,6.075865173E-1,1.478325806E0,1.606215258E0
5.209803542E0,-1.315763855E-1,1.012494507E0,1.540596313E0,1.848213860E0
5.219883542E0,-3.824546814E-1,1.319955139E0,1.536105652E0,2.061109829E0
5.229963542E0,-6.707551575E-1,1.828447723E0,1.700613556E0,2.585579244E0
5.240043542E0,-6.442602539E-1,3.518283691E0,2.338586884E0,4.273450599E0
5.250123542E0,-1.511856079E-1,8.939859467E0,3.812122650E0,9.719888038E0
5.260204542E0,-2.894979858E-1,1.803225174E1,6.825655975E0,1.928303636E1
5.270284542E0,-2.226020966E0,2.470088425E1,1.321092773E1,2.810013280E1
5.280364542E0,-2.708318024E0,2.929049011E1,2.026994843E1,3.572308227E1
5.290444542E0,-2.051783295E0,3.083857086E1,2.077589630E1,3.724063821E1
5.300524542E0,-2.158810730E0,2.901685913E1,1.521630753E1,3.283556901E1
5.310604542E0,-2.534230042E-1,2.599748795E1,9.746981049E0,2.776575665E1
5.320684542E0,1.781146088E0,2.513947220E1,6.721023560E0,2.608328395E1
5.330765542E0,1.800156555E0,2.369542511E1,6.140830078E0,2.454431765E1
5.340845542E0,3.486699371E0,2.438429260E1,7.392377472E0,2.571766014E1
5.350925542E0,2.918930054E0,2.924782883E1,8.599916382E0,3.062538499E1
5.361005542E0,-2.283052368E0,3.115291718E1,9.746232605E0,3.272163851E1
5.371085542E0,-6.811585236E0,2.934797058E1,1.102607117E1,3.208232093E1
5.381165542E0,-9.459728394E0,2.622965515E1,1.068762497E1,2.986145673E1
5.391245542E0,-9.659263458E0,2.416425018E1,1.014036301E1,2.792918401E1
5.401325542E0,-6.409072266E0,2.458143265E1,9.680219879E0,2.718510061E1
5.411406542E0,-3.300037537E0,2.583956635E1,8.676257629E0,2.745634504E1
5.421486542E0,-2.115850067E0,2.654205551E1,7.200326843E0,2.758264380E1
5.431566542E0,-1.151106262E0,2.685206085E1,6.155499573E0,2.757260221E1
5.441646542E0,-3.153941345E-1,2.612876495E1,6.288572845E0,2.687671818E1
5.451726542E0,-7.270381165E-1,2.523976364E1,7.563920746E0,2.635881542E1
5.461806542E0,-2.218087463E0,2.537807602E1,8.809330902E0,2.695498034E1
5.471886542E0,-2.306553497E0,2.536190964E1,9.389524384E0,2.714239889E1
5.481966542E0,-1.698966980E0,2.460777786E1,8.965456238E0,2.624516385E1
5.492047542E0,-2.147434387E0,2.419119415E1,7.811954956E0,2.551180098E1
5.502127542E0,-2.124981079E0,2.418760162E1,6.483018494E0,2.513135782E1
5.512207542E0,-1.107696533E-2,2.118140305E1,5.626499634E0,2.191596349E1
5.522287542E0,2.943628693E0,1.611533798E1,2.244732056E0,1.653505035E1
5.532367542E0,4.274810486E0,1.164069305E1,-4.135899353E-1,1.240769101E1
5.542447542E0,4.519401855E0,7.186106415E0,-2.704875183E-1,8.493425813E0
5.552527542E0,3.960913239E0,3.351979523E0,2.119592285E-1,5.193219340E0
5.562607542E0,3.100652161E0,6.099815369E-1,8.509803772E-1,3.272657773E0
5.572688542E0,2.066901855E0,-1.274300079E0,1.617236938E0,2.917426826E0
5.582768542E0,1.356479187E0,-1.968855743E0,2.082170105E0,3.170467011E0
5.592848542E0,7.475454712E-1,-2.222578125E0,1.830393677E0,2.974730032E0
5.602928542E0,3.124003601E-1,-2.326312408E0,1.349443817E0,2.707456744E0
5.613008542E0,-4.071533203E-2,-2.510279846E0,1.004111938E0,2.703960693E0
5.623088542E0,-3.279679871E-1,-2.943778381E0,-1.841171265E-2,2.962048810E0
5.633168542E0,-4.613406372E-1,-3.811224518E0,-1.821562042E0,4.249277089E0
5.643248542E0,-5.399272156E-1,-4.704866180E0,-2.644101562E0,5.423887927E0
5.653329542E0,-6.770420837E-1,-4.813540192E0,-1.631157990E0,5.127302560E0
5.663409542E0,-9.452842712E-1,-4.879702606E0,-4.082011414E-1,4.987152299E0
5.673489542E0,-1.086440735E0,-4.963528290E0,1.357676697E-1,5.082853472E0
5.683569542E0,-1.227896576E0,-4.988526306E0,1.348695374E-1,5.139193954E0
5.693649542E0,-1.568887482E0,-4.921465759E0,2.908451843E-1,5.173666405E0
5.703729542E0,-1.848356323E0,-4.645290070E0,6.303392029E-1,5.039094010E0
5.713809542E0,-1.935175781E0,-4.316423950E0,9.409432983E-1,4.823048342E0
5.723890542E0,-1.588347015E0,-4.112996979E0,8.152047729E-1,4.483765071E0
5.733970542E0,-1.184935913E0,-3.865112457E0,4.584965515E-1,4.068585321E0
5.744050542E0,-7.093748474E-1,-3.548969879E0,3.617976379E-1,3.637210113E0
5.754130542E0,-4.831951904E-1,-2.186353455E0,3.775149536E-1,2.270712787E0
5.764210542E0,-5.251080322E-1,5.815406799E-1,1.781295776E-2,7.837380362E-1
5.774290542E0,-8.726852417E-2,1.183439026E0,-1.431024170E-1,1.195249775E0
5.784370542E0,1.936972046E-1,1.283880157E0,-6.315367126E-1,1.443850922E0
5.794450542E0,2.941383362E-1,1.293909302E0,-1.333576813E0,1.881261746E0
5.804531542E0,3.814068604E-1,1.299597473E0,-1.863175507E0,2.303442587E0
5.814611542E0,4.809498596E-1,1.254840546E0,-2.229014740E0,2.602776263E0
5.824691542E0,7.337741089E-1,1.164428558E0,-2.138003998E0,2.542711035E0
5.834771542E0,8.872050476E-1,1.091979218E0,-1.590442657E0,2.123454557E0
5.844851542E0,9.346563721E-1,1.040785675E0,-1.044976959E0,1.746079666E0
5.854931542E0,9.162446594E-1,9.726773071E-1,-6.026467896E-1,1.465874678E0
5.865011542E0,7.265890503E-1,7.849676514E-1,-2.721340942E-1,1.103704139E0
5.875091542E0,3.673361206E-1,1.399589539E-1,-6.391708374E-2,3.982583682E-1
5.885172542E0,4.028123474E-1,-7.315287781E-1,1.624122620E-1,8.507466622E-1
5.895252542E0,6.735992432E-2,-1.084943848E0,3.800596619E-1,1.151558014E0
5.905332542E0,-3.468287659E-1,-1.209933929E0,4.751119995E-1,1.345348177E0
5.915412542E0,-6.146218872E-1,-1.509910126E0,6.750961304E-1,1.764466899E0
5.925492542E0,-8.012837219E-1,-1.941762085E0,8.738827515E-1,2.275119043E0
5.935572542E0,-9.120533752E-1,-2.176324310E0,7.235952759E-1,2.468161054E0
5.945652542E0,-8.996292114E-1,-2.199226685E0,4.405339050E-1,2.416609371E0
5.955732542E0,-8.931925964E-1,-2.294578400E0,1.805245972E-1,2.468901006E0
5.965813542E0,-7.511380005E-1,-2.388582916E0,-1.401086426E-1,2.507821181E0
5.975893542E0,-5.342390442E-1,-2.477498016E0,-4.182302856E-1,2.568720372E0
5.985973542E0,-3.342549133E-1,-2.585423584E0,-4.794529724E-1,2.650663428E0
5.996053542E0,-7.200027466E-2,-2.680176544E0,-3.773652649E-1,2.707569924E0
6.006133542E0,-2.694396973E-2,-2.673889618E0,-1.457968140E-1,2.677997083E0
6.016213542E0,-2.420466614E-1,-2.653681641E0,3.115022278E-1,2.682842983E0
6.026292583E0,-6.912625122E-1,-2.504292297E0,4.917274475E-1,2.644072551E0
6.036372583E0,-1.212778015E0,-1.153950348E0,3.487747192E-1,1.709992902E0
6.046453583E0,-1.204694824E0,9.439370728E-1,9.862989807E-1,1.820739546E0
6.056533583E0,-9.746232605E-1,1.513502655E0,1.205293579E0,2.166405640E0
6.066613583E0,-8.948391724E-1,1.990859985E0,1.260977783E0,2.520778768E0
6.076693583E0,-1.328936462E0,2.793191528E0,2.819985809E0,4.185727057E0
6.086773583E0,-2.539768524E0,4.157903595E0,6.508914642E0,8.130470852E0
6.096853583E0,-4.038152618E0,7.308551788E0,1.116064133E1,1.393849062E1
6.106933583E0,-3.993695068E0,1.188363785E1,1.486663467E1,1.944703770E1
6.117013583E0,8.475824432E0,5.897226654E1,1.896735718E1,6.252462282E1
6.127094583E0,7.753426666E0,9.387862839E1,2.379242340E1,9.715653300E1
6.137174583E0,1.608345428E1,6.843438995E1,1.073328003E1,7.111361705E1
6.147254583E0,8.552015991E0,4.415458008E1,-8.551866302E0,4.578098226E1
6.157334583E0,4.505480804E0,2.847199219E1,-1.346659607E1,3.181670797E1
6.167414583E0,2.796035614E0,2.498723877E1,-8.713380432E0,2.661020321E1
6.177494583E0,1.884431305E0,2.279250275E1,-3.077001343E0,2.307633420E1
6.187574583E0,1.767674103E0,2.206022552E1,3.179388428E-1,2.213321728E1
6.197654583E0,1.150956573E0,2.205348953E1,2.292033691E0,2.220212873E1
6.207734583E0,-2.706372070E-1,2.139515854E1,3.798351288E0,2.173139494E1
6.217815583E0,-1.118623810E0,2.013163605E1,4.725223846E0,2.070897944E1
6.227895583E0,-1.097517700E0,1.829285980E1,4.677772522E0,1.891335033E1
6.237975583E0,-1.062789917E0,1.665257080E1,3.748504944E0,1.710230762E1
6.248055583E0,-2.947370911E-1,1.520957153E1,2.591111755E0,1.543151957E1
6.258135583E0,1.021326141E0,1.415022446E1,1.864522705E0,1.430903226E1
6.268215583E0,2.043400726E0,1.323592575E1,1.583407288E0,1.348600740E1
6.278295583E0,2.793939972E0,1.214289871E1,1.286275177E0,1.252639587E1
6.288375583E0,2.919828186E0,1.090182953E1,9.134005737E-1,1.132296712E1
6.298456583E0,2.299218750E0,9.724228363E0,6.023474121E-1,1.001048683E1
6.308536583E0,1.684447174E0,8.668174438E0,4.855902100E-1,8.843664864E0
6.318616583E0,1.147364044E0,7.530839539E0,6.497987366E-1,7.645405601E0
6.328696583E0,6.629713440E-1,6.320007477E0,9.072633362E-1,6.419123949E0
6.338776583E0,3.751199341E-1,5.146896973E0,1.162332916E0,5.289828090E0
6.348856583E0,2.348616028E-1,4.061803436E0,1.290915527E0,4.268473969E0
6.358936583E0,8.232879639E-2,3.019820251E0,1.309925995E0,3.292719012E0
6.369016583E0,-6.990463257E-2,2.106419678E0,1.120120697E0,2.386746927E0
6.379097583E0,-2.924917603E-1,1.231189728E0,8.334667969E-1,1.515271090E0
6.389177583E0,-3.924838257E-1,4.605921936E-1,6.289920044E-1,8.728228135E-1
6.399257583E0,-3.438349915E-1,-1.137634277E-1,3.863465881E-1,5.295548177E-1
6.409337583E0,-3.953279114E-1,-4.887336731E-1,2.309696960E-1,6.696952749E-1
6.419417583E0,-4.016148376E-1,-1.068328400E0,2.600093079E-1,1.170566054E0
6.429497583E0,-3.682342529E-1,-1.328936462E0,2.748284912E-1,1.406129185E0
6.439577583E0,-3.436853027E-1,-1.566342773E0,3.396437073E-1,1.639178794E0
6.449657583E0,-2.836601257E-1,-1.349593506E0,4.016148376E-1,1.436370487E0
6.459737583E0,-2.267784119E-1,-1.013542328E0,4.328997803E-1,1.125210522E0
6.469818583E0,-1.276844788E-1,-8.696914673E-1,4.544549561E-1,9.895432691E-1
6.479898583E0,-1.204994202E-1,-6.601272583E-1,4.331991577E-1,7.987174830E-1
6.489978583E0,-6.661148071E-2,-3.332070923E-1,2.719844055E-1,4.352465652E-1
6.500058583E0,-2.335144043E-2,2.231858826E-1,2.326162720E-1,3.232144148E-1
6.510138583E0,8.711883545E-2,6.343807983E-1,4.932243347E-1,8.082690970E-1
6.520218583E0,9.310638428E-2,7.237449646E-1,1.030157776E0,1.262418558E0
6.530298583E0,4.640350342E-2,9.437873840E-1,1.508413239E0,1.779943373E0
6.540378583E0,6.481521606E-2,1.043779449E0,1.676813049E0,1.976203065E0
6.550459583E0,2.463876343E-1,9.711804199E-1,1.671873322E0,1.949117410E0
6.560539583E0,2.622546387E-1,1.323248291E0,1.569186859E0,2.069326203E0
6.570619583E0,-6.445596313E-1,2.910846863E0,1.534608765E0,3.353134450E0
6.580699583E0,-1.346749420E0,4.714595947E0,1.929936676E0,5.269326762E0
6.590779583E0,-1.052611084E0,7.112459564E0,2.990930328E0,7.787216151E0
6.600859583E0,-6.804849243E-1,1.022403900E1,5.233866119E0,1.150597183E1
6.610939583E0,-2.306703186E-1,1.339953552E1,9.009464722E0,1.614841217E1
6.621019583E0,-1.009800110E0,1.671738602E1,1.212194229E1,2.067443292E1
6.631100583E0,-2.098037109E0,2.109368546E1,1.455183929E1,2.571189127E1
6.641180583E0,-2.757116547E0,2.579750381E1,1.668310730E1,3.084540426E1
6.651260583E0,-1.697769470E0,2.885938660E1,1.629391663E1,3.318491125E1
6.661340583E0,3.682342529E-2,2.912673065E1,1.426563446E1,3.243263975E1
6.671420583E0,7.313790894E-1,2.795347046E1,1.276021500E1,3.073685919E1
6.681500583E0,-3.944297791E-1,2.580319199E1,1.187944656E1,2.840918060E1
6.691580583E0,-3.830534363E-1,2.462214798E1,1.190070236E1,2.735002043E1
6.701660583E0,-1.537452850E0,2.623953461E1,1.267249741E1,2.917994394E1
6.711740583E0,-5.540578308E0,2.725846573E1,1.358574829E1,3.095633245E1
6.721821583E0,-9.429341583E0,2.626722702E1,1.273177414E1,3.067536097E1
6.731901583E0,-1.124581421E1,2.521850784E1,1.126916565E1,2.982340640E1
6.741981583E0,-9.765991516E0,2.412862427E1,1.088177124E1,2.821308286E1
6.752061583E0,-5.528303833E0,2.431139420E1,1.116243759E1,2.731677221E1
6.762141583E0,-2.485880585E0,2.515623734E1,1.023496628E1,2.727215455E1
6.772221583E0,-6.111790466E-1,2.563494186E1,9.090146942E0,2.720578166E1
6.782301583E0,-1.697470093E-1,2.580109634E1,8.821755066E0,2.726809031E1
6.792381583E0,-4.393363953E-1,2.519680298E1,9.255103912E0,2.684639352E1
6.802462583E0,-7.300318909E-1,2.435450455E1,1.003528152E1,2.635112357E1
6.812542583E0,-3.249742126E-1,2.386038208E1,1.102173019E1,2.628501432E1
6.822622583E0,-9.633966064E-1,2.342673386E1,1.184352127E1,2.626802216E1
6.832702583E0,-2.440973969E0,2.291674438E1,1.208377167E1,2.602216488E1
6.842782583E0,-3.171604614E0,2.360306717E1,1.092278595E1,2.620059367E1
6.852862583E0,-2.593955841E0,2.382909714E1,8.380472717E0,2.539265249E1
6.862942583E0,-8.466394043E-1,2.161669785E1,5.311704254E0,2.227583054E1
6.873022583E0,-1.159339142E0,2.061348404E1,2.772534485E0,2.083138831E1
6.883102583E0,-6.887178040E-1,1.636456970E1,2.323318634E0,1.654301312E1
6.893183583E0,1.889820099E0,1.106768463E1,3.192710724E0,1.167298012E1
6.903263583E0,3.453318787E0,8.153544617E0,3.299438782E0,9.449444255E0
6.913343583E0,4.201612701E0,5.925278320E0,3.538791046E0,8.079945206E0
6.923423583E0,3.941902771E0,2.891986084E0,3.057092743E0,5.766107613E0
6.933503583E0,3.254232788E0,8.692424011E-1,2.528541870E0,4.211785533E0
6.943583583E0,2.307451630E0,-4.595443726E-1,2.042203217E0,3.115462731E0
6.953663583E0,1.324894867E0,-1.357826385E0,1.439406738E0,2.381371592E0
6.963743583E0,4.893324280E-1,-1.955533447E0,7.824229431E-1,2.162346630E0
6.973824583E0,-1.291813660E-1,-2.366129608E0,1.992356873E-1,2.378014299E0
6.983904583E0,-4.189787292E-1,-2.501897278E0,-4.828958130E-1,2.582289978E0
6.993984583E0,-7.494914246E-1,-3.033890991E0,-1.634301453E0,3.526637659E0
7.004064583E0,-8.493338013E-1,-4.048331451E0,-2.782863007E0,4.985447017E0
7.014144583E0,-8.524772644E-1,-5.040168915E0,-2.319277039E0,5.613293700E0
7.024225292E0,-1.117276611E0,-5.856271820E0,-8.870553589E-1,6.027528006E0
7.034305292E0,-1.591939545E0,-6.368656311E0,2.074685669E-1,6.567883824E0
7.044385292E0,-2.188000031E0,-7.129973145E0,8.625064087E-1,7.507847793E0
7.054465292E0,-2.428400116E0,-7.718249817E0,1.133442993E0,8.170263177E0
7.064546292E0,-2.117796021E0,-7.747139740E0,1.007105713E0,8.094287866E0
7.074626292E0,-1.336121521E0,-7.137756958E0,9.229806519E-1,7.320156309E0
7.084706292E0,-5.301974487E-1,-6.352489929E0,1.079555054E0,6.465344287E0
7.094786292E0,-5.119354248E-2,-4.839735718E0,1.071771240E0,4.957252887E0
7.104866292E0,-3.338058472E-1,-9.012757874E-1,4.760101318E-1,1.072525074E0
7.114946292E0,3.742218018E-1,7.328759766E-1,-5.508544922E-2,8.247324176E-1
7.125026292E0,8.607101440E-1,1.708846436E0,-3.445834351E-1,1.944149129E0
7.135106292E0,8.942404175E-1,2.539918213E0,-4.246669006E-1,2.726021355E0
7.145187292E0,7.345225525E-1,2.893782349E0,-4.968168640E-1,3.026603155E0
7.155267292E0,7.521858215E-1,3.213966522E0,-3.285667419E-1,3.317125325E0
7.165347292E0,5.065466309E-1,3.466641083E0,-4.950205994E-1,3.538253140E0
7.175427292E0,2.785707092E-1,3.776496735E0,-6.379733276E-1,3.840122289E0
7.185507292E0,7.963439941E-2,4.073628845E0,-6.447093201E-1,4.125099237E0
7.195587292E0,6.152206421E-2,4.363426208E0,-5.430706787E-1,4.397521916E0
7.205667292E0,4.355941772E-1,4.264781342E0,-1.710942078E-1,4.290381732E0
7.215747292E0,8.839118958E-1,2.020498352E0,-7.484436035E-3,2.205395621E0
7.225827292E0,2.847079468E-1,-4.068539429E-1,-1.308279419E-1,5.135218556E-1
7.235908292E0,-3.603007507E-1,-1.791324921E0,-3.505709839E-1,1.860527242E0
7.245988292E0,-1.131646729E0,-3.389701080E0,-2.154020691E-1,3.580097175E0
7.256068292E0,-1.802401886E0,-4.931494904E0,-1.908531189E-1,5.254019362E0
7.266148292E0,-1.638043671E0,-5.845194855E0,-4.866380310E-1,6.089852751E0
7.276228292E0,-1.677262115E0,-6.239325256E0,-5.072950745E-1,6.480720342E0
7.286308292E0,-1.773511963E0,-6.163582764E0,-2.838098145E-1,6.419941213E0
7.296388292E0,-1.461710358E0,-5.764662323E0,-3.469784546E-1,5.957207644E0
7.306468292E0,-8.331674194E-1,-5.053191833E0,-4.028123474E-1,5.137234026E0
7.316549292E0,-3.040177917E-1,-4.161645813E0,-2.059716797E-1,4.177816059E0
7.326629292E0,7.723937988E-2,-3.333118744E0,-5.194198608E-2,3.334418158E0
7.336709292E0,3.535647583E-1,-2.543959808E0,-4.041595459E-3,2.568415052E0
7.346789292E0,5.167254639E-1,-1.718127136E0,2.947370911E-1,1.818195813E0
7.356869292E0,5.572911072E-1,-9.918374634E-1,8.795709229E-1,1.438040312E0
7.366949292E0,5.472619629E-1,-2.302212524E-1,1.410067749E0,1.529963574E0
7.377029292E0,5.170248413E-1,8.574169922E-1,7.147636414E-1,1.230189273E0
7.387109292E0,4.348457336E-1,2.009571075E0,1.517843628E-1,2.061675341E0
7.397189292E0,4.724176025E-1,3.306025085E0,4.950205994E-1,3.376096215E0
7.407270292E0,3.110531616E-1,3.500321045E0,9.644444275E-1,3.644057428E0
7.417350292E0,1.642085266E-1,3.959566040E0,2.303709412E0,4.583907146E0
7.427430292E0,-4.799020386E-1,5.020410004E0,4.187691650E0,6.555271461E0
7.437510292E0,-1.229543152E0,6.285279694E0,5.967640228E0,8.753813288E0
7.447590292E0,-2.534230042E-1,1.319356384E1,8.087382202E0,1.547708309E1
7.457670292E0,2.207010498E0,5.375247116E1,1.711690521E1,5.645518130E1
7.467750292E0,-1.114282837E0,5.786891098E1,1.532572998E1,5.987428900E1
7.477830292E0,9.857601013E0,5.105942139E1,1.584455109E0,5.202640972E1
7.487910292E0,8.503217468E0,4.252177551E1,-9.106612701E0,4.430955309E1
7.497990292E0,6.080804901E0,3.091536118E1,-7.526797943E0,3.239426542E1
7.508071292E0,4.263434143E0,2.494712219E1,-3.839216309E0,2.559834679E1
7.518151292E0,3.054098969E0,2.232562363E1,-1.151405640E0,2.256295029E1
7.528231292E0,2.717449036E0,2.272229874E1,1.966460724E0,2.296855148E1
7.538311292E0,2.608924713E0,2.385349640E1,4.052822113E0,2.433559421E1
7.548391292E0,2.745740204E0,2.450808517E1,4.737648010E0,2.511236024E1
7.558471292E0,3.227139130E0,2.436228836E1,4.450994110E0,2.497492482E1
7.568551292E0,3.244652710E0,2.298155960E1,4.022584991E0,2.355548859E1
7.578631292E0,3.223247223E0,2.140922928E1,3.969445496E0,2.201138157E1
7.588711292E0,3.616629181E0,2.027892975E1,4.125421143E0,2.100795321E1
7.598792292E0,3.561543732E0,1.896451309E1,3.677103424E0,1.964327977E1
7.608872292E0,3.265309753E0,1.750370087E1,2.389630737E0,1.796530342E1
7.618952292E0,2.735411682E0,1.601504654E1,1.081501007E0,1.628293085E1
7.629032292E0,2.437830505E0,1.473071732E1,1.679507446E-1,1.493202122E1
7.639112292E0,2.241738281E0,1.362332016E1,-4.212240601E-1,1.381295307E1
7.649192292E0,1.965861969E0,1.257984009E1,-8.018824768E-1,1.275774296E1
7.659272292E0,1.583856354E0,1.153381531E1,-8.529263306E-1,1.167325918E1
7.669352292E0,1.126257935E0,1.048629364E1,-7.188052368E-1,1.057106864E1
7.679432292E0,7.161108398E-1,9.287586365E0,-4.739144897E-1,9.327200553E0
7.689513292E0,4.572990417E-1,7.887547760E0,-2.267784119E-1,7.904047098E0
7.699593292E0,2.868035889E-1,6.424939270E0,-1.748364258E-1,6.433713445E0
7.709673292E0,2.498304749E-1,5.016218719E0,-2.793191528E-1,5.030197282E0
7.719753292E0,1.498384094E-1,3.628304901E0,-3.622467041E-1,3.649420595E0
7.729833292E0,5.089416504E-2,2.284549255E0,-3.444337463E-1,2.310928411E0
7.739913292E0,1.451980591E-1,1.195713501E0,-3.149450684E-1,1.244991425E0
7.749993292E0,2.106120300E-1,3.083587646E-2,-4.346960449E-1,4.840133572E-1
7.760073292E0,1.761836243E-1,-9.633966064E-1,-7.253915405E-1,1.218756160E0
7.770153292E0,1.851649475E-1,-1.508562927E0,-1.121467896E0,1.888845786E0
7.780234292E0,2.911445618E-1,-1.744322662E0,-1.547332306E0,2.349822115E0
7.790314292E0,3.559597778E-1,-1.886377258E0,-1.873054962E0,2.682062903E0
7.800394292E0,3.899391174E-1,-2.002984772E0,-1.922302551E0,2.803434966E0
7.810474292E0,3.791615295E-1,-2.077230377E0,-1.632654877E0,2.669121850E0
7.820554292E0,3.294648743E-1,-2.066153412E0,-1.080004120E0,2.354558541E0
7.830634292E0,2.104623413E-1,-1.977986755E0,-4.162843323E-1,2.032244731E0
7.840714292E0,6.047424316E-2,-2.020049286E0,2.579136658E-1,2.037345261E0
7.850794292E0,-9.520202637E-2,-2.082768860E0,7.500901794E-1,2.215767322E0
7.860874292E0,-2.727328491E-1,-2.111658783E0,1.006357269E0,2.355045854E0
7.870955292E0,-4.156855774E-1,-2.166444855E0,1.200204163E0,2.511327904E0
7.881035292E0,-5.902226257E-1,-2.225871277E0,1.260379028E0,2.625151612E0
7.891115292E0,-1.019679565E0,-2.258952484E0,1.257085876E0,2.779006593E0
7.901195292E0,-1.567839661E0,-1.869612122E0,1.271306305E0,2.751325209E0
7.911275292E0,-1.774410095E0,-6.779402161E-1,1.190324707E0,2.241652745E0
7.921355292E0,-1.719773712E0,2.799179077E-1,1.358425140E0,2.209365184E0
7.931435292E0,-1.572779388E0,1.190324707E0,1.781146088E0,2.657628510E0
7.941515292E0,-1.401834869E0,1.618733826E0,2.114802246E0,3.009622691E0
7.951595292E0,-1.306932220E0,1.568438416E0,2.527793427E0,3.249278458E0
7.961676292E0,-1.480571136E0,1.709445190E0,3.002456360E0,3.758861256E0
7.971756292E0,-1.836979980E0,1.934577026E0,3.572920074E0,4.459018006E0
7.981836292E0,-1.791773987E0,2.262844391E0,4.405937805E0,5.267182045E0
7.991916292E0,-1.744322662E0,2.999312897E0,5.839656372E0,6.792652350E0
8.001996292E0,-1.917811890E0,4.289330292E0,7.990383911E0,9.269443988E0
8.012076292E0,-1.577120361E0,8.678802338E0,1.063538361E1,1.381739133E1
8.022156042E0,1.534608765E0,2.805989914E1,1.532333496E1,3.200808582E1
8.032236042E0,2.546205139E-1,4.067416763E1,2.137016052E1,4.594710551E1
8.042316042E0,5.673202515E-1,4.240142578E1,2.043221100E1,4.707098901E1
8.052397042E0,7.274871826E-2,3.720453278E1,1.001986359E1,3.853025068E1
8.062477042E0,-1.825453949E0,3.009282166E1,4.928501129E0,3.054832762E1
8.072557042E0,-1.796863403E0,2.737986328E1,4.705764313E0,2.783935792E1
8.082637042E0,-1.959575043E0,2.672707077E1,6.282435608E0,2.752535637E1
8.092717042E0,-3.089575195E0,2.631722305E1,7.925419006E0,2.765780126E1
8.102797042E0,-4.997507629E0,2.584929611E1,9.156608734E0,2.787480360E1
8.112877042E0,-6.286626892E0,2.506402908E1,1.034483780E1,2.783420379E1
8.122957042E0,-5.085674286E0,2.352133713E1,1.149968628E1,2.667133607E1
8.133037042E0,-2.985541534E0,2.306718155E1,1.285541702E1,2.657574213E1
8.143117042E0,-1.484013977E0,2.363674713E1,1.256636810E1,2.681066429E1
8.153198042E0,1.895059204E-1,2.442006821E1,1.033391052E1,2.651726514E1
8.163278042E0,1.350042572E0,2.417128555E1,9.144633636E0,2.587852362E1
8.173358042E0,1.240919495E0,2.334754852E1,8.856931915E0,2.500186285E1
8.183438042E0,9.439370728E-1,2.349334534E1,8.240214386E0,2.491444211E1
8.193518042E0,8.021818542E-1,2.392100601E1,7.112758942E0,2.496896802E1
8.203598042E0,5.655239868E-1,2.429253342E1,5.952371979E0,2.501754843E1
8.213678042E0,-5.629792786E-1,2.433788910E1,5.337600403E0,2.492267581E1
8.223758042E0,-1.995350647E0,2.399150940E1,5.451513519E0,2.468386005E1
8.233838042E0,-3.449576569E0,2.298260742E1,5.585634613E0,2.390186471E1
8.243918042E0,-4.964426422E0,2.172911407E1,5.568719788E0,2.297412824E1
8.253999042E0,-5.189558258E0,2.119128250E1,5.537135468E0,2.250915010E1
8.264079042E0,-3.176843719E0,2.007535309E1,5.675597534E0,2.110271416E1
8.274159042E0,-1.077459412E0,1.758378433E1,5.577701111E0,1.847866716E1
8.284239042E0,-1.160836029E0,1.857741806E1,4.734953613E0,1.920645172E1
8.294319042E0,-1.135838013E0,1.786489975E1,4.635111237E0,1.849132303E1
8.304399042E0,1.809137878E0,1.412283142E1,5.705834656E0,1.533896660E1
8.314479042E0,4.518054657E0,1.140762772E1,4.235442352E0,1.298020647E1
8.324559042E0,5.142556000E0,8.729247437E0,6.539900208E-1,1.015250442E1
8.334639042E0,4.953948212E0,5.411247253E0,-2.509830780E0,7.753866794E0
8.344720042E0,4.506378937E0,3.160078583E0,-2.662812653E0,6.114255392E0
8.354800042E0,3.270099792E0,1.759590912E0,-8.297245789E-1,3.805017176E0
8.364880042E0,1.162332916E0,2.231858826E-1,1.510359192E-1,1.193164530E0
8.374960042E0,-1.450483704E-1,-9.407936096E-1,4.956193542E-1,1.073205567E0
8.385040042E0,-6.478527832E-1,-1.623523865E0,7.000941467E-1,1.882996225E0
8.395120042E0,-8.021818542E-1,-2.117646332E0,6.170169067E-1,2.347047417E0
8.405200042E0,-1.035546570E0,-2.681074677E0,-1.591191101E-1,2.878512986E0
8.415280042E0,-1.206341400E0,-3.501219177E0,-1.703158264E0,4.076094132E0
8.425360042E0,-1.349443817E0,-4.717589722E0,-3.377127228E0,5.956646683E0
8.435440042E0,-1.398092651E0,-5.931864624E0,-3.507955170E0,7.031886692E0
8.445521042E0,-1.377285919E0,-7.025041351E0,-1.713935852E0,7.361093573E0
8.455601042E0,-1.361568604E0,-7.652686157E0,2.880010986E-1,7.778201535E0
8.465681042E0,-1.131197662E0,-7.889044647E0,1.118324432E0,8.047812320E0
8.475761042E0,-8.095166016E-1,-8.130941620E0,1.808688812E0,8.368923705E0
8.485841042E0,-8.442443848E-1,-8.237519989E0,2.312541046E0,8.597518842E0
8.495921042E0,-9.803114319E-1,-7.346273346E0,2.209405518E0,7.733706441E0
8.506001042E0,-1.749711456E0,-2.785557404E0,1.731150055E0,3.717216800E0
8.516081042E0,-1.081950073E0,-1.781295776E-1,1.049018555E0,1.517493340E0
8.526161042E0,-4.117936707E-1,7.713459778E-1,6.369255066E-1,1.081768342E0
8.536242042E0,1.059796143E-1,1.599573669E0,4.156855774E-1,1.656098458E0
8.546322042E0,6.935078430E-1,2.315834198E0,2.305206299E-1,2.428411193E0
8.556402042E0,9.482780457E-1,3.069965973E0,-3.667373657E-2,3.213295394E0
8.566482042E0,9.514215088E-1,3.485651550E0,-3.906875610E-1,3.634227069E0
8.576562042E0,8.071215820E-1,3.528612213E0,-5.334906006E-1,3.658847034E0
8.586642042E0,7.602690125E-1,3.556304626E0,-3.977229309E-1,3.658345951E0
8.596722042E0,5.212161255E-1,3.183579712E0,-3.115022278E-1,3.240968940E0
8.606802042E0,-1.781295776E-2,1.568737793E0,-4.927752686E-1,1.644409630E0
8.616882042E0,-2.880010986E-1,5.318440247E-1,-8.207432556E-1,1.019520569E0
8.626962042E0,-4.718188477E-1,-2.893482971E-1,-1.046773224E0,1.184090218E0
8.637043042E0,-5.282514954E-1,-8.162525940E-1,-1.178050232E0,1.527455495E0
8.647123042E0,-4.637356567E-1,-1.190474396E0,-1.274300079E0,1.804472427E0
8.657203042E0,-4.337979126E-1,-1.466650085E0,-1.143771515E0,1.909831506E0
8.667283042E0,-4.001179504E-1,-1.651216278E0,-7.253915405E-1,1.847377184E0
8.677363042E0,-3.661386108E-1,-1.802102509E0,-2.442919922E-1,1.855076686E0
8.687443042E0,-2.730322266E-1,-1.874851227E0,1.975891113E-2,1.894730623E0
8.697523042E0,-3.092568970E-1,-1.978585510E0,2.564167786E-1,2.018957655E0
8.707603042E0,-3.511697388E-1,-1.988015900E0,5.089416504E-1,2.081957974E0
8.717683042E0,-4.790039062E-1,-1.937570801E0,5.996530151E-1,2.084036729E0
8.727763042E0,-5.213658142E-1,-1.723515930E0,6.057902527E-1,1.899818756E0
8.737844042E0,-5.225633240E-1,-1.478924561E0,5.429209900E-1,1.659835379E0
8.747924042E0,-4.743635559E-1,-1.311422882E0,4.068539429E-1,1.452715006E0
8.758004042E0,-4.427792358E-1,-1.184636536E0,2.013313293E-1,1.280605902E0
8.768084042E0,-5.248086548E-1,-1.079105988E0,2.710862732E-1,1.230195767E0
8.778164042E0,-7.499404907E-1,-7.917036438E-1,7.990383911E-1,1.351912627E0
8.788244042E0,-8.086184692E-1,-3.571572876E-1,3.236270142E-1,9.413605054E-1
8.798324042E0,-8.149053955E-1,2.418969727E-1,-2.612068176E-1,8.892772068E-1
8.808404042E0,-8.649014282E-1,1.397194519E0,4.420307922E-1,1.701645740E0
8.818484042E0,-1.059347076E0,2.230361938E0,8.870553589E-1,2.623661147E0
8.828565042E0,-1.502575378E0,2.464475098E0,1.596280518E0,3.298405943E0
8.838645042E0,-2.131118317E0,3.410208435E0,3.172203369E0,5.121919666E0
8.848725042E0,-3.110082550E0,5.166955261E0,5.168302460E0,7.942379395E0
8.858805042E0,-5.942642212E-2,2.567101685E1,9.665251007E0,2.743030650E1
8.868885042E0,-3.728895721E0,6.426795410E1,1.918829773E1,6.717488636E1
8.878965042E0,1.092727661E-2,5.498216400E1,1.276620255E1,5.644479077E1
8.889045042E0,8.807684326E0,5.181984009E1,1.920655975E0,5.259809929E1
8.899125042E0,5.794300690E0,4.127397034E1,-7.904462585E0,4.242163453E1
8.909205042E0,3.777394867E0,3.134945847E1,-9.713600464E0,3.303651453E1
8.919285042E0,2.810106354E0,2.380948792E1,-4.568948822E0,2.440622269E1
8.929365042E0,2.424208832E0,2.161445251E1,2.294728088E-1,2.175118396E1
8.939446042E0,1.977986755E0,2.127480881E1,3.283272400E0,2.161734949E1
8.949526042E0,8.740324402E-1,2.145982407E1,3.465742950E0,2.175544428E1
8.959606042E0,2.975811768E-1,2.270882675E1,2.194885712E0,2.281659243E1
8.969686042E0,5.806425476E-1,2.506118500E1,1.528471527E0,2.511446524E1
8.979766042E0,1.465751953E0,2.473441452E1,9.018745422E-1,2.479421441E1
8.989846042E0,2.263592834E0,2.212174759E1,1.136137390E-1,2.223754656E1
8.999926042E0,2.666704559E0,2.019585251E1,-3.815565491E-1,2.037472349E1
9.010006042E0,2.304308167E0,1.887574768E1,-8.219407654E-1,1.903363531E1
9.020086042E0,1.714833984E0,1.732811600E1,-8.390052795E-1,1.743296273E1
9.030166833E0,1.093476105E0,1.558648773E1,-2.818638611E-1,1.562733941E1
9.040246833E0,6.351292419E-1,1.387988663E1,7.011419678E-1,1.391208978E1
9.050326833E0,3.805087280E-1,1.229962280E1,1.543590088E0,1.240194252E1
9.060406833E0,1.615141296E-1,1.092368408E1,1.484912109E0,1.102533105E1
9.070486833E0,4.381388855E-1,9.452693024E0,2.245330811E-1,9.465505068E0
9.080566833E0,6.921606445E-1,7.753426666E0,-9.024732971E-1,7.836400288E0
9.090646833E0,7.399113464E-1,5.977070618E0,-1.411714325E0,6.185933988E0
9.100726833E0,8.057743835E-1,4.330195312E0,-1.435664520E0,4.632601474E0
9.110806833E0,7.030879211E-1,2.736010437E0,-9.503736877E-1,2.980485847E0
9.120886833E0,6.071374512E-1,1.229692841E0,-3.463796997E-1,1.414474907E0
9.130966833E0,4.351451111E-1,1.332229614E-2,2.432441711E-1,4.986947745E-1
9.141047833E0,2.959346008E-1,-1.073866882E0,4.641847229E-1,1.206745551E0
9.151127833E0,2.583627319E-1,-1.683249664E0,2.450404358E-1,1.720501540E0
9.161207833E0,2.653981018E-1,-1.852248230E0,-1.504371643E-1,1.877202972E0
9.171287833E0,2.236349487E-1,-1.995200958E0,-4.894821167E-1,2.066502407E0
9.181367833E0,1.749861145E-1,-2.230361938E0,-7.788304138E-1,2.368905091E0
9.191447833E0,3.802093506E-2,-2.437531128E0,-8.065228271E-1,2.567777767E0
9.201527833E0,-1.553768921E-1,-2.572849731E0,-4.123924255E-1,2.610318990E0
9.211607833E0,-4.355941772E-1,-2.712060242E0,2.728825378E-1,2.760340182E0
9.221687833E0,-6.821315002E-1,-2.841241608E0,9.316625977E-1,3.066912528E0
9.231767833E0,-8.288264465E-1,-3.031495972E0,1.374292145E0,3.430102040E0
9.241848833E0,-8.634045410E-1,-3.041974182E0,1.456171875E0,3.481308785E0
9.251928833E0,-6.888674927E-1,-2.966531067E0,1.276695099E0,3.302240962E0
9.262008833E0,-4.760101318E-1,-2.838696899E0,1.012644196E0,3.051267605E0
9.272088833E0,-2.371069336E-1,-2.631976776E0,7.270381165E-1,2.740822116E0
9.282168833E0,-2.387535095E-1,-2.356250153E0,4.821473694E-1,2.416895551E0
9.292248833E0,-3.903881836E-1,-1.135239258E0,3.897894287E-1,1.262183388E0
9.302328833E0,-5.062472534E-1,-1.139131165E-1,4.870870972E-1,7.116995995E-1
9.312408833E0,-9.394464111E-1,6.012995911E-1,5.568420410E-1,1.246673099E0
9.322488833E0,-1.263971558E0,1.164278870E0,8.162525940E-1,1.902481979E0
9.332568833E0,-1.509760437E0,1.444047089E0,1.325792999E0,2.474343478E0
9.342649833E0,-1.587598572E0,1.749112701E0,2.085912323E0,3.151332208E0
9.352729833E0,-1.423839111E0,2.051034851E0,2.786455536E0,3.741443068E0
9.362809833E0,-1.420396271E0,2.209555206E0,3.169808350E0,4.116715286E0
9.372889833E0,-1.672023010E0,2.225272522E0,3.611090698E0,4.559328325E0
9.382969833E0,-2.158661041E0,2.955304413E0,4.695735168E0,5.953450297E0
9.393049833E0,-2.403551788E0,3.630250854E0,6.480174408E0,7.806948368E0
9.403129833E0,-2.911744995E0,4.231849823E0,8.901838531E0,1.027762332E1
9.413209833E0,-3.756438446E0,5.417983246E0,1.162273041E1,1.336238131E1
9.423289833E0,-3.872746582E0,7.749385071E0,1.366927460E1,1.618333103E1
9.433369833E0,-1.947599945E0,1.696332458E1,1.540416687E1,2.299643197E1
9.443450833E0,-1.086740112E-1,3.949926086E1,2.033521271E1,4.442661696E1
9.453530833E0,-3.371289368E0,4.412524109E1,2.105027573E1,4.900527116E1
9.463610833E0,-9.220825195E-1,3.837330231E1,1.312395859E1,4.056598150E1
9.473690833E0,-1.197509766E-1,2.964674927E1,7.823331299E0,3.066184266E1
9.483770833E0,-2.969824219E-1,2.437740692E1,5.901178436E0,2.508326282E1
9.493850833E0,-7.291337585E-1,2.388433228E1,6.170767822E0,2.467937073E1
9.503930833E0,-2.658471680E-1,2.391846130E1,9.472751312E0,2.572734894E1
9.514010833E0,2.728825378E-1,2.556578568E1,1.297606613E1,2.867162629E1
9.524090833E0,-1.580413513E0,2.663441345E1,1.393542114E1,3.010125661E1
9.534170833E0,-4.916076965E0,2.543346085E1,1.371193588E1,2.930948531E1
9.544250833E0,-7.364685059E0,2.380784134E1,1.265797760E1,2.795132004E1
9.554331833E0,-7.953261108E0,2.354932892E1,1.228719864E1,2.772725203E1
9.564411833E0,-6.618037720E0,2.324201797E1,1.223346039E1,2.708592579E1
9.574491833E0,-4.886737976E0,2.266466858E1,1.134176468E1,2.581090924E1
9.584571833E0,-3.331023102E0,2.195709000E1,1.060215271E1,2.460924944E1
9.594651833E0,-2.543810120E0,2.149170776E1,9.974058838E0,2.382952627E1
9.604731833E0,-2.087109833E0,2.174019104E1,9.164242859E0,2.368491674E1
9.614811833E0,-9.975256348E-1,2.185979233E1,9.101074219E0,2.369968628E1
9.624891833E0,-6.924600220E-1,2.140264297E1,9.566606140E0,2.345362616E1
9.634971833E0,-1.108145599E0,2.053295151E1,1.017194733E1,2.294119868E1
9.645051833E0,-1.826801147E0,2.035512131E1,1.077085190E1,2.310150247E1
9.655131833E0,-2.719694366E0,2.086481140E1,1.112950607E1,2.380342407E1
9.665212833E0,-3.870052185E0,2.081990479E1,1.060454773E1,2.368337332E1
9.675292833E0,-4.421206055E0,2.069626190E1,9.653724976E0,2.326105599E1
9.685372833E0,-4.271966400E0,2.099174744E1,8.745413818E0,2.313839710E1
9.695452833E0,-4.409380646E0,2.130908752E1,7.482639771E0,2.301107878E1
9.705532833E0,-4.363725586E0,2.125220581E1,6.035748596E0,2.251951629E1
9.715612833E0,-1.971550140E0,1.896361496E1,4.931794281E0,1.969335667E1
9.725692833E0,4.233197021E-1,1.497111740E1,3.891757050E0,1.547447346E1
9.735772833E0,7.667056274E-1,1.406759628E1,2.877765656E0,1.437938239E1
9.745852833E0,9.636959839E-1,1.488414825E1,2.762056274E0,1.516890023E1
9.755932833E0,3.842808838E0,1.166464325E1,3.180885315E0,1.268657216E1
9.766012833E0,5.319488068E0,8.555907898E0,2.566413116E0,1.039648929E1
9.776093833E0,5.338348846E0,5.921536102E0,8.431965637E-1,8.017077938E0
9.786173833E0,4.625531158E0,3.377426605E0,-1.872605896E-1,5.730411460E0
9.796253833E0,3.253334656E0,1.358874207E0,1.296304321E-1,3.528105659E0
9.806333833E0,1.469943237E0,7.484436035E-2,4.050576782E-1,1.526566907E0
9.816413833E0,3.373983765E-1,-1.095871124E0,2.248324585E-1,1.168469435E0
9.826493833E0,-1.440005493E-1,-1.799258423E0,1.213975525E-1,1.809089383E0
9.836573833E0,-6.253994751E-1,-2.217788086E0,-2.694396973E-2,2.304437995E0
9.846653833E0,-7.482939148E-1,-2.512375488E0,-4.219725037E-1,2.655190233E0
9.856733833E0,-8.071215820E-1,-3.021766205E0,-1.159189453E0,3.335601360E0
9.866813833E0,-9.981243896E-1,-3.740571442E0,-1.693877563E0,4.225795571E0
9.876894833E0,-1.138981476E0,-4.579277344E0,-1.577120361E0,4.975376210E0
9.886974833E0,-1.270108795E0,-5.312452698E0,-6.746470642E-1,5.503678650E0
9.897054833E0,-1.463806000E0,-5.843847656E0,-1.029858398E-1,6.025270908E0
9.907134833E0,-2.038910065E0,-6.222560120E0,2.519261169E-1,6.552928770E0
9.917214833E0,-2.840193787E0,-6.646628265E0,7.741900635E-1,7.269369869E0
9.927294833E0,-3.086731110E0,-6.936425629E0,1.031804352E0,7.662018642E0
9.937374833E0,-2.486329651E0,-6.674320679E0,9.825567627E-1,7.189840711E0
9.947454833E0,-1.495689697E0,-6.153703308E0,1.109043732E0,6.429240241E0
9.957534833E0,-8.749305725E-1,-5.245990906E0,1.083446960E0,5.427686561E0
9.967614833E0,-8.104147339E-1,-1.880988464E0,6.616241455E-1,2.152355954E0
9.977694833E0,-2.649490356E-2,1.181044006E-1,1.917512512E-1,2.267579584E-1
9.987775833E0,3.468287659E-1,9.834548950E-1,-1.700463867E-1,1.056593345E0
9.997855833E0,3.558100891E-1,2.028581543E0,-4.197271729E-1,2.101883630E0