"Time (s)","Acceleration x (m/s^2)","Acceleration y (m/s^2)","Acceleration z (m/s^2)","Absolute acceleration (m/s^2)"
8.837915957E-4,-2.074236603E0,6.230343933E0,7.300169220E0,9.818967036E0
1.096479164E-2,-2.089953918E0,6.177653503E0,7.459587708E0,9.908418590E0
2.104479156E-2,-2.030228119E0,6.173611908E0,7.541766815E0,9.955579185E0
3.112579160E-2,-2.079026642E0,6.189029846E0,7.533234558E0,9.968754442E0
4.120679165E-2,-2.067350922E0,6.157146149E0,7.502997437E0,9.923676691E0
5.128779158E-2,-2.047442322E0,6.146518250E0,7.432044983E0,9.859360998E0
6.136879162E-2,-2.099833374E0,6.127208405E0,7.414980469E0,9.845502444E0
7.144879166E-2,-2.032323761E0,6.116580505E0,7.360942841E0,9.783985714E0
8.152979158E-2,-2.018702087E0,6.107150116E0,7.364834747E0,9.778201855E0
9.161079163E-2,-1.952839050E0,6.085894318E0,7.409891052E0,9.785610630E0
1.016917916E-1,-1.959425354E0,6.025719452E0,7.389533386E0,9.734158736E0
1.117717916E-1,-1.901645508E0,5.938151550E0,7.342082062E0,9.632448727E0
1.218527916E-1,-1.829944611E0,5.915548553E0,7.362140350E0,9.619954392E0
1.319337916E-1,-1.745969238E0,5.891448669E0,7.404951324E0,9.622415504E0
1.420147916E-1,-1.491797791E0,5.659580841E0,7.436685333E0,9.463646480E0
1.520947916E-1,-1.498234406E0,5.754633179E0,7.392976227E0,9.487708198E0
1.621757916E-1,-2.344724121E0,6.394851837E0,7.578739929E0,1.018965947E1
1.722567916E-1,-1.840871887E0,5.920039215E0,7.612569580E0,9.817682477E0
1.823377917E-1,-1.878443756E0,6.010451202E0,7.255262604E0,9.606919904E0
1.924177916E-1,-2.069596252E0,6.004912720E0,6.999145203E0,9.451467557E0
2.024987916E-1,-1.805994415E0,5.901328125E0,6.769373016E0,9.160332991E0
2.125797917E-1,-1.710942078E0,5.861361237E0,6.600673828E0,8.991761414E0
2.226607916E-1,-1.725761261E0,5.822591858E0,6.600374451E0,8.969156636E0
2.327417916E-1,-1.734143829E0,5.820196838E0,6.611451416E0,8.977373552E0
2.428217916E-1,-1.931583252E0,5.862109680E0,6.567442932E0,9.012582894E0
2.529027916E-1,-2.036215668E0,5.788762207E0,6.730603638E0,9.108071556E0
2.629837916E-1,-2.026036835E0,5.684728546E0,6.860832825E0,9.137395195E0
2.730647916E-1,-2.081870728E0,5.495971069E0,6.973099365E0,9.119429723E0
2.831447916E-1,-2.025737457E0,5.404211884E0,7.010970612E0,9.080904539E0
2.932257917E-1,-2.167043610E0,5.266049194E0,6.746320953E0,8.828374626E0
3.033067916E-1,-2.378254395E0,5.210065613E0,6.240223389E0,8.470021582E0
3.133877916E-1,-2.629581757E0,5.075495453E0,5.714666290E0,8.082868619E0
3.234677917E-1,-2.870730286E0,4.806804199E0,5.295687561E0,7.706540451E0
3.335487916E-1,-2.839145966E0,4.538562012E0,4.931045837E0,7.278358881E0
3.436297916E-1,-2.437231750E0,3.926335144E0,4.465364227E0,6.426171796E0
3.537107916E-1,-1.697021027E0,2.984942780E0,3.839815063E0,5.151110898E0
3.637907916E-1,-6.749464417E-1,1.858535156E0,3.313808899E0,3.858890390E0
3.738717916E-1,5.963598633E-1,8.698411560E-1,2.706671448E0,2.904881934E0
3.839527916E-1,1.337468719E0,-7.244934082E-2,1.658251648E0,2.131635525E0
3.940337916E-1,1.421144714E0,-1.019679565E0,4.264631653E-1,1.800352617E0
4.041137917E-1,1.037342834E0,-1.966460724E0,-8.355624390E-1,2.375123686E0
4.141947916E-1,3.423381042E-1,-2.826871490E0,-2.029629364E0,3.496826155E0
4.242757916E-1,-2.481838989E-1,-3.787424011E0,-3.197500763E0,4.962880919E0
4.343567917E-1,-8.264314270E-1,-4.742587738E0,-4.361180878E0,6.495769855E0
4.444367916E-1,-1.140178986E0,-5.419031067E0,-5.000351715E0,7.461194482E0
4.545177916E-1,-1.604513397E0,-5.934109955E0,-4.737348633E0,7.760837343E0
4.645987916E-1,-2.745291138E0,-6.204896851E0,-3.775448914E0,7.764752595E0
4.746797916E-1,-3.091670837E0,-6.572682037E0,-2.860102386E0,7.806328419E0
4.847597916E-1,-3.835623779E0,-6.985074463E0,-2.222727814E0,8.273076451E0
4.948407916E-1,-4.435875549E0,-7.291936340E0,-1.374142456E0,8.645090802E0
5.049217916E-1,-4.966072998E0,-7.273674316E0,-6.505471802E-1,8.831275713E0
5.150027917E-1,-5.794300690E0,-7.344327393E0,-1.197509766E-2,9.354849477E0
5.250837916E-1,-6.765032043E0,-7.380102997E0,7.412585449E-1,1.003897619E1
5.351637916E-1,-7.635771332E0,-7.237299957E0,1.653910675E0,1.064983263E1
5.452447917E-1,-8.478069763E0,-7.319329376E0,2.219584351E0,1.141826625E1
5.553257916E-1,-9.169781342E0,-7.681576080E0,2.141596527E0,1.215228113E1
5.654067916E-1,-9.840985565E0,-8.191415863E0,1.921404419E0,1.294743549E1
5.754867916E-1,-1.029319519E1,-8.786877594E0,1.945055237E0,1.367268536E1
5.855677916E-1,-1.051189041E1,-9.399703217E0,2.085612946E0,1.425496552E1
5.956487916E-1,-1.078926361E1,-9.923913116E0,2.546803894E0,1.487879266E1
6.057296250E-1,-1.163814835E1,-1.017104919E1,3.197500763E0,1.578355948E1
6.158096249E-1,-1.422402100E1,-1.001806732E1,4.039649506E0,1.786066108E1
6.258906249E-1,-1.802431824E1,-8.939709778E0,4.754562836E0,2.067366263E1
6.359716250E-1,-2.125220581E1,-7.340734863E0,5.150040436E0,2.306654627E1
6.460526249E-1,-2.267125488E1,-6.349047089E0,5.229525146E0,2.411729940E1
6.561326250E-1,-2.247471359E1,-6.255791016E0,5.448370056E0,2.395688645E1
6.662136250E-1,-2.193748077E1,-6.827601929E0,6.079158325E0,2.376605514E1
6.762946249E-1,-2.209719864E1,-7.648345184E0,7.196734314E0,2.446582017E1
6.863756250E-1,-2.240585678E1,-8.017327881E0,8.179590454E0,2.516357813E1
6.964556249E-1,-2.313678680E1,-7.735164642E0,8.592431946E0,2.586452324E1
7.065366249E-1,-2.469025635E1,-6.220015411E0,8.050259399E0,2.670400769E1
7.166176250E-1,-2.729109787E1,-4.148772583E0,7.029981079E0,2.848573276E1
7.266986249E-1,-3.073348938E1,-1.476978607E0,7.005731506E0,3.155644323E1
7.367786249E-1,-3.386692337E1,2.002984772E0,9.016350403E0,3.510377503E1
7.468596250E-1,-3.700469833E1,6.440656586E0,1.264720001E1,3.963308497E1
7.569406249E-1,-4.028482727E1,1.081022003E1,1.358993958E1,4.386815044E1
7.670216250E-1,-4.238735504E1,1.419423294E1,1.052087173E1,4.592224797E1
7.771016250E-1,-4.217359955E1,1.689626404E1,6.797664185E0,4.593805041E1
7.871826249E-1,-4.123999100E1,1.866917725E1,4.048630829E0,4.544960339E1
7.972636250E-1,-4.073943192E1,1.868788834E1,2.167792053E0,4.487357581E1
8.073446249E-1,-4.001898010E1,1.716166214E1,1.394051056E0,4.356586731E1
8.174246249E-1,-3.972843430E1,1.447834213E1,1.125509491E0,4.229938125E1
8.275056250E-1,-4.031117249E1,1.149459686E1,1.195414124E0,4.193501400E1
8.375866249E-1,-4.138982941E1,8.710087280E0,1.891316986E0,4.233864285E1
8.476676249E-1,-4.276651657E1,6.314768372E0,2.702480164E0,4.331460075E1
8.577476250E-1,-4.477054916E1,4.536915436E0,4.136348419E0,4.518954583E1
8.678286249E-1,-4.767331284E1,3.841611328E0,6.600973206E0,4.828121355E1
8.779096249E-1,-5.136313980E1,3.279829559E0,9.389374695E0,5.231720338E1
8.879906250E-1,-5.495102875E1,1.766626282E0,1.207000031E1,5.628873276E1
8.980706249E-1,-5.643429428E1,-6.292913818E-1,1.483849319E1,5.835586054E1
9.081516250E-1,-5.487004715E1,-3.412004700E0,1.679612228E1,5.748455074E1
9.182326249E-1,-5.154351471E1,-5.368286591E0,1.782208878E1,5.480127059E1
9.283136249E-1,-4.869299240E1,-6.427184601E0,1.748648666E1,5.213533760E1
9.383946250E-1,-4.556434845E1,-7.375762024E0,1.594604004E1,4.883429029E1
9.484746249E-1,-4.199457184E1,-8.525221710E0,1.330388443E1,4.486888465E1
9.585556249E-1,-3.768084229E1,-9.912536774E0,9.563312988E0,4.011933718E1
9.686366250E-1,-3.313015549E1,-1.157483002E1,6.356531525E0,3.566496019E1
9.787176249E-1,-2.806858109E1,-1.312141388E1,4.562063141E0,3.131819226E1
9.887976249E-1,-2.297527267E1,-1.398182465E1,4.287983093E0,2.723492930E1
9.988786250E-1,-1.975876144E1,-1.473909988E1,4.475243683E0,2.505349327E1
1.008959625E0,-1.866139343E1,-1.524998749E1,4.928650818E0,2.459880733E1
1.019040625E0,-1.831261871E1,-1.574081680E1,5.677393799E0,2.480641284E1
1.029120625E0,-1.764455795E1,-1.668999298E1,6.177803192E0,2.506095655E1
1.039201625E0,-1.646411270E1,-1.802042633E1,5.840105438E0,2.509799999E1
1.049282625E0,-1.576835953E1,-1.984872437E1,4.491260376E0,2.574460023E1
1.059363625E0,-1.522498947E1,-2.183464462E1,2.652484131E0,2.675047069E1
1.069443625E0,-1.240605148E1,-2.307122314E1,9.343569946E-1,2.621191473E1
1.079524625E0,-9.088949432E0,-2.349978195E1,-7.550299072E-1,2.520751522E1
1.089605625E0,-7.006180573E0,-2.316956863E1,-1.918111267E0,2.428156971E1
1.099686625E0,-5.497018890E0,-2.240346176E1,-2.455942841E0,2.319836138E1
1.109766625E0,-3.937861176E0,-2.164633621E1,-2.577639771E0,2.215208453E1
1.119847625E0,-2.344574432E0,-2.095492401E1,-2.323767700E0,2.121333934E1
1.129928625E0,-6.783892822E-1,-2.006951523E1,-1.574425964E0,2.014260337E1
1.140009625E0,4.017645264E-1,-1.933154984E1,-5.622308350E-1,1.934389664E1
1.150089625E0,9.264234924E-1,-1.849523895E1,2.986289978E-1,1.852083431E1
1.160170625E0,1.428629150E0,-1.747840347E1,9.800120544E-1,1.756405400E1
1.170251625E0,1.908531189E0,-1.651485718E1,1.267264709E0,1.667300089E1
1.180332625E0,2.653531952E0,-1.565309921E1,1.227148132E0,1.592377591E1
1.190412625E0,3.676055603E0,-1.474748245E1,8.577163696E-1,1.522292025E1
1.200493625E0,4.653073883E0,-1.377690079E1,3.981719971E-2,1.454151565E1
1.210574625E0,5.468877411E0,-1.276081375E1,-6.755451965E-1,1.389976075E1
1.220655625E0,6.041885834E0,-1.165910477E1,-1.254541168E0,1.319139803E1
1.230735625E0,6.004164276E0,-1.069076843E1,-1.766027527E0,1.238795268E1
1.240816625E0,5.474415894E0,-9.766590271E0,-1.895807648E0,1.135559781E1
1.250897625E0,4.655917969E0,-8.905131683E0,-1.660946045E0,1.018516982E1
1.260978625E0,3.664978638E0,-8.105045471E0,-1.178948364E0,8.972945433E0
1.271058625E0,2.863245850E0,-7.360044708E0,-7.807763672E-1,7.935870881E0
1.281139625E0,2.356100464E0,-6.673721924E0,-3.787124634E-1,7.087538137E0
1.291220625E0,1.936972046E0,-6.047723694E0,-7.484436035E-4,6.350340396E0
1.301301625E0,1.593735809E0,-5.566324768E0,1.612147522E-1,5.792232337E0
1.311381625E0,1.270108795E0,-5.230123901E0,1.371148682E-1,5.383880837E0
1.321462625E0,9.618997192E-1,-4.893024902E0,-5.134323120E-2,4.986940935E0
1.331543625E0,1.133143616E-1,-4.442761230E0,-3.942800903E-1,4.461661606E0
1.341624625E0,-1.146166534E0,-3.909719696E0,-7.261399841E-1,4.138464099E0
1.351704625E0,-2.297721863E0,-3.350033569E0,-8.710386658E-1,4.154631034E0
1.361785625E0,-3.189118195E0,-2.778971100E0,-9.154962158E-1,4.327965868E0
1.371866625E0,-3.305875397E0,-2.176473999E0,-7.122189331E-1,4.021580164E0
1.381947625E0,-2.785557404E0,-1.926493835E0,-4.221221924E-1,3.413047860E0
1.392027625E0,-2.340532837E0,-1.884730682E0,8.652008057E-2,3.006291641E0
1.402108625E0,-1.946103058E0,-1.254241791E0,7.848179626E-1,2.444663334E0
1.412189625E0,-7.090754700E-1,-5.610333252E-1,1.163829803E0,1.473786357E0
1.422270625E0,7.384144592E-1,1.889071655E-1,1.312770081E0,1.517994438E0
1.432350625E0,2.477498016E0,9.309141541E-1,7.349716187E-2,2.647640349E0
1.442431625E0,2.942880249E0,1.542841644E0,-2.772384796E0,4.327472930E0
1.452512625E0,7.780819702E-1,3.016078033E0,-5.586832123E0,6.396470232E0
1.462593625E0,-4.279151459E0,5.557942200E0,-7.094197540E0,9.976447135E0
1.472673625E0,-1.243254639E1,9.102870483E0,-4.647086334E0,1.609428073E1
1.482754625E0,-2.323887451E1,1.293475204E1,3.118315430E0,2.677829326E1
1.492835625E0,-3.039683945E1,1.812041840E1,1.206745560E1,3.738904781E1
1.502916625E0,-3.309003891E1,2.300670731E1,1.929143326E1,4.468130094E1
1.512996625E0,-3.345438126E1,2.712673965E1,2.583552475E1,5.022479436E1
1.523077625E0,-3.320634705E1,3.060834961E1,3.130051025E1,5.494774328E1
1.533158625E0,-3.455279709E1,3.283841217E1,3.424099548E1,5.869159115E1
1.543239625E0,-3.576797012E1,3.530213882E1,3.361978729E1,6.046386350E1
1.553319625E0,-3.632181839E1,3.646207672E1,2.966635849E1,5.940412743E1
1.563400625E0,-3.565615265E1,3.630909485E1,2.368958725E1,5.613295052E1
1.573481625E0,-3.271387115E1,3.564208191E1,1.776969772E1,5.153947541E1
1.583562625E0,-2.791889236E1,3.314871689E1,1.261831009E1,4.513893809E1
1.593642625E0,-2.239193573E1,2.924618225E1,8.372688904E0,3.777353414E1
1.603724042E0,-1.705238937E1,2.500909332E1,4.897665253E0,3.066310254E1
1.613805042E0,-1.297022827E1,2.115894974E1,2.044598236E0,2.490197497E1
1.623886042E0,-1.004306534E1,1.760758484E1,-8.786727905E-2,2.027061730E1
1.633966042E0,-7.898924103E0,1.439721085E1,-1.594184875E0,1.649891231E1
1.644047042E0,-6.324947205E0,1.165536255E1,-2.685415649E0,1.353011051E1
1.654128042E0,-5.262306976E0,9.301058350E0,-3.618724823E0,1.128258527E1
1.664208042E0,-4.439168701E0,7.142846375E0,-4.266278229E0,9.430143319E0
1.674289042E0,-3.856729889E0,5.218148804E0,-4.395160217E0,7.837147166E0
1.684370042E0,-3.498225403E0,3.459755402E0,-4.081262970E0,6.392510918E0
1.694451042E0,-3.208278351E0,1.888622589E0,-3.654500427E0,5.216830324E0
1.704531042E0,-2.936593323E0,4.525090027E-1,-3.178639984E0,4.351102951E0
1.714612042E0,-2.477947083E0,-8.849597168E-1,-2.544408875E0,3.660244796E0
1.724693042E0,-1.614841919E0,-2.039808197E0,-2.085014191E0,3.334039004E0
1.734774042E0,-4.852908325E-1,-3.154240723E0,-2.070344696E0,3.804085815E0
1.744854042E0,4.923262024E-1,-4.325854340E0,-2.150877228E0,4.856096550E0
1.754935042E0,1.604064331E0,-5.552104340E0,-2.107467499E0,6.151447328E0
1.765016042E0,2.899021454E0,-6.720574493E0,-2.236349487E0,7.653215399E0
1.775097042E0,3.864813080E0,-7.838000793E0,-2.662812653E0,9.135732472E0
1.785177042E0,4.706063690E0,-9.069938965E0,-3.470532990E0,1.079145159E1
1.795258042E0,5.458548889E0,-1.033076706E1,-4.239783325E0,1.242965272E1
1.805339042E0,6.045628052E0,-1.150103348E1,-4.425547028E0,1.372621055E1
1.815420042E0,6.380930786E0,-1.250349884E1,-3.882476349E0,1.456459349E1
1.825500042E0,6.355483704E0,-1.332573898E1,-2.728376312E0,1.501371140E1
1.835581042E0,5.789061584E0,-1.417088150E1,-1.555415497E0,1.538656667E1
1.845662042E0,4.762945404E0,-1.491917542E1,-5.267546082E-1,1.566987283E1
1.855743042E0,3.113375702E0,-1.546000076E1,7.113208008E-1,1.578640900E1
1.865823042E0,1.291514282E0,-1.570070023E1,1.904489594E0,1.586843021E1
1.875904042E0,-7.283853149E-1,-1.595397354E1,2.974015503E0,1.624514035E1
1.885985042E0,-2.896476746E0,-1.600292175E1,3.902834015E0,1.672468820E1
1.896066042E0,-4.888384552E0,-1.584694611E1,4.222718811E0,1.711295879E1
1.906146042E0,-6.400240631E0,-1.559472061E1,4.078119507E0,1.734328256E1
1.916227042E0,-7.705526276E0,-1.563004715E1,3.726500702E0,1.782022212E1
1.926308042E0,-9.232800293E0,-1.563663345E1,3.397933960E0,1.847416743E1
1.936389042E0,-1.114806747E1,-1.525148438E1,3.160377960E0,1.915398582E1
1.946469042E0,-1.285212387E1,-1.452414688E1,2.828368378E0,1.959917341E1
1.956550042E0,-1.399379974E1,-1.359562775E1,2.411784668E0,1.965920218E1
1.966631042E0,-1.456605972E1,-1.291499313E1,2.112706604E0,1.958138587E1
1.976712042E0,-1.461261292E1,-1.267549118E1,2.161954193E0,1.946459809E1
1.986792042E0,-1.466799774E1,-1.269704636E1,2.391726379E0,1.954700742E1
1.996873042E0,-1.560953979E1,-1.287981628E1,2.713557129E0,2.041839348E1
2.006954042E0,-1.814796112E1,-1.289628204E1,3.240012360E0,2.249800577E1
2.017035042E0,-2.201127731E1,-1.207987976E1,3.992796936E0,2.542365535E1
2.027115042E0,-2.504935959E1,-1.048509613E1,4.549489288E0,2.753371587E1
2.037196042E0,-2.598700974E1,-8.668922882E0,3.444187775E0,2.761045687E1
2.047277042E0,-2.572445572E1,-7.437134399E0,1.430724792E0,2.681614371E1
2.057358042E0,-2.619013733E1,-7.286397858E0,1.149609375E-1,2.718507133E1
2.067438042E0,-2.888917465E1,-7.846233673E0,8.235873413E-1,2.994705480E1
2.077519042E0,-3.499812103E1,-7.880512390E0,4.766837311E0,3.618969037E1
2.087600042E0,-4.071114075E1,-6.387068024E0,1.288041504E1,4.317518628E1
2.097681042E0,-4.340404083E1,-2.184706879E0,2.350861359E1,4.940990404E1
2.107761042E0,-4.675826569E1,5.235063629E0,3.183804245E1,5.681023014E1
2.117842042E0,-5.730144104E1,1.501991592E1,3.413995560E1,6.837097036E1
2.127923042E0,-6.967471069E1,2.449341568E1,2.132630173E1,7.687199664E1
2.138004042E0,-6.981931000E1,3.050042404E1,-2.142644348E0,7.622075072E1
2.148084042E0,-6.095100174E1,3.318015152E1,-1.753723114E1,7.157863888E1
2.158165042E0,-5.462051605E1,2.933809113E1,-1.679731979E1,6.423608267E1
2.168246042E0,-5.270435074E1,2.278935928E1,-7.550598450E0,5.791472196E1
2.178327042E0,-5.176071304E1,1.760354324E1,1.201251984E0,5.468545653E1
2.188407042E0,-5.234135559E1,1.215442474E1,6.134094086E0,5.408303483E1
2.198488042E0,-5.328110138E1,7.319179688E0,6.332281952E0,5.415296806E1
2.208569042E0,-5.448759247E1,3.255130920E0,4.983436890E0,5.481175288E1
2.218650042E0,-5.744918381E1,-3.113525391E-2,4.634063416E0,5.763578952E1
2.228730042E0,-6.242872879E1,-1.928888855E0,5.625451813E0,6.271134266E1
2.238811042E0,-6.823919586E1,-3.392844543E0,7.149282990E0,6.869651733E1
2.248892042E0,-7.128296631E1,-5.539680176E0,9.571246490E0,7.213569229E1
2.258972042E0,-6.934898804E1,-9.753717041E0,1.178214890E1,7.101574593E1
2.269053042E0,-6.157176086E1,-1.396895142E1,1.268522095E1,6.439820005E1
2.279134042E0,-5.061185211E1,-1.653252045E1,1.253104156E1,5.469836203E1
2.289215042E0,-4.081876694E1,-1.814915863E1,1.169473068E1,4.617716339E1
2.299295042E0,-3.307641724E1,-1.892140274E1,9.663155365E0,3.931215372E1
2.309376042E0,-2.662378555E1,-1.952165451E1,7.257657623E0,3.380228611E1
2.319457042E0,-2.052292236E1,-1.938438995E1,4.953199768E0,2.866145677E1
2.329538042E0,-1.594244751E1,-1.920102127E1,2.182311859E0,2.505201260E1
2.339618042E0,-1.273416916E1,-1.937840240E1,3.281176758E-1,2.319028256E1
2.349699042E0,-1.114357681E1,-1.994213013E1,-2.170486450E-1,2.284545837E1
2.359780042E0,-1.076905563E1,-2.097827545E1,-3.336561584E-1,2.358329762E1
2.369861042E0,-1.146465912E1,-2.302437057E1,1.953437805E-1,2.572155144E1
2.379941042E0,-1.107112747E1,-2.470941650E1,7.738906860E-1,2.708734085E1
2.390022042E0,-9.801617432E0,-2.657917831E1,4.260140991E-1,2.833206509E1
2.400103042E0,-6.283034363E0,-2.779854263E1,-1.316212921E0,2.853012285E1
2.410184042E0,-1.089584198E0,-2.763553162E1,-3.992347870E0,2.794366910E1
2.420264042E0,3.531007233E0,-2.672512482E1,-6.432124329E0,2.771412153E1
2.430345042E0,6.798712006E0,-2.471345810E1,-7.993826752E0,2.684918551E1
2.440426042E0,7.402406616E0,-2.244642242E1,-8.009693756E0,2.495581490E1
2.450507042E0,5.659431152E0,-2.031126251E1,-6.187832336E0,2.197420795E1
2.460587042E0,3.222648468E0,-1.877351028E1,-3.657494202E0,1.939606701E1
2.470668042E0,1.833237762E0,-1.743364655E1,-1.657802582E0,1.760798404E1
2.480749042E0,1.538201294E0,-1.587733292E1,-2.151026917E-1,1.595311985E1
2.490830042E0,1.459914093E0,-1.428973434E1,6.191125488E-1,1.437745308E1
2.500910042E0,1.267713776E0,-1.271515869E1,7.469467163E-1,1.280001126E1
2.510991042E0,1.481918335E0,-1.116737732E1,4.209246826E-1,1.127313513E1
2.521072042E0,1.799857178E0,-9.687105560E0,5.508544922E-2,9.853046960E0
2.531153042E0,2.187101898E0,-8.263416138E0,-2.227368164E-1,8.550852160E0
2.541233042E0,2.584076385E0,-6.821464691E0,-2.653981018E-1,7.299333357E0
2.551314042E0,2.721939697E0,-5.533992004E0,-9.071136475E-2,6.167840122E0
2.561395042E0,2.277513885E0,-4.520749054E0,2.499801636E-2,5.062100988E0
2.571476042E0,1.755998383E0,-3.704047394E0,1.377136230E-2,4.099230058E0
2.581556042E0,1.569935303E0,-3.075354767E0,-1.974394226E-1,3.458538148E0
2.591637042E0,1.502425690E0,-2.417472839E0,-5.183720398E-1,2.893124168E0
2.601718250E0,1.061592407E0,-1.940115509E0,-6.500981140E-1,2.305136479E0
2.611799250E0,5.646258545E-1,-1.658401337E0,-4.605921936E-1,1.811420028E0
2.621879250E0,-9.909393311E-2,-1.420096893E0,-2.418969727E-1,1.443956003E0
2.631960250E0,-1.162033539E0,-1.218166809E0,-1.338217163E-1,1.688834087E0
2.642041250E0,-2.208806763E0,-1.044827271E0,-7.409591675E-2,2.444582080E0
2.652122250E0,-2.617007904E0,-1.120270386E0,1.079255676E-1,2.848751312E0
2.662202250E0,-2.703378296E0,-1.394200745E0,3.330574036E-1,3.059898227E0
2.672283250E0,-2.440973969E0,-1.691183167E0,6.251000977E-1,3.034667123E0
2.682364250E0,-1.646126862E0,-2.008223877E0,7.726931763E-1,2.709197580E0
2.692445250E0,-6.125262451E-1,-2.458337860E0,5.242098999E-1,2.587162433E0
2.702525250E0,4.153862000E-1,-2.944975891E0,-3.382965088E-2,2.974318937E0
2.712606250E0,1.118923187E0,-3.233875122E0,-6.762936401E-1,3.488167211E0
2.722687250E0,1.410666504E0,-3.320395203E0,-1.354233856E0,3.853434004E0
2.732768250E0,1.258133698E0,-3.349135437E0,-2.019001465E0,4.108037913E0
2.742848250E0,6.773414612E-1,-3.223845978E0,-2.266137543E0,3.998418901E0
2.752929250E0,-4.445755005E-2,-2.846929779E0,-2.345322876E0,3.688837897E0
2.763010250E0,-4.330494690E-1,-2.416425018E0,-2.103276215E0,3.232709784E0
2.773090250E0,-9.080117798E-1,-2.218686218E0,-1.534159698E0,2.846172853E0
2.783171250E0,-9.379495239E-1,-1.853595428E0,-8.189469910E-1,2.232988915E0
2.793252250E0,-9.845027161E-1,-1.391805725E0,-5.568420410E-1,1.793444126E0
2.803333250E0,-1.608554993E0,-9.053173828E-1,-5.876779175E-1,1.937114881E0
2.813413250E0,-1.567540283E0,-7.089257812E-1,-9.051676941E-1,1.943987360E0
2.823494250E0,-1.978884888E0,-8.065228271E-1,-1.745969238E0,2.759505943E0
2.833575250E0,-3.511098633E0,-1.100062408E0,-2.794987793E0,4.620596030E0
2.843656250E0,-7.479945374E0,-9.249266052E-1,-3.814667358E0,8.447293003E0
2.853736250E0,-1.170086792E1,7.352709961E-1,-3.396437073E0,1.220601156E1
2.863817250E0,-1.372600662E1,4.428091736E0,-1.204245758E0,1.447278349E1
2.873898250E0,-1.836201599E1,9.683513031E0,2.709066467E0,2.093497306E1
2.883979250E0,-3.257720535E1,1.542946426E1,1.075244019E1,3.761592277E1
2.894059250E0,-5.326972504E1,2.273187881E1,1.934726715E1,6.106323498E1
2.904140250E0,-6.672075348E1,2.874367722E1,2.475447281E1,7.675051693E1
2.914221250E0,-6.588474197E1,3.016078033E1,2.733211258E1,7.744363288E1
2.924302250E0,-5.194602768E1,2.885699158E1,2.750051239E1,6.547819436E1
2.934382250E0,-3.539374832E1,2.716805374E1,2.745859955E1,5.239079359E1
2.944463250E0,-2.494218246E1,2.590692627E1,2.638458298E1,4.460299893E1
2.954544250E0,-2.322809692E1,2.483590347E1,2.292961761E1,4.101382635E1
2.964625250E0,-2.427037949E1,2.432531525E1,1.788735306E1,3.873925247E1
2.974705250E0,-2.402623718E1,2.361324600E1,1.232985992E1,3.587298295E1
2.984786250E0,-2.263323395E1,2.230840942E1,6.815477142E0,3.250198669E1
2.994867250E0,-2.014046768E1,2.071557175E1,2.176923065E0,2.897433943E1
3.004948250E0,-1.726779144E1,1.877336060E1,-1.095122681E0,2.553066750E1
3.015028250E0,-1.480137039E1,1.651201309E1,-2.451152802E0,2.230998189E1
3.025109250E0,-1.231055008E1,1.426323944E1,-2.039957886E0,1.895128151E1
3.035190250E0,-9.800569611E0,1.195578781E1,-6.869215393E-1,1.547462077E1
3.045270250E0,-7.681576080E0,9.680668945E0,9.455836487E-1,1.239419585E1
3.055351250E0,-5.996679840E0,7.552544403E0,2.470911713E0,9.955224797E0
3.065432250E0,-4.579726410E0,5.214406586E0,3.265010376E0,7.669695091E0
3.075513250E0,-2.998115387E0,2.880310364E0,3.086282043E0,5.177839368E0
3.085593250E0,-1.371747437E0,8.443940735E-1,1.682950287E0,2.329595254E0
3.095674250E0,-1.489402771E-1,-1.184037781E0,-5.554948425E-1,1.316321842E0
3.105755250E0,1.001866608E0,-2.967578888E0,-2.928959198E0,4.288247094E0
3.115836250E0,1.913021851E0,-4.400249634E0,-5.344336395E0,7.182184970E0
3.125916250E0,2.004182281E0,-6.008505249E0,-7.424111481E0,9.758909428E0
3.135997250E0,2.336191864E0,-7.391629028E0,-8.329728241E0,1.137885516E1
3.146078250E0,3.312312012E0,-8.480464783E0,-8.258027344E0,1.229165202E1
3.156159250E0,4.419409790E0,-9.446705475E0,-7.497608643E0,1.284467059E1
3.166239250E0,5.123844910E0,-1.055275543E1,-6.311026154E0,1.332079145E1
3.176320250E0,5.198389893E0,-1.154833511E1,-5.003195801E0,1.361687444E1
3.186401250E0,4.885241089E0,-1.236189331E1,-3.767964478E0,1.381591629E1
3.196482250E0,4.319268036E0,-1.302905594E1,-2.558030548E0,1.396266075E1
3.206562250E0,3.605103149E0,-1.349069595E1,-1.619931335E0,1.405773181E1
3.216643250E0,2.773282928E0,-1.362466736E1,-8.583151245E-1,1.393051915E1
3.226724250E0,1.860181732E0,-1.374381958E1,-4.215234375E-1,1.387553728E1
3.236805250E0,1.346749420E0,-1.370340363E1,-1.347198486E-1,1.377008186E1
3.246885250E0,6.855743408E-1,-1.355865463E1,7.978408813E-2,1.357621056E1
3.256966250E0,-9.056167603E-2,-1.353081253E1,2.859054565E-1,1.353413577E1
3.267047250E0,-5.014572144E-1,-1.346375198E1,7.132667542E-1,1.349195413E1
3.277128250E0,-9.400451660E-1,-1.335298233E1,1.255588989E0,1.344478805E1
3.287208250E0,-1.757944336E0,-1.311916855E1,1.733844452E0,1.334950068E1
3.297289250E0,-3.118165741E0,-1.283700531E1,2.076931000E0,1.337255792E1
3.307370250E0,-4.932393036E0,-1.235141510E1,2.357896729E0,1.350724372E1
3.317451250E0,-6.646328888E0,-1.191641968E1,2.421664124E0,1.385782100E1
3.327531250E0,-7.616611176E0,-1.159578644E1,2.307002563E0,1.406404244E1
3.337612250E0,-7.952512665E0,-1.155581955E1,2.219883728E0,1.420236976E1
3.347693250E0,-7.977810059E0,-1.188049438E1,2.224374390E0,1.448238384E1
3.357774250E0,-8.326135712E0,-1.284927979E1,2.410587158E0,1.549965991E1
3.367854250E0,-9.158404999E0,-1.433793411E1,3.061583405E0,1.728658525E1
3.377935250E0,-1.193602890E1,-1.563872910E1,3.748355255E0,2.002720152E1
3.388016250E0,-1.876168488E1,-1.596070953E1,4.043691101E0,2.496190109E1
3.398097250E0,-2.608355896E1,-1.524654465E1,4.180057526E0,3.050052545E1
3.408177250E0,-3.094499954E1,-1.585532867E1,4.447401581E0,3.505372769E1
3.418258250E0,-3.287074493E1,-1.775547729E1,4.614005127E0,3.764348403E1
3.428339250E0,-3.569611954E1,-2.170770859E1,5.577102356E0,4.214904071E1
3.438419250E0,-3.929044510E1,-2.469474701E1,1.143636795E1,4.779498005E1
3.448500250E0,-4.442611542E1,-2.417996750E1,2.311987198E1,5.561365875E1
3.458581250E0,-5.734709610E1,-1.862756378E1,3.325783997E1,6.886043481E1
3.468662250E0,-7.656742722E1,-1.228555206E1,3.001677979E1,8.315354934E1
3.478742250E0,-8.227715378E1,-6.270460510E-1,7.590565338E0,8.262892897E1
3.488823250E0,-7.378710892E1,1.351195175E1,-2.082813766E1,7.785192099E1
3.498904250E0,-6.915409332E1,1.089135132E1,-2.166280197E1,7.328156075E1
3.508985250E0,-6.313810364E1,-4.326004028E-1,-1.026789780E1,6.396903156E1
3.519065250E0,-5.467844559E1,-7.943381653E0,-8.539741516E-1,5.525901733E1
3.529146250E0,-5.199916718E1,-1.347063766E1,6.324797516E0,5.408673155E1
3.539227250E0,-5.387925751E1,-1.811338303E1,1.230680786E1,5.815949238E1
3.549308250E0,-5.502871719E1,-2.211650848E1,1.685300400E1,6.165487335E1
3.559388250E0,-5.299205246E1,-2.344813934E1,2.055615326E1,6.148600084E1
3.569469250E0,-4.895419922E1,-2.208567261E1,1.984453308E1,5.725465963E1
3.579550250E0,-4.554668518E1,-2.238070908E1,1.370789429E1,5.256712885E1
3.589631250E0,-4.062117783E1,-2.272454407E1,7.613916779E0,4.716414655E1
3.599711042E0,-3.465488480E1,-2.261003220E1,2.257305908E0,4.143995688E1
3.609792042E0,-2.875430511E1,-2.158047318E1,-3.387306061E0,3.611095024E1
3.619873042E0,-2.305086548E1,-1.921314606E1,-4.193529510E0,3.029972063E1
3.629954042E0,-1.728934662E1,-1.670211777E1,-1.611848145E0,2.409315876E1
3.640034042E0,-1.162138321E1,-1.544952255E1,1.487307129E0,1.938959456E1
3.650115042E0,-6.981182556E0,-1.519041138E1,4.724475403E0,1.737256963E1
3.660196042E0,-4.176464996E0,-1.568677917E1,4.420756989E0,1.682441658E1
3.670277042E0,-2.813549194E0,-1.746059052E1,1.601968689E0,1.775822581E1
3.680357042E0,-1.643881531E0,-1.846829498E1,-1.071621552E0,1.857225454E1
3.690438042E0,-1.603166199E0,-1.911210617E1,-3.106040955E0,1.942910792E1
3.700519042E0,-2.774480438E0,-1.970187973E1,-4.477788391E0,2.039393036E1
3.710600042E0,-3.078049164E0,-1.948228638E1,-5.291196899E0,2.042132791E1
3.720680042E0,-1.462309113E0,-1.931703003E1,-6.128705292E0,2.031863740E1
3.730761042E0,7.584727478E-1,-1.943947540E1,-6.555767212E0,2.052916385E1
3.740842042E0,3.231031036E0,-1.900043839E1,-6.774312744E0,2.042908548E1
3.750923042E0,5.427862701E0,-1.786085815E1,-6.539301453E0,1.977964638E1
3.761003042E0,6.679410095E0,-1.618928421E1,-5.413342896E0,1.833062257E1
3.771084042E0,6.760990448E0,-1.455303680E1,-3.420536957E0,1.640737472E1
3.781165042E0,5.867947540E0,-1.302830750E1,-1.198707275E0,1.433898545E1
3.791246042E0,3.785627747E0,-1.158066788E1,7.482939148E-1,1.220666989E1
3.801326042E0,1.355431366E0,-1.050829788E1,2.188149719E0,1.081894254E1
3.811407042E0,-7.249424744E-1,-9.789043579E0,3.036136322E0,1.027467954E1
3.821488042E0,-1.740879822E0,-9.193432159E0,3.161575470E0,9.876508334E0
3.831569042E0,-1.457219696E0,-8.634045410E0,2.729573822E0,9.171739346E0
3.841649042E0,-3.239263916E-1,-8.284971313E0,1.939367065E0,8.515093810E0
3.851730042E0,1.365011444E0,-8.057145081E0,1.134490814E0,8.250328024E0
3.861811042E0,3.101400604E0,-7.588619385E0,5.294490051E-1,8.214995199E0
3.871892042E0,4.516258392E0,-7.070696411E0,4.490661621E-2,8.390074744E0
3.881972042E0,5.361251221E0,-6.829996948E0,-3.058140564E-1,8.688233146E0
3.892053042E0,5.603896637E0,-6.575675812E0,-6.072871399E-1,8.660944958E0
3.902134042E0,5.415288849E0,-6.223607941E0,-1.021924896E0,8.312820196E0
3.912214042E0,4.614753571E0,-6.115382996E0,-1.482367401E0,7.803286027E0
3.922295042E0,3.472778320E0,-5.919739838E0,-1.626367950E0,7.053267450E0
3.932376042E0,2.453098755E0,-5.664370880E0,-1.490001526E0,6.350031143E0
3.942457042E0,1.896406403E0,-5.548811188E0,-1.144519958E0,5.974578544E0
3.952537042E0,1.673220520E0,-5.446424103E0,-3.776646423E-1,5.710151749E0
3.962618042E0,1.326691132E0,-5.407355347E0,2.722837830E-1,5.574382447E0
3.972699042E0,9.081614685E-1,-5.390290833E0,5.390290833E-1,5.492772056E0
3.982780042E0,7.744894409E-1,-5.283113708E0,4.499642944E-1,5.358506529E0
3.992860042E0,4.842430115E-1,-5.151237946E0,1.896556091E-1,5.177423386E0
4.002941042E0,1.719923401E-1,-4.973707123E0,-1.047821045E-2,4.976691039E0
4.013022042E0,-4.266128540E-2,-4.730013885E0,-3.442840576E-2,4.730331559E0
4.023103042E0,-1.169068909E-1,-4.742587738E0,-2.903961182E-1,4.752908118E0
4.033183042E0,1.913021851E-1,-4.782255249E0,-5.731581116E-1,4.820277172E0
4.043264042E0,5.399272156E-1,-4.565056915E0,-9.018745422E-1,4.684511045E0
4.053345042E0,1.186133423E0,-4.166136475E0,-1.157243500E0,4.483616636E0
4.063426042E0,1.793270874E0,-3.858226776E0,-1.611099701E0,4.549436946E0
4.073506042E0,2.063009949E0,-3.513194275E0,-1.897454224E0,4.494316032E0
4.083587042E0,2.394570465E0,-3.081791382E0,-1.973196716E0,4.373203759E0
4.093668042E0,2.110760651E0,-2.742746429E0,-1.869911499E0,3.933768869E0
4.103749042E0,1.901046753E-2,-2.212848358E0,-7.831713867E-1,2.347427672E0
4.113829042E0,-2.509830780E0,-8.466394043E-1,8.307723999E-1,2.776010015E0
4.123910042E0,-5.275329895E0,6.825805664E-1,2.098785553E0,5.718384608E0
4.133991042E0,-7.275171204E0,2.156266022E0,2.876119080E0,8.114780352E0
4.144072042E0,-7.577692108E0,3.809877319E0,2.870580597E0,8.954150760E0
4.154152042E0,-7.342381439E0,5.983207855E0,2.823129272E0,9.883288943E0
4.164233042E0,-6.234535217E0,8.096962280E0,3.146007843E0,1.069240819E1
4.174314042E0,-3.899690552E0,9.711055756E0,2.283950500E0,1.071114467E1
4.184395042E0,-3.414848785E0,1.181882263E1,4.625381470E-1,1.231095862E1
4.194475042E0,-7.499704285E0,1.586610626E1,-4.806504822E-1,1.755590833E1
4.204556042E0,-1.670406372E1,2.189407104E1,-2.384541321E-1,2.753966144E1
4.214637042E0,-3.250251068E1,2.981484970E1,1.851200409E0,4.414482310E1
4.224717042E0,-4.946897873E1,3.693644028E1,4.073778534E0,6.187144857E1
4.234798042E0,-5.774362152E1,3.940735199E1,4.809797974E0,7.007424187E1
4.244879042E0,-5.470958084E1,3.758309555E1,5.264851685E0,6.658337608E1
4.254960042E0,-4.397839645E1,3.364463562E1,7.558531952E0,5.588552823E1
4.265040042E0,-3.218771530E1,2.905996948E1,1.094523926E1,4.472503891E1
4.275121042E0,-2.390334274E1,2.476884293E1,1.440559341E1,3.731469544E1
4.285202042E0,-1.907094177E1,2.172267746E1,1.587882980E1,3.298049078E1
4.295283042E0,-1.750968842E1,1.967508545E1,1.520148834E1,3.041025195E1
4.305363042E0,-1.855691071E1,1.815170334E1,1.295256500E1,2.901055341E1
4.315444042E0,-2.008568161E1,1.677157333E1,8.880582733E0,2.763304231E1
4.325525042E0,-2.065599564E1,1.541838730E1,3.996688843E0,2.608390968E1
4.335606042E0,-1.928888855E1,1.401640274E1,-2.266287231E-1,2.384475053E1
4.345686042E0,-1.639435776E1,1.233360214E1,-3.407663727E0,2.079675167E1
4.355767042E0,-1.317215836E1,1.027298721E1,-5.322182465E0,1.753184669E1
4.365848042E0,-9.925110626E0,8.466843109E0,-5.666017456E0,1.422318554E1
4.375928042E0,-7.179669800E0,6.686146088E0,-4.878505096E0,1.095682527E1
4.386009042E0,-4.985981598E0,5.018763428E0,-3.802991638E0,8.031858081E0
4.396090042E0,-3.367996216E0,3.307671661E0,-2.802921295E0,5.490032615E0
4.406171042E0,-1.949396210E0,1.404828644E0,-2.276316376E0,3.309879959E0
4.416251042E0,-7.367678833E-1,-2.671943665E-1,-2.107617188E0,2.248615119E0
4.426332042E0,-7.723937988E-2,-1.741478577E0,-2.353106689E0,2.928450895E0
4.436413042E0,2.754272461E-2,-3.494034119E0,-3.123853912E0,4.686949572E0
4.446494042E0,4.135899353E-1,-5.280718689E0,-4.082460480E0,6.687565332E0
4.456574042E0,1.392703857E0,-6.963968353E0,-4.816234589E0,8.580943705E0
4.466655042E0,2.770139465E0,-8.442443848E0,-5.198240204E0,1.029418438E1
4.476736042E0,4.153862000E0,-9.874366150E0,-5.467380524E0,1.202704977E1
4.486817042E0,5.048551483E0,-1.117980148E1,-5.338648224E0,1.337822851E1
4.496897042E0,5.293292542E0,-1.259121643E1,-4.878505096E0,1.450370605E1
4.506978042E0,5.861660614E0,-1.365625168E1,-4.528383179E0,1.553571786E1
4.517059042E0,6.313121796E0,-1.430590073E1,-3.762875061E0,1.608333085E1
4.527140042E0,6.124214630E0,-1.506152939E1,-3.093766479E0,1.655074208E1
4.537220042E0,5.727539520E0,-1.601354965E1,-2.873125305E0,1.724799497E1
4.547301042E0,5.160518646E0,-1.690958633E1,-2.735261993E0,1.788984966E1
4.557382042E0,3.947590942E0,-1.765443741E1,-2.583777008E0,1.827398528E1
4.567463042E0,1.964065704E0,-1.843386658E1,-2.603984985E0,1.872019575E1
4.577543042E0,-5.134323120E-2,-1.907722870E1,-2.142943726E0,1.919727842E1
4.587624042E0,-1.850751343E0,-1.944531326E1,-1.524130554E0,1.959256140E1
4.597705042E0,-3.401825867E0,-2.025138702E1,-1.130598907E0,2.056621865E1
4.607786750E0,-3.929628296E0,-2.099863312E1,-6.370751953E-1,2.137265627E1
4.617866750E0,-5.000800781E0,-2.156221115E1,4.623884583E-1,2.213934871E1
4.627947750E0,-6.321504364E0,-2.193927704E1,1.362616425E0,2.287247293E1
4.638028750E0,-7.275470581E0,-2.227368164E1,2.149230652E0,2.353016274E1
4.648109750E0,-8.150850220E0,-2.243399826E1,2.973267059E0,2.405329404E1
4.658189750E0,-9.610315247E0,-2.265583694E1,3.880231018E0,2.491387765E1
4.668270750E0,-1.284314255E1,-2.302826248E1,3.978127441E0,2.666594610E1
4.678351750E0,-1.708202774E1,-2.307915665E1,2.604434052E0,2.883099409E1
4.688432750E0,-2.146656006E1,-2.349259689E1,5.486091614E-1,3.182791670E1
4.698512750E0,-2.726190857E1,-2.528422119E1,1.183888092E0,3.720087487E1
4.708593750E0,-3.468392441E1,-2.487721756E1,3.977528687E0,4.286806854E1
4.718674750E0,-4.546121292E1,-2.262305511E1,4.443359985E0,5.097320817E1
4.728755750E0,-5.851496750E1,-1.884266647E1,5.418881378E0,6.171233083E1
4.738835750E0,-6.882956818E1,-1.189546326E1,1.080587906E1,7.068082147E1
4.748916750E0,-7.222720276E1,-1.935475159E0,1.997116974E1,7.496240727E1
4.758997750E0,-7.100738937E1,8.476572876E0,2.502481064E1,7.576372998E1
4.769077750E0,-6.565601761E1,1.163036453E1,1.516915558E1,6.838187851E1
4.779158750E0,-5.359215454E1,1.064092209E1,-1.555415497E0,5.466047538E1
4.789239750E0,-4.270559326E1,1.121692429E1,-1.080348404E1,4.545659857E1
4.799320750E0,-4.060411331E1,1.056637711E1,-9.983638916E0,4.312789572E1
4.809400750E0,-4.422897537E1,8.826245728E0,-4.764891357E0,4.535205691E1
4.819481750E0,-4.713353531E1,6.837631073E0,-7.313790894E-1,4.763253368E1
4.829562750E0,-4.920088623E1,3.713777161E0,1.971699829E0,4.938022830E1
4.839643750E0,-5.152959366E1,-2.424957275E-1,4.120481415E0,5.169464376E1
4.849723750E0,-5.392970261E1,-4.268972626E0,6.521039429E0,5.449000739E1
4.859804750E0,-5.798970978E1,-7.636220398E0,1.029424301E1,5.938930662E1
4.869885750E0,-6.347640015E1,-9.936037903E0,1.463850906E1,6.589585854E1
4.879966750E0,-6.852480194E1,-1.127305756E1,1.811502960E1,7.176966354E1
4.890046750E0,-7.133984802E1,-1.303279816E1,2.043221100E1,7.534389816E1
4.900127750E0,-7.145376114E1,-1.558020081E1,2.155637329E1,7.624342508E1
4.910208750E0,-6.753565887E1,-1.831576218E1,1.971744736E1,7.270013820E1
4.920289750E0,-6.129798019E1,-1.933184921E1,1.498893036E1,6.599871819E1
4.930369750E0,-5.662394989E1,-2.176459030E1,1.148157394E1,6.173974111E1
4.940450750E0,-4.946927811E1,-2.655418030E1,1.201251984E1,5.741632695E1
4.950531750E0,-3.716157211E1,-2.907089676E1,1.341719879E1,4.905222425E1
4.960612750E0,-2.689217743E1,-3.172607529E1,7.253166962E0,4.221778643E1
4.970692750E0,-1.666230057E1,-3.209236359E1,-1.281634827E0,3.618279493E1
4.980773750E0,-1.131107849E1,-3.012934570E1,-4.515060883E0,3.249774983E1
4.990854750E0,-1.362811020E1,-3.045791245E1,-2.494562531E0,3.346091243E1
5.000935750E0,-1.482217712E1,-3.325185242E1,-1.587299194E0,3.644039164E1
5.011015750E0,-1.232985992E1,-3.770539124E1,-5.306614838E0,4.002351977E1
5.021096750E0,-6.673721924E0,-4.144192108E1,-1.028615982E1,4.321777957E1
5.031177750E0,5.225633240E-1,-4.255680267E1,-1.426952637E1,4.488846075E1
5.041258750E0,6.481072540E0,-4.250905197E1,-1.691407700E1,4.620724836E1
5.051338750E0,1.121872055E1,-4.106350800E1,-1.795531174E1,4.620026623E1
5.061419750E0,1.522498947E1,-3.786675568E1,-1.693667999E1,4.418758444E1
5.071500750E0,1.773317368E1,-3.378369644E1,-1.410456940E1,4.067852593E1
5.081581750E0,1.766820877E1,-2.950469467E1,-1.063897614E1,3.599833916E1
5.091661750E0,1.554876617E1,-2.477991989E1,-6.970404968E0,3.007316253E1
5.101742750E0,1.115285751E1,-2.022683807E1,-3.492836609E0,2.336046054E1
5.111823750E0,6.534212036E0,-1.596070953E1,-6.472540283E-1,1.725859535E1
5.121904750E0,3.344345398E0,-1.203182968E1,1.722617798E0,1.260622797E1
5.131984750E0,1.085243225E0,-8.528065796E0,3.457659760E0,9.266124869E0
5.142065750E0,-1.080004120E0,-5.451363831E0,4.902455292E0,7.410657488E0
5.152146750E0,-3.078797607E0,-2.927911377E0,5.481750641E0,6.935506458E0
5.162227750E0,-4.619693298E0,-1.085841980E0,4.995112610E0,6.889975977E0
5.172307750E0,-5.088069305E0,4.023632813E-1,4.225263519E0,6.625948783E0
5.182388750E0,-4.263284454E0,1.545985107E0,3.655548248E0,5.824834529E0
5.192469750E0,-2.949316864E0,2.227218475E0,3.231929169E0,4.909616915E0
5.202550750E0,-2.014810181E0,2.686313782E0,2.930605774E0,4.456926295E0
5.212630750E0,-1.686692505E0,2.942730560E0,2.914589081E0,4.472071586E0
5.222711750E0,-1.658551025E0,3.153043213E0,2.886896667E0,4.585482022E0
5.232792750E0,-2.060764618E0,3.055745544E0,2.642454987E0,4.535074420E0
5.242872750E0,-2.299817505E0,2.821782074E0,2.201771393E0,4.254340360E0
5.252953750E0,-2.239642639E0,2.775528259E0,1.388961639E0,3.827371253E0
5.263034750E0,-2.031425629E0,2.615660706E0,6.571334839E-1,3.376417543E0
5.273115750E0,-1.713037720E0,2.251018982E0,1.874102783E-1,2.834908693E0
5.283195750E0,-1.328936462E0,1.761237488E0,-2.866539001E-1,2.224904508E0
5.293276750E0,-9.508227539E-1,1.001417542E0,-6.842271423E-1,1.541125493E0
5.303357750E0,-3.510200500E-1,3.773652649E-1,-8.228388977E-1,9.709188793E-1
5.313438750E0,1.899549866E-1,-2.854563904E-1,-6.767427063E-1,7.586494172E-1
5.323518750E0,7.020401001E-1,-1.130000153E0,-1.728904724E-1,1.341511000E0
5.333599750E0,1.507964172E0,-1.730700989E0,2.875520325E-1,2.313432089E0
5.343680750E0,2.289189606E0,-2.230661316E0,3.646417236E-1,3.217017647E0
5.353761750E0,2.730621643E0,-2.638712769E0,-1.182540894E-2,3.797267369E0
5.363841750E0,2.957849121E0,-2.917882233E0,-6.885681152E-1,4.211535848E0
5.373922750E0,3.215014343E0,-3.026556244E0,-1.328786774E0,4.611077338E0
5.384003750E0,3.359913025E0,-2.970422974E0,-1.868564301E0,4.858390754E0
5.394084750E0,3.148402863E0,-2.910547485E0,-2.323318634E0,4.876631699E0
5.404164750E0,2.073188782E0,-2.842588806E0,-2.554587708E0,4.347912281E0
5.414245750E0,7.872129822E-1,-2.428849182E0,-2.323318634E0,3.452075043E0
5.424326750E0,3.601510620E-1,-1.814376984E0,-1.577419739E0,2.431033866E0
5.434407750E0,5.289999390E-1,-1.612746277E0,-1.125509491E0,2.036556678E0
5.444487750E0,1.003812561E0,-1.548829193E0,-1.143771515E0,2.171341706E0
5.454568750E0,1.572330322E0,-1.401834869E0,-1.456471252E0,2.560990463E0
5.464649750E0,2.049987030E0,-1.070573730E0,-2.069596252E0,3.103514715E0
5.474730750E0,1.893412628E0,-7.981402588E-1,-2.538121948E0,3.265593710E0
5.484810750E0,1.170715485E0,-1.613644409E-1,-2.475252686E0,2.742897936E0
5.494891750E0,-1.913021851E-1,4.273612976E-1,-1.932481384E0,1.988395963E0
5.504972750E0,-2.298619995E0,3.755690002E-1,-1.628164215E0,2.841764358E0
5.515053750E0,-6.568341064E0,1.041833496E0,-6.954537964E-1,6.686716485E0
5.525133750E0,-1.040875488E1,2.909799042E0,1.038240967E0,1.085758044E1
5.535214750E0,-1.333157684E1,4.652624817E0,1.473685455E0,1.419681681E1
5.545295750E0,-1.618853577E1,6.707701263E0,-3.245251465E-1,1.752618792E1
5.555375750E0,-2.022878403E1,1.111199249E1,-2.119592285E0,2.317698755E1
5.565456750E0,-2.746967651E1,1.575159439E1,-2.527494049E0,3.176608380E1
5.575537750E0,-3.982348663E1,1.828507599E1,7.581733704E-1,4.382726227E1
5.585618750E0,-4.978691757E1,1.909264664E1,7.838449860E0,5.389533944E1
5.595698750E0,-5.022909805E1,1.639211243E1,1.424647430E1,5.472317307E1
5.605779125E0,-4.742363205E1,1.487920853E1,2.163900146E1,5.420920685E1
5.615860125E0,-4.188440094E1,1.491887604E1,2.695549576E1,5.199494837E1
5.625941125E0,-3.570046051E1,1.396565826E1,2.728406250E1,4.705297608E1
5.636021125E0,-3.012410660E1,1.229767685E1,2.431094513E1,4.061670478E1
5.646102125E0,-2.536460403E1,1.044767395E1,1.811682587E1,3.287455564E1
5.656183125E0,-2.156370804E1,8.253985748E0,1.139535324E1,2.574831763E1
5.666264125E0,-1.795905396E1,6.187532959E0,5.575605469E0,1.979647846E1
5.676344125E0,-1.473535767E1,4.153712311E0,1.000818787E0,1.534228568E1
5.686425125E0,-1.212478638E1,2.446213074E0,-2.439028015E0,1.260727015E1
5.696506125E0,-9.779014435E0,1.135838013E0,-4.561913452E0,1.085035970E1
5.706587125E0,-7.630831604E0,3.053649902E-2,-5.334007874E0,9.310325636E0
5.716667125E0,-6.308481445E0,-6.680607605E-1,-5.326373749E0,8.283326665E0
5.726748125E0,-5.419330444E0,-1.445693665E0,-4.841232605E0,7.409231119E0
5.736829125E0,-4.687801666E0,-2.406096497E0,-3.871249695E0,6.538452341E0
5.746910125E0,-4.433480530E0,-2.932701416E0,-2.819985809E0,6.017375439E0
5.756990125E0,-4.551135864E0,-3.055146790E0,-1.859882355E0,5.788430006E0
5.767071125E0,-4.883594513E0,-3.005300446E0,-1.118025055E0,5.842200455E0
5.777152125E0,-5.193450165E0,-2.884651337E0,-9.077124023E-1,6.009748726E0
5.787232125E0,-5.793103180E0,-2.857407990E0,-1.012943573E0,6.538415676E0
5.797313125E0,-6.525979156E0,-2.914439392E0,-8.632548523E-1,7.199136744E0
5.807394125E0,-6.940018158E0,-2.620151367E0,-3.797602844E-1,7.427870697E0
5.817475125E0,-6.987768860E0,-2.151625671E0,1.342707825E-1,7.312758393E0
5.827555125E0,-6.296057281E0,-2.023941193E0,2.872526550E-1,6.619606433E0
5.837636125E0,-5.325774994E0,-2.153721313E0,4.984634399E-2,5.744987332E0
5.847717125E0,-4.771327972E0,-2.570454712E0,-1.916015625E-1,5.423054417E0
5.857798125E0,-3.951482849E0,-3.009791107E0,-5.158273315E-1,4.993909996E0
5.867878125E0,-3.007545776E0,-3.527265015E0,-1.169218597E0,4.780585969E0
5.877959125E0,-1.865570526E0,-3.995641022E0,-2.129322052E0,4.896888090E0
5.888040125E0,-1.009949799E0,-4.654570770E0,-3.061583405E0,5.662006764E0
5.898121125E0,-3.601510620E-1,-5.127287750E0,-3.699856110E0,6.333065900E0
5.908201125E0,1.347198486E-3,-5.129533081E0,-3.972888336E0,6.488139423E0
5.918282125E0,-3.770658875E-1,-5.269791412E0,-3.851490784E0,6.538108402E0
5.928363125E0,-1.247356110E0,-5.429808655E0,-3.483705597E0,6.570762816E0
5.938444125E0,-2.287393341E0,-5.370681610E0,-2.716999969E0,6.438825831E0
5.948524125E0,-3.501817932E0,-5.431305542E0,-1.648821259E0,6.669364307E0
5.958605125E0,-3.936513977E0,-5.350174255E0,-6.078858948E-1,6.670084866E0
5.968686125E0,-4.181255035E0,-5.272635498E0,2.790197754E-1,6.735089517E0
5.978767125E0,-4.188889160E0,-5.375172272E0,8.044271851E-1,6.861951067E0
5.988847125E0,-3.843108215E0,-5.408103790E0,9.569599915E-1,6.703196237E0
5.998928125E0,-3.690126343E0,-5.622008972E0,9.668394470E-1,6.794026481E0
6.009009125E0,-3.777694244E0,-6.043981476E0,8.478369141E-1,7.177709476E0
6.019090125E0,-4.885839844E0,-6.682703247E0,7.402107239E-1,8.311309499E0
6.029170125E0,-7.256011047E0,-7.454947357E0,6.477030945E-1,1.042331309E1
6.039251125E0,-9.581874390E0,-8.535400543E0,3.233276367E-1,1.283627360E1
6.049332125E0,-1.128772705E1,-1.041264679E1,1.951940918E-1,1.535819312E1
6.059412125E0,-1.320494019E1,-1.178828613E1,1.355131989E0,1.775304250E1
6.069493125E0,-1.666918625E1,-1.265962418E1,3.437302094E0,2.121185754E1
6.079574125E0,-2.187760529E1,-1.349024689E1,6.723418579E0,2.656728687E1
6.089655125E0,-2.862033371E1,-1.302576279E1,1.107531876E1,3.333851651E1
6.099735125E0,-3.541171097E1,-1.070019882E1,1.439736053E1,3.969593832E1
6.109816125E0,-4.280004684E1,-9.060209198E0,1.537527695E1,4.637165666E1
6.119897125E0,-4.741584824E1,-4.243375854E0,1.310240341E1,4.937551901E1
6.129978125E0,-4.855827255E1,1.608255615E0,8.712332611E0,4.935987296E1
6.140058125E0,-5.035333969E1,4.711602173E0,4.876858521E0,5.080789075E1
6.150139125E0,-5.201144165E1,4.876110077E0,3.169059906E0,5.233554674E1
6.160220125E0,-5.562268204E1,1.402134247E0,4.961732025E0,5.586114501E1
6.170301125E0,-6.029102417E1,-3.415148163E0,7.855214996E0,6.089643040E1
6.180381125E0,-6.325905212E1,-9.777517548E0,8.625812531E0,6.458879289E1
6.190462125E0,-6.303421967E1,-1.596714615E1,8.418194275E0,6.556774054E1
6.200543125E0,-5.905324814E1,-1.977447876E1,8.236921234E0,6.281849248E1
6.210624125E0,-5.445196655E1,-2.108575195E1,8.538244629E0,5.901294111E1
6.220704125E0,-5.167868362E1,-2.029838928E1,9.951156464E0,5.640688312E1
6.230785125E0,-5.035034592E1,-1.934756653E1,1.160371994E1,5.517365296E1
6.240866125E0,-4.684134293E1,-1.917737045E1,1.251083359E1,5.213831510E1
6.250947125E0,-4.064827148E1,-1.853176300E1,1.266366577E1,4.643357239E1
6.261027125E0,-3.309138611E1,-1.852008728E1,1.120015915E1,3.954082741E1
6.271108125E0,-2.593192429E1,-1.798315384E1,8.238418121E0,3.261487471E1
6.281189125E0,-2.016067566E1,-1.668026321E1,6.239774323E0,2.690016371E1
6.291270125E0,-1.653790924E1,-1.552077438E1,5.754633179E0,2.339898892E1
6.301350125E0,-1.475332031E1,-1.526929733E1,6.361171875E0,2.216475601E1
6.311431125E0,-1.321032898E1,-1.562211365E1,6.342460785E0,2.141938457E1
6.321512125E0,-1.307590851E1,-1.670615936E1,4.806654510E0,2.175267964E1
6.331593125E0,-1.336810089E1,-1.742361740E1,2.898722076E0,2.215154971E1
6.341673125E0,-1.249436783E1,-1.836905136E1,9.735754395E-1,2.223688657E1
6.351754125E0,-1.171598648E1,-1.912677567E1,-8.804690552E-1,2.244711813E1
6.361835125E0,-1.166060165E1,-1.915985687E1,-1.788031769E0,2.250037342E1
6.371916125E0,-1.172960815E1,-1.985336472E1,-1.860630798E0,2.313442770E1
6.381996125E0,-1.024858795E1,-2.049942123E1,-1.838177490E0,2.299214480E1
6.392077125E0,-6.973398743E0,-1.988225464E1,-1.843416595E0,2.115018970E1
6.402158125E0,-4.041894836E0,-1.946432373E1,-1.791474609E0,1.996011507E1
6.412239125E0,-1.830094299E0,-1.905163193E1,-1.483714600E0,1.919675320E1
6.422319125E0,-9.223818970E-1,-1.826846054E1,-5.625302124E-1,1.830037921E1
6.432400125E0,-1.028660889E0,-1.776790146E1,6.191125488E-1,1.780841840E1
6.442481125E0,-1.484163666E0,-1.772928177E1,1.784139862E0,1.788052932E1
6.452562125E0,-1.717678070E0,-1.768063293E1,2.839595032E0,1.798939962E1
6.462642125E0,-1.618284760E0,-1.776909897E1,3.552712097E0,1.819289661E1
6.472723125E0,-1.102158051E0,-1.829794922E1,3.437751160E0,1.865067910E1
6.482804125E0,-5.613327026E-2,-1.864792145E1,2.798730011E0,1.885685591E1
6.492884125E0,1.472787323E0,-1.856469452E1,2.008223877E0,1.873098898E1
6.502965125E0,3.414100342E0,-1.846051117E1,2.421963501E-1,1.877512218E1
6.513046125E0,5.904471588E0,-1.823028992E1,-2.275118866E0,1.929721278E1
6.523127125E0,8.795110474E0,-1.782478317E1,-4.654271393E0,2.041418883E1
6.533207125E0,1.174517578E1,-1.727347961E1,-6.570736084E0,2.189741594E1
6.543288125E0,1.415561325E1,-1.644824570E1,-7.690258026E0,2.302316750E1
6.553369125E0,1.549353104E1,-1.510463974E1,-7.852370911E0,2.301867447E1
6.563450125E0,1.469808517E1,-1.367107086E1,-6.955136719E0,2.124395945E1
6.573530125E0,1.145597717E1,-1.295046936E1,-5.000351715E0,1.799882182E1
6.583611125E0,7.886200562E0,-1.214499435E1,-2.782863007E0,1.474575782E1
6.593692125E0,4.557123413E0,-1.158979889E1,-9.369017029E-1,1.248873880E1
6.603773625E0,1.660047913E0,-1.137903717E1,5.489085388E-1,1.151258210E1
6.613853625E0,-1.317260742E-1,-1.089389603E1,1.382525024E0,1.098206255E1
6.623934625E0,-1.123413849E0,-1.031639694E1,1.394051056E0,1.047060088E1
6.634015625E0,-1.734443207E0,-9.924362183E0,9.762698364E-1,1.012197415E1
6.644096625E0,-1.945055237E0,-9.617799683E0,4.308041382E-1,9.821960233E0
6.654176625E0,-2.211201782E0,-9.555080109E0,5.194198608E-2,9.807735069E0
6.664257625E0,-2.336640930E0,-9.790390778E0,-1.519340515E-1,1.006651511E1
6.674338625E0,-2.554737396E0,-1.019380188E1,-1.679507446E-1,1.051039901E1
6.684419625E0,-2.866389313E0,-1.068014053E1,-2.628533936E-1,1.106122423E1
6.694499625E0,-2.718646545E0,-1.089015381E1,-4.484674072E-1,1.123332596E1
6.704580625E0,-2.531385956E0,-1.113564331E1,-7.679031372E-1,1.144552935E1
6.714661625E0,-2.098186798E0,-1.149100433E1,-1.348096619E0,1.175852597E1
6.724742625E0,-2.162702637E0,-1.176134216E1,-1.633103943E0,1.206952694E1
6.734822625E0,-3.445235596E0,-1.164742905E1,-8.373587036E-1,1.217511484E1
6.744903625E0,-6.312672729E0,-1.098385895E1,2.688409424E-1,1.267151411E1
6.754984625E0,-1.082863174E1,-9.905202026E0,1.063987427E0,1.471408719E1
6.765065625E0,-1.508712616E1,-8.612041168E0,1.485510864E0,1.743546304E1
6.775145625E0,-1.806114166E1,-8.038883057E0,8.464897156E-1,1.978749665E1
6.785226625E0,-1.861184647E1,-7.661966858E0,-5.046006775E-1,2.013358356E1
6.795307625E0,-1.671319473E1,-6.697073364E0,-1.878593445E0,1.810278385E1
6.805387625E0,-1.684851334E1,-5.100343781E0,-9.065148926E-1,1.762690210E1
6.815468625E0,-2.511881516E1,-4.405788116E0,4.951403503E0,2.597849573E1
6.825549625E0,-3.838662460E1,-3.859573975E0,1.200758011E1,4.040558426E1
6.835630625E0,-5.086512543E1,-2.851121063E0,1.660077850E1,5.358148676E1
6.845710625E0,-6.232798828E1,2.149530029E-1,1.775622574E1,6.480823929E1
6.855791625E0,-6.796900772E1,5.765261078E0,1.740849884E1,7.039943237E1
6.865872625E0,-6.115697342E1,9.755662994E0,1.430126038E1,6.356000635E1
6.875953625E0,-5.139188004E1,9.060358887E0,1.164772842E1,5.346854229E1
6.886033625E0,-4.365746384E1,8.209677887E0,1.298938843E1,4.628279563E1
6.896114625E0,-3.966721161E1,8.333620148E0,1.415007477E1,4.293205699E1
6.906195625E0,-3.649515793E1,8.095166016E0,1.276350815E1,3.950108106E1
6.916276625E0,-3.310979782E1,7.321425018E0,1.035037628E1,3.545408672E1
6.926356625E0,-3.175032486E1,6.330934753E0,7.986342316E0,3.334584722E1
6.936437625E0,-3.372516815E1,6.211632843E0,6.310277710E0,3.486819402E1
6.946518625E0,-3.427437607E1,7.093449097E0,5.629792786E0,3.545059156E1
6.956599625E0,-2.980511993E1,7.775730286E0,3.774101715E0,3.103306301E1
6.966679625E0,-2.381068542E1,7.302564240E0,9.937834167E-1,2.492516380E1
6.976760625E0,-1.935774536E1,5.950426025E0,-1.222208405E0,2.028851076E1
6.986841625E0,-1.605321716E1,4.884043579E0,-2.368674316E0,1.694609929E1
6.996922625E0,-1.372286316E1,4.339476013E0,-2.127076721E0,1.454896837E1
7.007002625E0,-1.201536392E1,4.341871033E0,-8.734336853E-1,1.280561208E1
7.017083625E0,-1.109193420E1,4.308340759E0,4.468208313E-1,1.190766364E1
7.027164625E0,-1.110854965E1,4.193379822E0,1.199156342E0,1.193408085E1
7.037244625E0,-1.131272507E1,4.446054382E0,1.331481171E0,1.222775491E1
7.047325625E0,-1.137724091E1,4.726571045E0,1.310824127E0,1.238952559E1
7.057406625E0,-1.107112747E1,4.734654236E0,1.048120422E0,1.208657812E1
7.067487625E0,-1.019185593E1,4.342469788E0,5.409750366E-1,1.109160156E1
7.077567625E0,-9.257349243E0,3.709885254E0,1.167572021E-2,9.973058705E0
7.087648625E0,-8.341553650E0,3.175496521E0,-2.616558838E-1,8.929376196E0
7.097729625E0,-7.644752655E0,2.553240509E0,-2.011816406E-1,8.062366545E0
7.107810625E0,-7.596702576E0,1.830842743E0,5.242098999E-1,7.831773183E0
7.117890625E0,-7.952362976E0,1.556463318E0,1.886227570E0,8.319886382E0
7.127971625E0,-8.372090149E0,1.135388947E0,2.643802185E0,8.852722266E0
7.138052625E0,-8.779991913E0,4.480183411E-1,2.509830780E0,9.142659841E0
7.148133625E0,-9.280550995E0,-2.243833923E-1,2.124082947E0,9.523166650E0
7.158213625E0,-9.504635010E0,-7.445516968E-1,1.873803406E0,9.716150632E0
7.168294625E0,-9.193581848E0,-1.205293579E0,1.584455109E0,9.406656037E0
7.178375625E0,-9.028924255E0,-1.885628815E0,1.345252533E0,9.321307506E0
7.188456625E0,-9.020391998E0,-2.466121674E0,1.297651520E0,9.441034232E0
7.198536625E0,-8.888366547E0,-2.882705383E0,1.212179260E0,9.422442823E0
7.208617625E0,-8.726253662E0,-3.351829834E0,1.157692566E0,9.419263150E0
7.218698625E0,-8.651109924E0,-3.685635681E0,1.205742645E0,9.480476181E0
7.228779625E0,-8.350085907E0,-3.906127167E0,1.609752502E0,9.358048259E0
7.238859625E0,-7.876321106E0,-4.431833954E0,1.977537689E0,9.251391337E0
7.248940625E0,-7.408543854E0,-5.084925842E0,2.193089447E0,9.249466697E0
7.259021625E0,-6.941215668E0,-5.427114258E0,2.425855408E0,9.138863090E0
7.269102625E0,-6.837331696E0,-5.904022522E0,2.499202881E0,9.372971871E0
7.279182625E0,-6.596482544E0,-6.542893982E0,2.461930389E0,9.611667121E0
7.289263625E0,-5.707630920E0,-6.670578461E0,2.541115723E0,9.139526073E0
7.299344625E0,-4.859494629E0,-6.817123718E0,2.306104431E0,8.683661756E0
7.309425625E0,-4.278253326E0,-7.077133026E0,1.569336548E0,8.417367795E0
7.319505625E0,-3.876339111E0,-7.269782410E0,5.089416504E-1,8.254378401E0
7.329586625E0,-3.964356079E0,-7.598798218E0,-3.658392334E-1,8.578560009E0
7.339667625E0,-3.899241486E0,-7.789501648E0,-9.268725586E-1,8.760109179E0
7.349747625E0,-3.881877594E0,-8.053253174E0,-1.414408722E0,9.051210547E0
7.359828625E0,-4.226910095E0,-8.649912415E0,-1.879192200E0,9.809134368E0
7.369909625E0,-3.984414368E0,-9.343120880E0,-2.262545013E0,1.040617968E1
7.379990625E0,-3.135679321E0,-9.766590271E0,-2.501298523E0,1.055818472E1
7.390070625E0,-2.694546661E0,-1.004770569E1,-2.493664398E0,1.069744518E1
7.400151625E0,-2.851420441E0,-1.027628036E1,-2.188748474E0,1.088683409E1
7.410232625E0,-3.524420929E0,-1.052985306E1,-1.706601105E0,1.123440411E1
7.420313625E0,-4.854704590E0,-1.075064392E1,-8.593629456E-1,1.182721464E1
7.430393625E0,-6.467301178E0,-1.077204941E1,-4.924758911E-2,1.256445217E1
7.440474625E0,-8.220156097E0,-1.050410660E1,6.569837952E-1,1.335435694E1
7.450555625E0,-9.784103851E0,-1.014934433E1,1.442550201E0,1.417105605E1
7.460636625E0,-1.085632416E1,-9.743388519E0,2.027982788E0,1.472773262E1
7.470716625E0,-1.145477966E1,-9.271719360E0,2.296374664E0,1.491476093E1
7.480797625E0,-1.210951813E1,-8.914861450E0,2.543810120E0,1.525077552E1
7.490878625E0,-1.242356506E1,-8.590635681E0,3.077749786E0,1.541481541E1
7.500959625E0,-1.236728210E1,-8.072862396E0,3.592529297E0,1.519957370E1
7.511039625E0,-1.235949829E1,-7.451803894E0,3.979774017E0,1.497081095E1
7.521120625E0,-1.249825974E1,-6.671027527E0,4.304448853E0,1.480666690E1
7.531201625E0,-1.286290146E1,-5.744604034E0,4.705315247E0,1.485243081E1
7.541282625E0,-1.349009720E1,-4.536466370E0,5.072202301E0,1.510925166E1
7.551362625E0,-1.333516937E1,-3.106639709E0,5.072651367E0,1.460170348E1
7.561443625E0,-1.268986130E1,-2.008672943E0,4.703518982E0,1.368175565E1
7.571524625E0,-1.200144287E1,-1.027613068E0,4.534370728E0,1.287055312E1
7.581604625E0,-1.104373444E1,2.704875183E-1,4.574636993E0,1.195677789E1
7.591685625E0,-1.004052063E1,1.785487061E0,4.296215973E0,1.106605125E1
7.601766625E0,-9.202263794E0,3.185226288E0,3.674259338E0,1.040805011E1
7.611847750E0,-8.743018799E0,4.850363617E0,3.101849670E0,1.046842282E1
7.621927750E0,-8.933572540E0,6.869514771E0,2.493814087E0,1.154201283E1
7.632008750E0,-9.380093994E0,8.889264679E0,1.420845337E0,1.300092271E1
7.642089750E0,-1.008662476E1,1.051368668E1,1.422042847E-2,1.456975665E1
7.652170750E0,-1.083611618E1,1.117306549E1,-1.050515442E0,1.560007657E1
7.662250750E0,-1.129326553E1,1.112950607E1,-8.640032959E-1,1.587923970E1
7.672331750E0,-1.219020035E1,1.101649109E1,7.875123596E-1,1.644944486E1
7.682412750E0,-1.395263535E1,1.109807144E1,2.841540985E0,1.805318747E1
7.692493750E0,-1.691437637E1,1.143277542E1,4.024830322E0,2.080874194E1
7.702573750E0,-2.059058167E1,1.204380478E1,4.239184570E0,2.422799977E1
7.712654750E0,-2.354109604E1,1.258253448E1,3.350033569E0,2.690215794E1
7.722735750E0,-2.651361465E1,1.257939102E1,1.791324921E0,2.940104905E1
7.732816750E0,-2.993070877E1,1.196402069E1,8.361611938E-1,3.224413566E1
7.742896750E0,-3.340228958E1,1.091604996E1,1.392105103E0,3.516832456E1
7.752977750E0,-3.651746155E1,9.259295197E0,2.988235931E0,3.779138922E1
7.763058750E0,-3.904660217E1,7.480693817E0,5.016667786E0,4.007199617E1
7.773139750E0,-4.179952744E1,5.391787720E0,5.924080811E0,4.256015275E1
7.783219750E0,-4.548411530E1,2.519261169E0,6.005960541E0,4.594804656E1
7.793300750E0,-4.833179352E1,-3.562591553E-2,6.602021027E0,4.878063361E1
7.803381750E0,-5.122407898E1,-1.957778778E0,8.070617065E0,5.189290920E1
7.813461750E0,-5.597939026E1,-3.985911255E0,1.071531738E1,5.713490745E1
7.823542750E0,-6.230239151E1,-6.321204987E0,1.343546082E1,6.404730461E1
7.833623750E0,-6.695022629E1,-9.223220215E0,1.486289246E1,6.919758784E1
7.843704750E0,-6.948460602E1,-1.263507523E1,1.518008286E1,7.223704392E1
7.853784750E0,-7.102984268E1,-1.568752762E1,1.572944046E1,7.442279470E1
7.863865750E0,-7.024098312E1,-1.814811081E1,1.667038376E1,7.443823836E1
7.873946750E0,-6.581947769E1,-2.066303101E1,1.682126999E1,7.100788420E1
7.884027750E0,-5.948210632E1,-2.287677750E1,1.617236938E1,6.574962702E1
7.894107750E0,-5.364125244E1,-2.406904816E1,1.466066299E1,6.059404329E1
7.904188750E0,-4.850857590E1,-2.500430328E1,1.242117004E1,5.596947904E1
7.914269750E0,-4.225787430E1,-2.565245544E1,9.240584106E0,5.029080239E1
7.924350750E0,-3.550421860E1,-2.558599365E1,5.580245819E0,4.411725006E1
7.934430750E0,-2.910457672E1,-2.455643463E1,2.376458130E0,3.815419271E1
7.944511750E0,-2.311702789E1,-2.311538132E1,-3.884422302E-1,3.269355777E1
7.954592750E0,-1.701646408E1,-2.126897095E1,-2.703228607E0,2.737218698E1
7.964673750E0,-1.153695877E1,-1.904968597E1,-5.224585419E0,2.287549445E1
7.974753750E0,-6.960076447E0,-1.687186478E1,-7.912695465E0,1.989254219E1
7.984834750E0,-3.197500763E0,-1.490390717E1,-1.089389603E1,1.873572605E1
7.994915750E0,-5.436694336E-1,-1.328068268E1,-1.348979782E1,1.893797122E1
8.004996750E0,8.425978088E-1,-1.213691116E1,-1.426713135E1,1.875008321E1
8.015076750E0,1.151555328E0,-1.117082016E1,-1.325448715E1,1.737224028E1
8.025157750E0,6.144721985E-1,-1.028526169E1,-1.159473862E1,1.551135544E1
8.035238750E0,-3.339555359E-1,-9.749525757E0,-9.626331940E0,1.370514668E1
8.045319750E0,-8.589138794E-1,-9.323062592E0,-7.981103210E0,1.230265165E1
8.055399750E0,-1.066382446E0,-8.979676666E0,-6.722071381E0,1.126756443E1
8.065480750E0,-9.265731812E-1,-8.652906189E0,-5.768554230E0,1.044066766E1
8.075561750E0,-4.062551880E-1,-8.627459106E0,-5.040468292E0,1.000022072E1
8.085641750E0,6.423143005E-1,-8.476273499E0,-4.430037689E0,9.585667113E0
8.095722750E0,2.271676025E0,-7.908354492E0,-4.210743713E0,9.242994393E0
8.105803750E0,3.571273499E0,-7.417824554E0,-4.419858856E0,9.344156882E0
8.115884750E0,3.869902496E0,-7.147187347E0,-4.963977356E0,9.523628694E0
8.125964750E0,3.809278564E0,-6.793921967E0,-5.596561890E0,9.591114839E0
8.136045750E0,3.741918640E0,-6.273154907E0,-5.884562988E0,9.379899209E0
8.146126750E0,3.553460541E0,-5.638025665E0,-6.007158051E0,8.972199455E0
8.156207750E0,2.982847137E0,-5.235812073E0,-5.932613068E0,8.456181344E0
8.166287750E0,2.212698669E0,-5.016967163E0,-5.790558472E0,7.974745283E0
8.176368750E0,1.586550751E0,-4.971012726E0,-5.676944733E0,7.710759515E0
8.186449750E0,1.213526459E0,-4.975353699E0,-4.913532257E0,7.097153664E0
8.196530750E0,1.113684082E0,-4.756957855E0,-3.753744049E0,6.161130956E0
8.206610750E0,1.127455444E0,-4.473896484E0,-2.589315491E0,5.290695629E0
8.216691750E0,1.022074585E0,-4.038302307E0,-1.737736359E0,4.513562854E0
8.226772750E0,9.011260986E-1,-3.610192566E0,-1.158141632E0,3.897025872E0
8.236853750E0,8.161029053E-1,-3.186124420E0,-8.216413879E-1,3.390060080E0
8.246933750E0,5.519023132E-1,-2.890040131E0,-6.836283875E-1,3.020641636E0
8.257014750E0,-9.999206543E-2,-2.754422150E0,-8.024812317E-1,2.870682135E0
8.267095750E0,-7.291337585E-1,-2.498604126E0,-7.740403748E-1,2.715473645E0
8.277176750E0,-1.287472687E0,-2.037263489E0,-3.680845642E-1,2.437932462E0
8.287256750E0,-1.589245148E0,-1.530567169E0,1.432521057E-1,2.211076020E0
8.297337750E0,-1.940714264E0,-9.812095642E-1,4.799020386E-1,2.226982270E0
8.307418750E0,-2.218087463E0,-3.462300110E-1,8.545729065E-1,2.402099513E0
8.317499750E0,-2.237546997E0,2.915936279E-1,1.199455719E0,2.555452490E0
8.327579750E0,-2.030976563E0,7.292834473E-1,1.266067200E0,2.501928516E0
8.337660750E0,-2.252815247E0,1.005908203E0,1.158141632E0,2.725494430E0
8.347741750E0,-2.844534760E0,1.334474945E0,1.341061249E0,3.416232816E0
8.357821750E0,-3.350033569E0,1.844763794E0,1.716929626E0,4.192102779E0
8.367902750E0,-3.756288757E0,2.430645447E0,2.387984161E0,5.071509723E0
8.377983750E0,-3.367247772E0,3.096311188E0,3.710184631E0,5.889904119E0
8.388064750E0,-3.200045471E0,3.874842224E0,6.067781982E0,7.878621165E0
8.398144750E0,-3.449277191E0,4.719984741E0,8.515342255E0,1.032893135E1
8.408225750E0,-3.407364349E0,6.021378479E0,1.040336609E1,1.249388477E1
8.418306750E0,-3.992048492E0,8.096962280E0,1.139295822E1,1.453604989E1
8.428387750E0,-6.633455658E0,9.810000000E0,1.204455322E1,1.689112478E1
8.438467750E0,-9.646539917E0,1.081815353E1,1.409588745E1,2.021836347E1
8.448548750E0,-1.104553070E1,1.155357422E1,1.758273651E1,2.376218527E1
8.458629750E0,-1.076276871E1,1.252385651E1,2.071661957E1,2.649268764E1
8.468710750E0,-9.109456787E0,1.292906387E1,2.264999908E1,2.762544758E1
8.478790750E0,-7.512427826E0,1.230396378E1,2.279025742E1,2.696701558E1
8.488871750E0,-6.116281128E0,1.184022812E1,2.135429352E1,2.517152654E1
8.498952750E0,-5.542973328E0,1.240186020E1,1.959006226E1,2.383906938E1
8.509033750E0,-6.276148682E0,1.280093033E1,1.806129135E1,2.301008702E1
8.519113750E0,-6.929989014E0,1.264630188E1,1.691093353E1,2.222461185E1
8.529194750E0,-6.823710022E0,1.230740662E1,1.689940750E1,2.199148130E1
8.539275750E0,-6.159840546E0,1.161943726E1,1.802132446E1,2.230970849E1
8.549356750E0,-5.377118225E0,1.065544189E1,1.918201080E1,2.259206455E1
8.559436750E0,-4.733307037E0,9.923913116E0,2.015004776E1,2.295457845E1
8.569517750E0,-4.238436127E0,9.265282745E0,2.065150497E1,2.302812330E1
8.579598750E0,-3.891906738E0,8.949289856E0,2.053340057E1,2.273449507E1
8.589678750E0,-4.028123474E0,9.153465271E0,1.977777191E1,2.216239985E1
8.599759750E0,-4.199517059E0,9.455088043E0,1.853954681E1,2.123086031E1
8.609840750E0,-4.079017639E0,9.755962372E0,1.688443863E1,1.992238576E1
8.619921750E0,-4.061054993E0,9.964179382E0,1.473176514E1,1.824286004E1
8.630001750E0,-4.253404999E0,1.011042526E1,1.262190262E1,1.672197891E1
8.640082750E0,-4.597838745E0,1.008093658E1,1.095901062E1,1.558413672E1
8.650163750E0,-4.853806458E0,9.687404938E0,9.633367310E0,1.449851776E1
8.660244750E0,-4.602329407E0,9.034612427E0,8.451874237E0,1.319999378E1
8.670324750E0,-4.018543396E0,8.187673645E0,7.495063934E0,1.180519691E1
8.680405750E0,-3.175646210E0,7.339088287E0,7.110663300E0,1.070086344E1
8.690486750E0,-2.014810181E0,6.421795807E0,7.257807312E0,9.898216427E0
8.700567750E0,-9.690847778E-1,5.615572357E0,7.802524567E0,9.661944308E0
8.710647750E0,-4.161346436E-1,4.863236847E0,8.403225403E0,9.717944116E0
8.720728750E0,-4.561015320E-1,4.172273712E0,8.925938416E0,9.863481796E0
8.730809750E0,-9.842033386E-1,3.962110748E0,9.211245117E0,1.007541634E1
8.740890750E0,-1.251098328E0,3.687282257E0,8.946595459E0,9.757195692E0
8.750970750E0,-1.461560669E0,3.403771820E0,8.341703339E0,9.127203119E0
8.761051750E0,-1.449435883E0,3.295247498E0,7.601043549E0,8.410433014E0
8.771132750E0,-1.199455719E0,3.152743835E0,6.857839050E0,7.642541734E0
8.781213750E0,-8.831634521E-1,2.919678497E0,6.507417755E0,7.186862045E0
8.791293750E0,-5.098397827E-1,2.777623901E0,6.235433350E0,6.845126748E0
8.801374750E0,-3.749702454E-1,2.781515808E0,5.853577423E0,6.491671705E0
8.811455750E0,-6.587800598E-1,2.851270752E0,5.566624146E0,6.288961794E0
8.821535750E0,-1.095122681E0,2.920876007E0,5.510191498E0,6.331904980E0
8.831616750E0,-1.386566620E0,3.082240448E0,5.511089630E0,6.464896139E0
8.841697750E0,-1.400787048E0,3.107537842E0,5.473966827E0,6.448512125E0
8.851778750E0,-1.449286194E0,3.148552551E0,5.459297333E0,6.466663824E0
8.861858750E0,-1.547182617E0,3.270099792E0,5.381608887E0,6.484523183E0
8.871939750E0,-1.503922577E0,3.455564117E0,5.174439697E0,6.401369593E0
8.882020750E0,-1.416354675E0,3.700903931E0,5.253026276E0,6.580048292E0
8.892101750E0,-1.123413849E0,3.813918915E0,5.343887329E0,6.660718276E0
8.902181750E0,-9.563612366E-1,3.727249146E0,5.219945068E0,6.484970279E0
8.912262750E0,-8.165519714E-1,3.771107941E0,5.008883972E0,6.322731282E0
8.922343750E0,-7.415579224E-1,3.885170746E0,4.790488129E0,6.212345482E0
8.932424750E0,-4.920268250E-1,3.766168213E0,4.409829712E0,5.820026760E0
8.942504750E0,-2.171983337E-1,3.689976654E0,4.080813904E0,5.506009893E0
8.952585750E0,-2.698887634E-1,3.681594086E0,3.739373932E0,5.254511619E0
8.962666750E0,-3.610491943E-1,3.550766144E0,3.462300110E0,4.972506288E0
8.972747750E0,-4.421804810E-1,3.256627808E0,3.388802948E0,4.720713259E0
8.982827750E0,-5.495072937E-1,2.768343201E0,3.707340546E0,4.659405141E0
8.992908750E0,-5.450166321E-1,1.978884888E0,4.465962982E0,4.915063976E0
9.002989750E0,-1.026864624E-1,1.033899994E0,5.382806396E0,5.482161837E0
9.013069750E0,3.712280273E-1,-2.686912537E-1,6.117029572E0,6.134171176E0
9.023150750E0,6.828799438E-1,-1.561403046E0,6.660100250E0,6.874681071E0
9.033231750E0,1.141077118E0,-2.887345734E0,6.131848755E0,6.873019098E0
9.043312750E0,2.041604462E0,-4.607119446E0,3.978277130E0,6.420310529E0
9.053392750E0,3.304378510E0,-6.366261292E0,5.566923523E-1,7.194310706E0
9.063473750E0,4.234244843E0,-8.361611938E0,-3.015479279E0,9.845735060E0
9.073554750E0,4.528233490E0,-1.037582336E1,-6.205046539E0,1.290988813E1
9.083635750E0,4.103267212E0,-1.240350677E1,-7.878865814E0,1.525648415E1
9.093715750E0,3.066972198E0,-1.405157959E1,-8.106991425E0,1.650989150E1
9.103796750E0,1.473984833E0,-1.554981400E1,-7.608378296E0,1.737402564E1
9.113877750E0,-7.521858215E-1,-1.670720718E1,-6.952891388E0,1.811185396E1
9.123958750E0,-4.052822113E0,-1.766371811E1,-6.307283936E0,1.918890657E1
9.134038750E0,-7.903265076E0,-1.793704971E1,-5.437742157E0,2.034129767E1
9.144119750E0,-1.128967300E1,-1.757540176E1,-4.135300598E0,2.129441652E1
9.154200750E0,-1.337738159E1,-1.689806030E1,-3.096909943E0,2.177359941E1
9.164281750E0,-1.395607819E1,-1.620485184E1,-2.813698883E0,2.157049473E1
9.174361750E0,-1.391027344E1,-1.577030548E1,-2.681523743E0,2.119879269E1
9.184442750E0,-1.345641724E1,-1.519999146E1,-2.314037933E0,2.043207470E1
9.194523750E0,-1.352886658E1,-1.466784805E1,-1.741628265E0,2.003020885E1
9.204604750E0,-1.440095306E1,-1.421369247E1,-9.526190186E-1,2.025645541E1
9.214684750E0,-1.580563202E1,-1.363319962E1,9.131011963E-2,2.087319987E1
9.224765750E0,-1.679252975E1,-1.284523819E1,1.317260742E0,2.118311534E1
9.234846750E0,-1.704161179E1,-1.200249069E1,2.564467163E0,2.100125727E1
9.244927750E0,-1.709759537E1,-1.082219513E1,3.218756561E0,2.048921835E1
9.255007750E0,-1.772943146E1,-9.226663055E0,3.278182983E0,2.025365485E1
9.265088750E0,-2.038954971E1,-7.752977600E0,3.143612823E0,2.203916289E1
9.275169750E0,-2.488140884E1,-5.860163727E0,3.477718048E0,2.579768493E1
9.285249750E0,-3.082914047E1,-3.351979523E0,4.405189362E0,3.132215450E1
9.295330750E0,-3.562786148E1,-6.084846497E-1,5.729635162E0,3.609076733E1
9.305411750E0,-3.688524673E1,1.996997223E0,7.533983002E0,3.769973905E1
9.315492750E0,-3.650818085E1,4.693639526E0,1.071756271E1,3.833723609E1
9.325572750E0,-3.554373642E1,7.577243042E0,1.613180374E1,3.976187751E1
9.335653750E0,-3.578922592E1,1.070888077E1,2.028910858E1,4.251113673E1
9.345734750E0,-4.012780380E1,1.355865463E1,1.864223328E1,4.627753899E1
9.355815750E0,-4.604230453E1,1.581221832E1,1.069825287E1,4.984348172E1
9.365895750E0,-4.859659286E1,1.833327576E1,1.802850952E0,5.197103145E1
9.375976750E0,-4.869778244E1,1.925401108E1,-3.731290741E0,5.249869987E1
9.386057750E0,-4.952196854E1,1.745984207E1,-3.766766968E0,5.264465772E1
9.396138750E0,-5.050078308E1,1.438358917E1,-1.021924896E0,5.251914946E1
9.406218750E0,-5.053985184E1,9.549092560E0,9.618997192E-1,5.144304660E1
9.416299750E0,-5.037579300E1,3.793860626E0,3.340752869E0,5.062879150E1
9.426380750E0,-4.984290115E1,-1.345851288E0,6.781797180E0,5.032016379E1
9.436461750E0,-5.040408417E1,-5.839656372E0,9.765093384E0,5.167233627E1
9.446541750E0,-5.251783859E1,-8.829239502E0,1.215532288E1,5.462445162E1
9.456622750E0,-5.492752762E1,-1.011671219E1,1.364098343E1,5.749310902E1
9.466703750E0,-5.848053909E1,-1.129625931E1,1.322350159E1,6.101180149E1
9.476784750E0,-6.171636017E1,-1.309297302E1,1.195788345E1,6.421312975E1
9.486864750E0,-6.275040985E1,-1.503997421E1,1.182555862E1,6.560227586E1
9.496945750E0,-6.146054214E1,-1.698038910E1,1.308938049E1,6.509273182E1
9.507026750E0,-5.832695847E1,-1.829869766E1,1.491094254E1,6.292227449E1
9.517106750E0,-5.416142075E1,-1.975711487E1,1.606519226E1,5.984892219E1
9.527187750E0,-4.941853363E1,-2.170770859E1,1.536928940E1,5.612157459E1
9.537268750E0,-4.276292404E1,-2.326716568E1,1.366328705E1,5.056396033E1
9.547349750E0,-3.479888535E1,-2.408326859E1,1.198946777E1,4.398537921E1
9.557429750E0,-2.782114563E1,-2.428654587E1,9.291627960E0,3.808131831E1
9.567510750E0,-2.216904922E1,-2.377236511E1,6.686744843E0,3.318591031E1
9.577591750E0,-1.683174820E1,-2.258563293E1,5.144651642E0,2.863365158E1
9.587672750E0,-1.197734299E1,-2.119173157E1,3.949985962E0,2.466066952E1
9.597752750E0,-7.995623016E0,-2.049433182E1,2.482437744E0,2.213843087E1
9.607833042E0,-5.227130127E0,-2.017519547E1,7.598199463E-1,2.085518467E1
9.617914042E0,-3.372786255E0,-1.987686584E1,-7.041357422E-1,2.017328159E1
9.627995042E0,-1.627565460E0,-1.905372757E1,-1.714534607E0,1.919982116E1
9.638075042E0,-1.026565247E0,-1.818553299E1,-2.484234009E0,1.838311358E1
9.648156042E0,-1.537153473E0,-1.730326767E1,-2.688858490E0,1.757827844E1
9.658237042E0,-2.628234558E0,-1.660003006E1,-2.588417358E0,1.700495573E1
9.668318042E0,-3.650458832E0,-1.644689850E1,-2.893482971E0,1.709381653E1
9.678398042E0,-3.566782837E0,-1.656575134E1,-3.432661743E0,1.728956980E1
9.688479042E0,-1.870809631E0,-1.669972275E1,-3.971990204E0,1.726723414E1
9.698560042E0,5.933660889E-1,-1.669134018E1,-4.607568512E0,1.732577871E1
9.708641042E0,3.359463959E0,-1.685225555E1,-4.922812958E0,1.787508329E1
9.718721042E0,6.149661713E0,-1.665197205E1,-4.786147156E0,1.838514935E1
9.728802042E0,8.136779480E0,-1.622161697E1,-4.339476013E0,1.865955759E1
9.738883042E0,9.494905243E0,-1.542796738E1,-3.882476349E0,1.852698102E1
9.748963042E0,1.028975235E1,-1.444017151E1,-3.630550232E0,1.809912848E1
9.759044042E0,9.957443390E0,-1.337229218E1,-3.200045471E0,1.697672430E1
9.769125042E0,8.485554199E0,-1.217448303E1,-2.448308716E0,1.504050806E1
9.779206042E0,6.611900482E0,-1.097532669E1,-1.571132813E0,1.290904653E1
9.789286042E0,5.044958954E0,-9.798174591E0,-9.864486694E-1,1.106476015E1
9.799367042E0,3.882925415E0,-8.609795837E0,-5.661227417E-1,9.461828000E0
9.809448042E0,3.281326447E0,-7.321125641E0,-1.437011719E-1,8.024128235E0
9.819529042E0,2.985691223E0,-6.154152374E0,-3.143463135E-3,6.840172031E0
9.829609042E0,2.810854797E0,-5.225932617E0,4.565505981E-2,5.934084664E0
9.839690042E0,2.297572174E0,-4.312232666E0,2.863545227E-1,4.894505835E0
9.849771042E0,1.211131439E0,-3.523672485E0,5.306465149E-1,3.763601051E0
9.859852042E0,-1.026864624E-1,-2.903362427E0,8.225395203E-1,3.019375623E0
9.869932042E0,-1.627116394E0,-2.306703186E0,1.101409607E0,3.030097436E0
9.880013042E0,-3.293002167E0,-1.701661377E0,1.250349884E0,3.911890789E0
9.890094042E0,-4.708758087E0,-1.077459412E0,1.456920319E0,5.045387827E0
9.900175042E0,-5.220992889E0,-5.031037903E-1,1.644929352E0,5.497060373E0
9.910255042E0,-4.710404663E0,-1.799258423E-1,1.696422272E0,5.009803781E0
9.920336042E0,-3.365601196E0,-2.070195007E-1,1.617686005E0,3.739924664E0
9.930417042E0,-1.865720215E0,-5.816903687E-1,1.659898224E0,2.564086137E0
9.940497042E0,-6.840774536E-1,-8.957373047E-1,1.847607880E0,2.164246326E0
9.950578042E0,3.426374817E-1,-9.506730652E-1,2.009271698E0,2.249078139E0
9.960659042E0,1.023571472E0,-9.386979675E-1,2.067051544E0,2.490292055E0
9.970740042E0,1.072070618E0,-8.181985474E-1,1.985471191E0,2.400183352E0
9.980820042E0,-1.760339355E-1,-4.128414917E-1,1.759890289E0,1.816215812E0
9.990901042E0,-1.484013977E0,3.781137085E-1,1.226848755E0,1.962250068E0
1.000098204E1,-2.467768250E0,1.115630035E0,5.295986938E-1,2.759526279E0