"Time (s)","Acceleration x (m/s^2)","Acceleration y (m/s^2)","Acceleration z (m/s^2)","Absolute acceleration (m/s^2)"
4.110833397E-4,-3.398233337E0,-8.975784760E0,1.253343658E0,9.679027440E0
1.049008337E-2,-3.395988007E0,-9.085207214E0,1.403331757E0,9.800156360E0
2.056908328E-2,-3.438798981E0,-9.235794067E0,1.436412964E0,9.959342985E0
3.064808331E-2,-3.486250305E0,-9.292526093E0,1.335971832E0,1.001447967E1
4.072708334E-2,-3.498075714E0,-9.240883484E0,1.150657196E0,9.947586303E0
5.080608337E-2,-3.434308319E0,-9.151818695E0,9.250762939E-1,9.818656996E0
6.088508328E-2,-3.351680145E0,-9.078620911E0,6.848258972E-1,9.701757776E0
7.096408331E-2,-3.233276367E0,-9.109756165E0,5.797444153E-1,9.683895757E0
8.104308334E-2,-3.109633484E0,-9.216035156E0,6.704557800E-1,9.749596677E0
9.112208337E-2,-3.058140564E0,-9.348659363E0,8.647517395E-1,9.874079763E0
1.012005000E-1,-3.044967957E0,-9.406439209E0,1.078207855E0,9.945625200E0
1.112794999E-1,-3.033142548E0,-9.416468353E0,1.197958832E0,9.965186166E0
1.213585000E-1,-3.013233948E0,-9.352102203E0,1.155746613E0,9.893287860E0
1.314365000E-1,-3.084036713E0,-9.231153717E0,1.025218048E0,9.786549619E0
1.415155000E-1,-3.129991150E0,-9.147926788E0,9.942324829E-1,9.719563126E0
1.515944999E-1,-3.088976440E0,-9.133406982E0,1.057251434E0,9.699416434E0
1.616735000E-1,-3.045566711E0,-9.160650330E0,1.110390930E0,9.717302047E0
1.717525000E-1,-2.995870056E0,-9.252708893E0,1.214274902E0,9.801138852E0
1.818315000E-1,-2.899919586E0,-9.387728119E0,1.249601440E0,9.904568471E0
1.919104999E-1,-2.808010712E0,-9.482481079E0,1.151854706E0,9.956361827E0
2.019895000E-1,-2.782713318E0,-9.514215088E0,9.361532593E-1,9.956915440E0
2.120685000E-1,-2.802621918E0,-9.447603607E0,8.804690552E-1,9.893792462E0
2.221475000E-1,-2.786305847E0,-9.289532318E0,9.372010803E-1,9.743575156E0
2.322264999E-1,-2.759212189E0,-9.161398773E0,1.054107971E0,9.625779085E0
2.423055000E-1,-2.790946198E0,-9.056466980E0,1.156495056E0,9.547065290E0
2.523845000E-1,-2.958747253E0,-9.073531494E0,1.103205872E0,9.607300468E0
2.624635000E-1,-3.163521423E0,-9.180259552E0,9.377998352E-1,9.755229458E0
2.725424999E-1,-3.302582245E0,-9.285939789E0,6.834786987E-1,9.879416500E0
2.826215000E-1,-3.397784271E0,-9.304800568E0,5.439688110E-1,9.920693203E0
2.927005000E-1,-3.412603455E0,-9.299561462E0,6.224057007E-1,9.925477046E0
3.027795000E-1,-3.334765320E0,-9.319170685E0,7.596702576E-1,9.926968364E0
3.128584999E-1,-3.220103760E0,-9.351503448E0,8.494834900E-1,9.926797428E0
3.229375000E-1,-3.054398346E0,-9.377998352E0,8.997789001E-1,9.903827766E0
3.330165000E-1,-2.873125305E0,-9.362281036E0,9.306147766E-1,9.837336992E0
3.430955000E-1,-2.696791992E0,-9.319020996E0,9.027726746E-1,9.743297074E0
3.531744999E-1,-2.553988953E0,-9.244326324E0,8.458909607E-1,9.627874131E0
3.632535000E-1,-2.421514435E0,-9.172475739E0,8.192463684E-1,9.522038014E0
3.733325000E-1,-2.378553772E0,-9.161847839E0,8.095166016E-1,9.500120578E0
3.834115000E-1,-2.456840973E0,-9.170978851E0,8.110134888E-1,9.528938217E0
3.934904999E-1,-2.660417633E0,-9.161548462E0,8.702902222E-1,9.579624067E0
4.035695000E-1,-2.887345734E0,-9.192084961E0,9.660910034E-1,9.683208308E0
4.136485000E-1,-3.000360718E0,-9.270222473E0,1.059796143E0,9.801140597E0
4.237275000E-1,-3.003204803E0,-9.328750763E0,1.130149841E0,9.865194806E0
4.338064999E-1,-2.961591339E0,-9.304800568E0,1.162033539E0,9.833649313E0
4.438855000E-1,-2.970572662E0,-9.260043640E0,1.089733887E0,9.785715615E0
4.539645000E-1,-3.007845154E0,-9.216334534E0,9.547146606E-1,9.741634092E0
4.640435000E-1,-3.088527374E0,-9.177565155E0,8.554710388E-1,9.721035655E0
4.741225000E-1,-3.168012085E0,-9.120833130E0,7.900570679E-1,9.687625495E0
4.842015000E-1,-3.227588196E0,-9.095984802E0,7.831713867E-1,9.683368345E0
4.942805000E-1,-3.281476135E0,-9.150621185E0,8.114625549E-1,9.755020512E0
5.043595000E-1,-3.337759094E0,-9.217681732E0,8.147557068E-1,9.837180447E0
5.144385000E-1,-3.429218903E0,-9.248068542E0,7.949967957E-1,9.895369319E0
5.245175000E-1,-3.460204468E0,-9.222022705E0,8.190966797E-1,9.883806812E0
5.345965000E-1,-3.366499329E0,-9.158704376E0,9.166937256E-1,9.800791344E0
5.446755000E-1,-3.239563293E0,-9.080866241E0,1.029708710E0,9.696246802E0
5.547545000E-1,-3.096760254E0,-9.021439819E0,1.127455444E0,9.604553934E0
5.648335000E-1,-2.939138031E0,-9.047186279E0,1.200952606E0,9.588138459E0
5.749125000E-1,-2.828518066E0,-9.204509125E0,1.229543152E0,9.707485722E0
5.849915000E-1,-2.808010712E0,-9.335337067E0,1.190025330E0,9.820875857E0
5.950705000E-1,-2.830464020E0,-9.384285278E0,1.029559021E0,9.855776404E0
6.051495000E-1,-2.829266510E0,-9.302555237E0,7.655081177E-1,9.753373037E0
6.152285000E-1,-2.795287170E0,-9.244026947E0,5.294490051E-1,9.671917122E0
6.253075000E-1,-2.849025421E0,-9.106912079E0,3.710783386E-1,9.549371319E0
6.353865000E-1,-2.971919861E0,-8.949738922E0,4.177812195E-1,9.439527296E0
6.454655000E-1,-3.085383911E0,-8.777447205E0,6.138734436E-1,9.324162907E0
6.555445000E-1,-3.153941345E0,-8.538244629E0,8.888516235E-1,9.145437363E0
6.656235000E-1,-3.207080841E0,-8.337961121E0,1.261726227E0,9.022134794E0
6.757025000E-1,-3.373684387E0,-8.302185516E0,1.679208069E0,9.117443196E0
6.857815000E-1,-3.622467041E0,-8.481063538E0,2.015259247E0,9.439913984E0
6.958605000E-1,-3.973636780E0,-8.798703003E0,2.234403534E0,9.909567243E0
7.059395000E-1,-4.324956207E0,-9.048832855E0,2.347268829E0,1.030030549E1
7.160185000E-1,-4.649631042E0,-9.175768890E0,2.395318909E0,1.056178755E1
7.260975000E-1,-4.989125061E0,-9.217981110E0,2.423610077E0,1.075808675E1
7.361765000E-1,-5.190007324E0,-9.140442352E0,2.273771667E0,1.075425032E1
7.462545000E-1,-5.238207092E0,-8.930578766E0,1.982477417E0,1.054154957E1
7.563335000E-1,-5.181774445E0,-8.714577942E0,1.647474060E0,1.027174892E1
7.664124999E-1,-4.962779846E0,-8.637488251E0,1.302740936E0,1.004651786E1
7.764915000E-1,-4.688101044E0,-8.821455688E0,9.580078125E-1,1.003564402E1
7.865705000E-1,-4.374054108E0,-9.083710327E0,7.306306458E-1,1.010841055E1
7.966495000E-1,-3.895499268E0,-9.203610992E0,5.980064392E-1,1.001194195E1
8.067284999E-1,-3.485651550E0,-9.168284454E0,5.752537537E-1,9.825381593E0
8.168075000E-1,-3.268153839E0,-8.976084137E0,7.319778442E-1,9.580537955E0
8.268865000E-1,-3.283871155E0,-8.781788177E0,1.052461395E0,9.434579394E0
8.369655000E-1,-3.592529297E0,-8.619076538E0,1.458716583E0,9.451063495E0
8.470444999E-1,-3.840563507E0,-8.526119843E0,1.702260132E0,9.504858609E0
8.571235000E-1,-3.966152344E0,-8.457263031E0,1.739981689E0,9.501747138E0
8.672025000E-1,-4.085454254E0,-8.428073730E0,1.613494720E0,9.504037483E0
8.772815000E-1,-4.186643829E0,-8.414601746E0,1.361568604E0,9.496703541E0
8.873604999E-1,-4.170327759E0,-8.383915558E0,1.127754822E0,9.431516561E0
8.974395000E-1,-4.115541687E0,-8.450077972E0,9.827064514E-1,9.450249366E0
9.075185000E-1,-3.994443512E0,-8.668324127E0,9.252259827E-1,9.589132665E0
9.175975000E-1,-3.838168488E0,-8.785231018E0,9.138496399E-1,9.630521406E0
9.276764999E-1,-3.805686035E0,-8.831335144E0,1.011147308E0,9.669443909E0
9.377555000E-1,-3.847000122E0,-8.805438995E0,1.072220306E0,9.668754947E0
9.478345000E-1,-3.907474365E0,-8.720116425E0,1.126707001E0,9.621759456E0
9.579135000E-1,-3.935615845E0,-8.628357239E0,1.143172760E0,9.552196851E0
9.679924999E-1,-3.998036041E0,-8.593330078E0,1.078507233E0,9.539014198E0
9.780715000E-1,-4.107009430E0,-8.599467316E0,9.015751648E-1,9.572418835E0
9.881505000E-1,-4.288731537E0,-8.715176697E0,6.566844177E-1,9.735438227E0
9.982295000E-1,-4.380341034E0,-8.860374756E0,3.685336304E-1,9.890876878E0
1.008308500E0,-4.378245392E0,-9.075776825E0,-3.592529297E-2,1.007670821E1
1.018387500E0,-4.163891144E0,-9.156608734E0,-5.460644531E-1,1.007371130E1
1.028466500E0,-3.915258179E0,-9.064699860E0,-1.019679565E0,9.926619594E0
1.038545500E0,-3.917054443E0,-9.007069702E0,-1.231638794E0,9.898866311E0
1.048624500E0,-4.201313324E0,-8.925189972E0,-1.141226807E0,9.930380069E0
1.058703500E0,-4.766837311E0,-8.788075104E0,-8.006849670E-1,1.002966093E1
1.068782500E0,-5.481151886E0,-8.737330627E0,-1.440005493E-1,1.031526581E1
1.078861500E0,-6.018684082E0,-8.797655182E0,7.497908020E-1,1.068576067E1
1.088940500E0,-6.328240356E0,-8.793314209E0,1.543889465E0,1.094315290E1
1.099019458E0,-6.478078766E0,-8.763077087E0,2.095791779E0,1.109726848E1
1.109098458E0,-6.543642426E0,-8.857979736E0,2.317780151E0,1.125411774E1
1.119177458E0,-6.616241455E0,-9.181307373E0,2.171833649E0,1.152336398E1
1.129256458E0,-6.853049011E0,-9.802515564E0,1.643282776E0,1.207286090E1
1.139335458E0,-7.234306183E0,-1.061427750E1,8.062234497E-1,1.287043391E1
1.149414458E0,-7.630532227E0,-1.134460876E1,-4.833448792E-1,1.368059912E1
1.159493458E0,-8.057145081E0,-1.190743835E1,-2.101030884E0,1.452993482E1
1.169572458E0,-8.481662292E0,-1.226534409E1,-3.438050537E0,1.530351111E1
1.179651458E0,-8.749754791E0,-1.234138596E1,-4.031117249E0,1.565624229E1
1.189730458E0,-8.726553040E0,-1.206565933E1,-3.717818756E0,1.534780243E1
1.199809458E0,-8.260721741E0,-1.144175674E1,-2.549498291E0,1.434061584E1
1.209888458E0,-7.582482147E0,-1.065634003E1,-1.563798065E0,1.317182913E1
1.219967458E0,-6.828500061E0,-9.973460083E0,-1.547781372E0,1.218580922E1
1.230046458E0,-6.038442993E0,-9.683063965E0,-1.987117767E0,1.158331380E1
1.240125458E0,-5.233566742E0,-9.938881989E0,-2.155068512E0,1.143747858E1
1.250204458E0,-4.709955597E0,-1.045590683E1,-1.998344421E0,1.164057773E1
1.260283458E0,-4.176315308E0,-1.067654800E1,-1.587748260E0,1.157373023E1
1.270362458E0,-3.492686920E0,-1.062280975E1,-4.870870972E-1,1.119286392E1
1.280441458E0,-2.980003052E0,-1.069301376E1,6.475534058E-1,1.111936540E1
1.290520458E0,-2.546803894E0,-1.055440201E1,1.345102844E0,1.094033425E1
1.300599458E0,-2.168241119E0,-1.027807663E1,2.237097931E0,1.073986666E1
1.310678458E0,-2.116598511E0,-1.012434631E1,2.817291412E0,1.072005170E1
1.320757458E0,-2.408641205E0,-1.096784225E1,2.270179138E0,1.145638815E1
1.330836458E0,-3.130290527E0,-1.233599716E1,7.387138367E-1,1.274838197E1
1.340915458E0,-3.503763885E0,-1.283221527E1,-1.393601990E-1,1.330268888E1
1.350993458E0,-2.974015503E0,-1.234722382E1,-1.583706665E-1,1.270133007E1
1.361072458E0,-2.937641144E0,-1.147483795E1,3.592529297E-2,1.184495387E1
1.371151458E0,-3.278033295E0,-1.045396088E1,1.136436768E0,1.101463975E1
1.381230458E0,-3.967798920E0,-9.713750153E0,1.106049957E0,1.055100549E1
1.391309458E0,-4.680766296E0,-9.141340485E0,-2.730322266E-1,1.027366661E1
1.401388458E0,-5.076992340E0,-8.135581970E0,-1.450334015E0,9.698815081E0
1.411467458E0,-5.206173706E0,-6.971602478E0,-9.428892517E-1,8.751944122E0
1.421546458E0,-5.042264557E0,-5.983656921E0,7.469467163E-2,7.825225959E0
1.431625458E0,-4.829107819E0,-5.200485535E0,7.960446167E-1,7.141359755E0
1.441704458E0,-4.444407806E0,-4.593647461E0,7.397616577E-1,6.434407902E0
1.451783458E0,-4.030518494E0,-4.277504883E0,7.259902954E-1,5.921924456E0
1.461862458E0,-3.456162872E0,-4.098477173E0,8.077203369E-1,5.421714588E0
1.471941458E0,-2.827170868E0,-3.977079620E0,1.033001862E0,4.987699898E0
1.482020458E0,-2.292482758E0,-4.004921722E0,1.056203613E0,4.733966758E0
1.492099458E0,-1.977837067E0,-4.014801178E0,1.006506958E0,4.587322118E0
1.502178458E0,-1.540147247E0,-4.281247101E0,8.107141113E-1,4.621513567E0
1.512257458E0,-9.285191345E-1,-4.474794617E0,5.884263611E-1,4.607838998E0
1.522336458E0,-3.338058472E-1,-4.572691040E0,5.661227417E-1,4.619677981E0
1.532415458E0,-3.592529297E-2,-4.645140381E0,7.253915405E-1,4.701575552E0
1.542494458E0,-6.735992432E-3,-4.624633026E0,1.002615051E0,4.732072795E0
1.552573458E0,-3.814068604E-1,-4.940326538E0,1.001567230E0,5.055238314E0
1.562652458E0,-1.088985443E0,-5.623954926E0,6.843768311E-1,5.769153313E0
1.572731458E0,-1.898202667E0,-6.572232971E0,-4.715194702E-2,6.841026451E0
1.582810458E0,-2.762056274E0,-7.557035065E0,-1.692081299E0,8.221975003E0
1.592889458E0,-3.745511169E0,-8.578211517E0,-5.701942749E0,1.096023348E1
1.602968458E0,-6.259233856E0,-9.963580627E0,-9.829309845E0,1.533187136E1
1.613047458E0,-9.071735229E0,-1.132709518E1,-1.095811249E1,1.818460048E1
1.623126458E0,-1.146001877E1,-1.258627670E1,-1.217104019E1,2.092559702E1
1.633205458E0,-1.386851028E1,-1.336660400E1,-1.318592972E1,2.334245965E1
1.643284458E0,-1.492007355E1,-1.320793396E1,-1.206326431E1,2.329335656E1
1.653363458E0,-1.310659470E1,-1.202494400E1,-9.934840393E0,2.037358968E1
1.663442458E0,-8.953032074E0,-1.085707260E1,-8.223149872E0,1.629886507E1
1.673521458E0,-6.241271210E0,-1.065888474E1,-6.414161682E0,1.391785760E1
1.683600458E0,-4.706961823E0,-1.080303497E1,-3.936513977E0,1.242405717E1
1.693679458E0,-3.813918915E0,-1.055440201E1,-2.042352905E0,1.140669034E1
1.703758458E0,-3.131038971E0,-9.674531708E0,-8.901988220E-1,1.020746897E1
1.713837458E0,-2.815944214E0,-8.440198517E0,-2.429447937E-1,8.900871586E0
1.723916458E0,-2.753524017E0,-7.402556305E0,5.056484985E-1,7.914253898E0
1.733995458E0,-2.875220947E0,-7.481142883E0,1.167422333E0,8.099214112E0
1.744074458E0,-3.495680695E0,-8.441845093E0,1.617686005E0,9.279086167E0
1.754153458E0,-4.489015045E0,-9.641300812E0,1.483415222E0,1.073808447E1
1.764232458E0,-5.431305542E0,-1.064945435E1,4.733157349E-1,1.196386165E1
1.774311458E0,-6.212980042E0,-1.087608307E1,-1.300944672E0,1.259296474E1
1.784390458E0,-6.439309387E0,-9.832453308E0,-2.220482483E0,1.196128697E1
1.794469458E0,-5.589825897E0,-8.504714355E0,-1.256636810E0,1.025453343E1
1.804548458E0,-4.064348145E0,-7.863447876E0,8.102650452E-1,8.888715755E0
1.814627458E0,-2.716700592E0,-7.541317749E0,2.116299133E0,8.290395498E0
1.824706458E0,-1.649420013E0,-7.424859924E0,2.032922516E0,7.872858771E0
1.834785458E0,-1.032253418E0,-7.648494873E0,1.981130219E0,7.968054837E0
1.844864458E0,-7.767347717E-1,-7.957901459E0,2.423310699E0,8.354875659E0
1.854943458E0,-7.357200623E-1,-8.208929443E0,2.943179626E0,8.751577739E0
1.865022458E0,-1.110241241E0,-8.590785370E0,3.067870331E0,9.189453588E0
1.875101458E0,-2.001038818E0,-9.160500641E0,2.881657562E0,9.809326106E0
1.885180458E0,-3.263363800E0,-9.635762329E0,2.426603851E0,1.045876977E1
1.895258458E0,-4.405339050E0,-9.711504822E0,1.949845276E0,1.084076725E1
1.905337458E0,-5.173840942E0,-9.430539093E0,1.626966705E0,1.087891163E1
1.915416458E0,-5.754932556E0,-9.109905853E0,1.396446075E0,1.086552783E1
1.925495458E0,-6.374194794E0,-8.865613861E0,1.085542603E0,1.097305204E1
1.935574458E0,-6.724167023E0,-8.521180115E0,8.674461365E-1,1.088932484E1
1.945653458E0,-6.739135895E0,-8.102201385E0,7.605683899E-1,1.056598714E1
1.955732458E0,-6.529272308E0,-7.688012695E0,4.920268250E-1,1.009846654E1
1.965811458E0,-6.340365143E0,-7.333100739E0,1.104702759E-1,9.694678967E0
1.975890458E0,-6.240223389E0,-7.010222168E0,-4.224215698E-1,9.394788064E0
1.985969458E0,-6.249953156E0,-7.064259796E0,-6.833290100E-1,9.456882121E0
1.996048458E0,-6.196813660E0,-7.322472839E0,-1.428030396E-1,9.593721943E0
2.006127458E0,-5.882617035E0,-7.621251526E0,7.529342651E-2,9.627789315E0
2.016206458E0,-5.443580017E0,-7.859256592E0,8.098159790E-2,9.560702673E0
2.026285458E0,-5.091362457E0,-7.921676788E0,-3.442840576E-3,9.416737581E0
2.036364458E0,-4.822820892E0,-7.952662354E0,-1.007405090E-1,9.301321869E0
2.046443458E0,-4.572691040E0,-7.989635468E0,-1.534309387E-1,9.206916927E0
2.056522458E0,-4.558021545E0,-8.084538116E0,-1.781295776E-2,9.280928524E0
2.066601458E0,-4.771178284E0,-8.113428040E0,2.022294617E-1,9.414496987E0
2.076680458E0,-5.018314362E0,-8.037685547E0,5.590873718E-1,9.492125509E0
2.086759458E0,-5.341791687E0,-7.954608307E0,1.007554779E0,9.634609404E0
2.096838458E0,-5.587131500E0,-7.874824219E0,1.399140472E0,9.756356335E0
2.106917958E0,-5.627697144E0,-7.768545227E0,1.542841644E0,9.716050145E0
2.116996958E0,-5.487438812E0,-7.655530243E0,1.486708374E0,9.535692414E0
2.127075958E0,-5.201233978E0,-7.583979034E0,1.321452026E0,9.290630137E0
2.137154958E0,-4.902604980E0,-7.570507050E0,1.139430542E0,9.091007345E0
2.147233958E0,-4.717889099E0,-7.680677948E0,9.168434143E-1,9.060457667E0
2.157312958E0,-4.671635284E0,-7.884404297E0,6.436614990E-1,9.187072846E0
2.167391958E0,-4.625531158E0,-8.180787964E0,3.258723450E-1,9.403564377E0
2.177470958E0,-4.664300537E0,-8.586893463E0,5.643264771E-2,9.772083887E0
2.187549958E0,-4.838089142E0,-8.970395966E0,-1.492396545E-1,1.019300656E1
2.197628958E0,-5.117707672E0,-9.253906403E0,-3.402424622E-1,1.058024009E1
2.207707958E0,-5.410648499E0,-9.397158508E0,-5.539979553E-1,1.085765255E1
2.217786958E0,-5.595065002E0,-9.260043640E0,-7.713459778E-1,1.084657251E1
2.227865958E0,-5.585335236E0,-8.890013123E0,-9.427395630E-1,1.054120775E1
2.237944958E0,-5.567971344E0,-8.511749725E0,-9.107061768E-1,1.021183500E1
2.248023958E0,-5.686674500E0,-8.271050262E0,-5.795947266E-1,1.005407725E1
2.258102958E0,-6.002368011E0,-8.123008118E0,5.553451538E-2,1.010023597E1
2.268181958E0,-6.368356934E0,-7.942633209E0,9.045689392E-1,1.022054976E1
2.278260958E0,-6.593488770E0,-7.729326782E0,1.870809631E0,1.033036860E1
2.288339958E0,-6.755901031E0,-7.612270203E0,2.601889343E0,1.050517418E1
2.298418958E0,-6.976392517E0,-7.764952698E0,3.123105469E0,1.089579418E1
2.308497958E0,-7.247778168E0,-8.088879089E0,3.457360382E0,1.139796447E1
2.318576958E0,-7.489375763E0,-8.434510345E0,3.376378784E0,1.177419415E1
2.328655958E0,-7.660170593E0,-8.755892029E0,2.955454102E0,1.200327321E1
2.338734958E0,-7.762258301E0,-9.006321259E0,2.455044708E0,1.214058158E1
2.348813958E0,-7.904163208E0,-9.249116364E0,1.777852936E0,1.229563787E1
2.358892958E0,-8.049510956E0,-9.329499207E0,6.783892822E-1,1.234076149E1
2.368971958E0,-8.096513214E0,-9.282496948E0,-5.514532471E-1,1.232973546E1
2.379050958E0,-8.047864380E0,-9.308393097E0,-1.483564911E0,1.239416266E1
2.389128958E0,-7.904911652E0,-9.497749329E0,-1.763183441E0,1.248213469E1
2.399207958E0,-7.638465729E0,-9.785451050E0,-1.955234070E0,1.256678762E1
2.409286958E0,-7.296127625E0,-1.002794678E1,-2.311642914E0,1.261494700E1
2.419365958E0,-7.065307617E0,-1.011042526E1,-2.469265137E0,1.257921067E1
2.429444958E0,-7.046147461E0,-1.003857468E1,-2.614014130E0,1.254010548E1
2.439523958E0,-6.625971222E0,-9.930798798E0,-3.221600647E0,1.236539405E1
2.449602958E0,-5.790109406E0,-9.758207703E0,-3.541036377E0,1.188641759E1
2.459681958E0,-4.858746185E0,-9.662107544E0,-3.058589630E0,1.123915954E1
2.469760958E0,-4.150269470E0,-9.821526031E0,-2.302212524E0,1.090812966E1
2.479839958E0,-4.224365387E0,-1.012374756E1,-1.668729858E0,1.109595363E1
2.489918958E0,-4.514013062E0,-1.039483383E1,2.097138977E-1,1.133458708E1
2.499997958E0,-4.582570496E0,-1.088566315E1,2.868784332E0,1.215432178E1
2.510076958E0,-4.541555786E0,-1.131437164E1,4.122577057E0,1.286997965E1
2.520155958E0,-4.324656830E0,-1.166778671E1,4.271966400E0,1.315635209E1
2.530234958E0,-4.007167053E0,-1.200892731E1,3.780089264E0,1.321214584E1
2.540313958E0,-3.881727905E0,-1.248508713E1,2.479593658E0,1.330765181E1
2.550392958E0,-3.937861176E0,-1.301633240E1,1.365161133E-1,1.359964324E1
2.560471958E0,-3.936364288E0,-1.323472824E1,-2.344724121E0,1.400538206E1
2.570550958E0,-3.757037201E0,-1.292232788E1,-3.723955994E0,1.396315633E1
2.580629958E0,-3.390299835E0,-1.224723175E1,-3.188369751E0,1.310169913E1
2.590708958E0,-3.119512939E0,-1.137873779E1,-1.363514557E0,1.187712956E1
2.600787958E0,-3.494632874E0,-1.040022263E1,4.676275635E-1,1.098161032E1
2.610866958E0,-4.082610168E0,-9.602531433E0,9.548643494E-1,1.047798080E1
2.620945958E0,-4.232149200E0,-9.213340759E0,1.429527283E0,1.023915441E1
2.631024958E0,-4.614005127E0,-8.432414703E0,2.836750946E0,1.002206650E1
2.641103958E0,-5.414989471E0,-7.672445068E0,2.478695526E0,9.712489682E0
2.651182958E0,-5.502257996E0,-6.610852661E0,1.911075897E0,8.810813075E0
2.661261958E0,-4.901706848E0,-5.601052551E0,9.455836487E-1,7.502842671E0
2.671340958E0,-4.046684875E0,-4.740641785E0,4.525090027E-1,6.249328557E0
2.681419958E0,-3.320993958E0,-4.130510559E0,5.533992004E-1,5.328824356E0
2.691498958E0,-2.796035614E0,-3.934568024E0,8.017327881E-1,4.892996643E0
2.701577958E0,-2.429897003E0,-4.035907288E0,7.949967957E-1,4.777548219E0
2.711656958E0,-2.155966644E0,-4.184099121E0,7.945477295E-1,4.773487585E0
2.721735958E0,-1.951342163E0,-4.510719910E0,8.607101440E-1,4.989504213E0
2.731814958E0,-1.592089233E0,-4.828658752E0,1.048569489E0,5.191357380E0
2.741893958E0,-9.668394470E-1,-5.004692688E0,1.185384979E0,5.233246121E0
2.751972958E0,-6.709048462E-1,-5.018464050E0,1.169517975E0,5.196428295E0
2.762051958E0,-6.264472961E-1,-4.761448517E0,1.091530151E0,4.924963580E0
2.772130958E0,-6.948550415E-1,-4.671934662E0,8.975335693E-1,4.807843958E0
2.782209958E0,-1.144519958E0,-4.911137238E0,8.717871094E-1,5.117539220E0
2.792288958E0,-2.085762634E0,-5.506748657E0,7.842192078E-1,5.940512293E0
2.802367958E0,-3.624562683E0,-6.474037170E0,-3.903881836E-1,7.429873139E0
2.812446958E0,-6.063890076E0,-7.794441376E0,-4.306095428E0,1.077341808E1
2.822525958E0,-9.071435852E0,-9.088051300E0,-8.841513977E0,1.559025318E1
2.832604958E0,-1.114731903E1,-1.055095917E1,-1.020742355E1,1.843303981E1
2.842683958E0,-1.274749146E1,-1.222552689E1,-1.130224686E1,2.096909226E1
2.852762958E0,-1.451756058E1,-1.365191071E1,-1.459405151E1,2.470061883E1
2.862840958E0,-1.406130936E1,-1.330777634E1,-1.584365295E1,2.501676779E1
2.872919958E0,-1.002869522E1,-1.056203613E1,-1.110585526E1,1.831587716E1
2.882998958E0,-7.541916504E0,-8.491691437E0,-5.154231720E0,1.247218636E1
2.893077958E0,-5.965843964E0,-8.175249481E0,9.111552429E-1,1.016150590E1
2.903156958E0,-4.339176636E0,-8.624615021E0,4.019291840E0,1.045787479E1
2.913235958E0,-3.531755676E0,-8.995992737E0,5.143903198E0,1.094810137E1
2.923314958E0,-3.771107941E0,-9.662556610E0,5.456453247E0,1.172003146E1
2.933393958E0,-4.355941772E0,-1.048509613E1,4.902455292E0,1.236711516E1
2.943472958E0,-4.487667847E0,-1.126647125E1,3.808979187E0,1.271144601E1
2.953551958E0,-3.762126617E0,-1.100930603E1,2.587668915E0,1.191865959E1
2.963630958E0,-2.527044983E0,-9.357790375E0,1.089733887E0,9.754061564E0
2.973709958E0,-1.409169617E0,-7.891739044E0,5.080435181E-1,8.032646660E0
2.983788958E0,-8.298742676E-1,-7.145391083E0,4.860392761E-1,7.209822411E0
2.993867958E0,-7.191046143E-1,-7.116351471E0,2.948867798E-1,7.158668027E0
3.003946958E0,-1.189426575E0,-7.691455536E0,-1.275347900E-1,7.783925036E0
3.014025958E0,-2.215243378E0,-8.312813416E0,-4.141886902E-1,8.612881189E0
3.024104958E0,-3.172652435E0,-8.715476074E0,-4.559518433E-1,9.286179987E0
3.034183958E0,-4.200415192E0,-9.428144073E0,-5.525010681E-1,1.033627814E1
3.044262958E0,-5.229674835E0,-1.019784348E1,-5.049000549E-1,1.147172326E1
3.054341958E0,-6.005960541E0,-1.043016037E1,-1.329235840E-1,1.203650597E1
3.064420958E0,-6.471193085E0,-1.014530273E1,3.676354980E-1,1.203904744E1
3.074499958E0,-6.780150604E0,-9.571545868E0,9.313632202E-1,1.176657852E1
3.084578958E0,-7.024891663E0,-9.137149200E0,1.371448059E0,1.160678544E1
3.094657958E0,-7.093000031E0,-8.545878754E0,1.808539124E0,1.125226674E1
3.104738125E0,-7.100484467E0,-7.834258575E0,1.978735199E0,1.075675974E1
3.114817125E0,-7.003186798E0,-7.295977936E0,1.729952545E0,1.026005142E1
3.124896125E0,-6.888375549E0,-7.032076721E0,1.234632568E0,9.920894027E0
3.134975125E0,-6.659950562E0,-6.997049561E0,5.436694336E-1,9.675185812E0
3.145054125E0,-6.258635101E0,-7.105573883E0,-2.318678284E-1,9.471718758E0
3.155133125E0,-5.762117615E0,-7.454198914E0,-9.090596008E-1,9.465382729E0
3.165212125E0,-5.263803864E0,-7.823780365E0,-1.393152924E0,9.532053576E0
3.175291125E0,-4.785099335E0,-8.036338348E0,-1.565444641E0,9.483170705E0
3.185370125E0,-4.402494965E0,-8.154592438E0,-1.560804291E0,9.397630008E0
3.195449125E0,-4.224964142E0,-8.318351898E0,-1.430575104E0,9.438847675E0
3.205528125E0,-4.190386047E0,-8.539591827E0,-1.174906769E0,9.584590222E0
3.215607125E0,-4.250710602E0,-8.773255920E0,-9.089099121E-1,9.791050878E0
3.225686125E0,-4.420756989E0,-9.043593750E0,-7.077282715E-1,1.009111290E1
3.235765125E0,-4.690945129E0,-9.353449402E0,-7.078779602E-1,1.048775825E1
3.245844125E0,-5.006638641E0,-9.397457886E0,-8.794212341E-1,1.068419519E1
3.255923125E0,-5.262456665E0,-8.979377289E0,-1.229094086E0,1.048014021E1
3.266002125E0,-5.609884186E0,-8.499475250E0,-1.828298035E0,1.034671705E1
3.276080125E0,-5.962101746E0,-7.925568695E0,-2.532882843E0,1.023605353E1
3.286160125E0,-6.301745453E0,-7.155120850E0,-3.237467651E0,1.006920786E1
3.296238125E0,-6.807094574E0,-6.306984558E0,-4.218677216E0,1.019371513E1
3.306317125E0,-8.217312012E0,-5.604046326E0,-6.789730682E0,1.204283997E1
3.316396125E0,-9.080566864E0,-5.181325378E0,-7.875572662E0,1.308921205E1
3.326475125E0,-8.418493652E0,-4.835694122E0,-6.699767761E0,1.179584084E1
3.336554125E0,-7.840994568E0,-4.359534302E0,-5.496270447E0,1.052120354E1
3.346633125E0,-7.234904938E0,-3.841461639E0,-4.903353424E0,9.546913207E0
3.356712125E0,-5.672903137E0,-3.780538330E0,-3.573668518E0,7.697103790E0
3.366791125E0,-3.284769287E0,-4.003275146E0,-1.520088959E0,5.396905744E0
3.376870125E0,-2.312091980E0,-3.796105957E0,-1.571731567E-2,4.444821346E0
3.386949125E0,-2.094145203E0,-3.530408478E0,1.495989075E0,4.368891331E0
3.397028125E0,-2.151026917E0,-3.894900513E0,2.433190155E0,5.071250450E0
3.407107125E0,-2.639012146E0,-4.278253326E0,3.065774689E0,5.887852841E0
3.417186125E0,-3.156635742E0,-4.651427307E0,3.191213837E0,6.464052208E0
3.427265125E0,-3.878883820E0,-5.122497711E0,1.796114960E0,6.671712781E0
3.437344125E0,-5.914500732E0,-6.110293579E0,-3.078348541E0,9.043961316E0
3.447423125E0,-8.941206665E0,-7.018305359E0,-1.116722763E1,1.593451473E1
3.457502125E0,-1.009919861E1,-7.897427216E0,-1.475571533E1,1.954723265E1
3.467581125E0,-9.813143463E0,-7.788902893E0,-7.465874634E0,1.458437784E1
3.477660125E0,-9.733359375E0,-7.262148285E0,-2.365081787E-2,1.214403729E1
3.487739125E0,-9.627080383E0,-7.071145477E0,1.188678131E0,1.200394647E1
3.497818125E0,-9.681118011E0,-7.477101288E0,-1.181792450E0,1.228933371E1
3.507897125E0,-8.305628357E0,-8.748257904E0,-3.896547089E0,1.267669350E1
3.517976125E0,-6.797664185E0,-1.112980545E1,-4.637057190E0,1.384135496E1
3.528055125E0,-6.467301178E0,-1.415321823E1,-2.677033081E0,1.578942928E1
3.538134125E0,-7.298372955E0,-1.767988449E1,-1.977388000E-1,1.912808574E1
3.548213125E0,-8.671766968E0,-2.101734421E1,1.700164490E0,2.279953638E1
3.558292125E0,-9.989476776E0,-2.395857788E1,3.082240448E0,2.614007090E1
3.568371125E0,-1.101484451E1,-2.631018768E1,3.870201874E0,2.878421856E1
3.578450125E0,-1.187570435E1,-2.831556747E1,4.059558105E0,3.097230581E1
3.588529125E0,-1.197554672E1,-2.958268250E1,3.524570618E0,3.210874368E1
3.598608125E0,-1.097098572E1,-2.962235001E1,2.435136108E0,3.168242471E1
3.608687125E0,-9.243428192E0,-2.792757431E1,1.032852173E-2,2.941751992E1
3.618766125E0,-8.246201935E0,-2.497496429E1,-4.432881775E0,2.667206645E1
3.628845125E0,-8.083639984E0,-2.122556122E1,-9.846823425E0,2.475539569E1
3.638924125E0,-8.549171906E0,-1.600127518E1,-1.476170288E1,2.338882253E1
3.649003125E0,-8.684191132E0,-1.136721176E1,-1.309851151E1,1.939586767E1
3.659082125E0,-6.149362335E0,-8.119116211E0,-8.830437012E0,1.348003424E1
3.669161125E0,-3.027753754E0,-5.289700012E0,-6.194418640E0,8.690169233E0
3.679240125E0,-1.783541107E0,-3.427422638E0,-5.715115356E0,6.898607712E0
3.689319125E0,-1.658251648E0,-2.382445679E0,-4.902754669E0,5.697617861E0
3.699398125E0,-1.625320129E0,-1.886676636E0,-1.598376160E0,2.959057383E0
3.709476125E0,-1.360221405E0,-1.149309998E0,9.107061768E-1,2.000125366E0
3.719555125E0,-1.221909027E0,-1.428030396E-1,1.485510864E0,1.928781197E0
3.729634125E0,-9.621990967E-1,7.981402588E-1,1.477876740E0,1.935710369E0
3.739713125E0,-5.860313416E-1,1.290915527E0,2.327809296E0,2.725544303E0
3.749792125E0,-4.330494690E-1,1.512305145E0,2.661465454E0,3.091601051E0
3.759871125E0,-2.344125366E-1,1.851649475E0,2.208956451E0,2.891892740E0
3.769950125E0,-3.367996216E-2,2.746788025E0,1.390458527E0,3.078855909E0
3.780029125E0,-7.484436035E-4,3.193459167E0,9.455836487E-1,3.330512040E0
3.790108125E0,-3.442840576E-3,3.116369476E0,8.659492493E-1,3.234445651E0
3.800187125E0,4.685256958E-2,3.061284027E0,8.586145020E-1,3.179760041E0
3.810266125E0,-9.250762939E-2,3.252436523E0,9.515711975E-1,3.390042587E0
3.820345125E0,-1.227447510E-1,3.356919250E0,1.215622101E0,3.572353597E0
3.830424125E0,-1.466949463E-2,3.191812592E0,1.593735809E0,3.567614980E0
3.840503125E0,1.703457642E-1,2.908302155E0,1.950893097E0,3.506169274E0
3.850582125E0,3.314108276E-1,2.554737396E0,2.007625122E0,3.266048826E0
3.860661125E0,3.694317627E-1,2.191742249E0,1.629960480E0,2.756262882E0
3.870740125E0,2.502795410E-1,1.824406128E0,9.812095642E-1,2.086592863E0
3.880819125E0,2.574645996E-2,1.449435883E0,2.525248718E-1,1.471494502E0
3.890898125E0,-3.019221497E-1,1.026265869E0,-3.764671326E-1,1.134066189E0
3.900977125E0,-5.040019226E-1,5.388793945E-1,-9.822573853E-1,1.228510688E0
3.911056125E0,-6.804849243E-1,6.945556641E-2,-1.900747375E0,2.020080294E0
3.921135125E0,-1.128503265E0,-3.881428528E-1,-3.350482635E0,3.556670969E0
3.931214125E0,-1.601519623E0,-7.723937988E-1,-4.754113770E0,5.075731969E0
3.941293125E0,-2.059567108E0,-1.258133698E0,-5.272186432E0,5.798333109E0
3.951372125E0,-2.475402374E0,-1.988015900E0,-2.934198303E0,4.323117372E0
3.961451125E0,-3.370391235E0,-3.434008942E0,3.104544067E-1,4.821652873E0
3.971530125E0,-4.399800568E0,-6.576124878E0,6.915618896E-2,7.912549907E0
3.981609125E0,-5.341192932E0,-1.392449387E1,-4.581073608E0,1.560147771E1
3.991688125E0,-7.055428162E0,-2.075314362E1,-2.512824554E0,2.206323466E1
4.001767125E0,-8.957971802E0,-2.221769806E1,3.146905975E0,2.416142345E1
4.011846125E0,-1.028900391E1,-2.399121002E1,7.244934082E0,2.709115777E1
4.021925125E0,-1.200054474E1,-2.859338974E1,8.758885803E0,3.222286597E1
4.032004125E0,-1.387599472E1,-3.351964554E1,6.732399902E0,3.689762967E1
4.042083125E0,-1.551508621E1,-3.667403595E1,1.987866211E0,3.987047059E1
4.052162125E0,-1.952883957E1,-3.728341873E1,-6.487509155E0,4.258540433E1
4.062241125E0,-2.612262772E1,-3.202709930E1,-1.808389435E1,4.511268118E1
4.072320125E0,-1.625903915E1,-2.332689148E1,-1.673669586E0,2.848335286E1
4.082398125E0,-8.568182373E0,-1.721465195E1,4.811743927E0,1.982197948E1
4.092477125E0,-5.085674286E0,-1.304791672E1,3.106490021E0,1.434442379E1
4.102555208E0,-2.794538727E0,-1.155596924E1,3.815715179E0,1.248637474E1
4.112634208E0,-8.463400269E-1,-1.074046509E1,3.845203857E0,1.143938261E1
4.122713208E0,1.219364319E0,-9.673483887E0,3.127147064E0,1.023924746E1
4.132792208E0,2.888692932E0,-8.278235321E0,2.459834747E0,9.106289797E0
4.142871208E0,3.761378174E0,-6.536756744E0,1.259929962E0,7.646213312E0
4.152950208E0,3.566034393E0,-4.703668671E0,-1.188827820E0,6.021163662E0
4.163029208E0,3.017425232E0,-2.978955231E0,-3.436853027E0,5.458112130E0
4.173108208E0,1.972597961E0,-1.382974091E0,-4.536466370E0,5.136466409E0
4.183187208E0,-2.080673218E-2,-3.311114502E-1,-3.508254547E0,3.523906594E0
4.193266208E0,-1.947300568E0,-1.028810577E0,-1.065035248E0,2.446370942E0
4.203345208E0,-3.056643677E0,-1.932631073E0,1.041833496E-1,3.617870589E0
4.213424208E0,-3.422931976E0,-2.573897552E0,6.301895142E-1,4.328804771E0
4.223503208E0,-3.306474152E0,-3.047362976E0,7.996371460E-1,4.567122944E0
4.233582208E0,-3.189716949E0,-3.231929169E0,8.437953186E-1,4.618620022E0
4.243661208E0,-3.267704773E0,-3.376229095E0,7.662565613E-1,4.760668704E0
4.253740208E0,-3.433709564E0,-3.944297791E0,4.450245667E-1,5.248418171E0
4.263819208E0,-3.601211243E0,-5.078788605E0,-4.195774841E-1,6.240101071E0
4.273898208E0,-3.846101990E0,-6.609056396E0,-1.279838562E0,7.753071244E0
4.283977208E0,-4.091741180E0,-8.165370026E0,-1.236728210E0,9.216567160E0
4.294056208E0,-4.214186554E0,-9.434580688E0,-6.063890076E-1,1.035076754E1
4.304135208E0,-4.274960175E0,-1.057790314E1,1.507365417E-1,1.141008505E1
4.314214208E0,-4.373605042E0,-1.180160843E1,7.255412292E-1,1.260685499E1
4.324293208E0,-4.678670654E0,-1.312500641E1,1.198557587E0,1.398543144E1
4.334372208E0,-5.519322510E0,-1.483415222E1,1.443897400E0,1.589338959E1
4.344451208E0,-6.858886871E0,-1.690240128E1,1.662891998E0,1.831667841E1
4.354530208E0,-8.003107452E0,-1.814706299E1,2.252815247E0,1.996098195E1
4.364609208E0,-8.438701630E0,-1.744277756E1,2.627037048E0,1.955411716E1
4.374688208E0,-7.183262329E0,-1.366987335E1,2.277663574E0,1.560937047E1
4.384767208E0,-5.294639740E0,-9.783505096E0,1.937121735E0,1.129170592E1
4.394846208E0,-3.947141876E0,-7.726931763E0,1.825304260E0,8.866630651E0
4.404925208E0,-2.655477905E0,-6.299051056E0,1.911974030E0,7.098256955E0
4.415004208E0,-1.529369659E0,-5.283562775E0,2.025587769E0,5.861570861E0
4.425083208E0,-7.544311523E-1,-4.804558868E0,2.015558624E0,5.264544506E0
4.435162208E0,-3.432362366E-1,-4.792284393E0,1.904938660E0,5.168422595E0
4.445240208E0,-3.101550293E-1,-5.537285156E0,1.722019043E0,5.807157018E0
4.455319208E0,-1.034648438E0,-7.343429260E0,1.476230164E0,7.561461908E0
4.465398208E0,-1.902693329E0,-8.951086121E0,9.987231445E-1,9.205413221E0
4.475477208E0,-2.815046082E0,-9.894424438E0,5.725593567E-1,1.030300653E1
4.485556208E0,-3.714226227E0,-1.043300446E1,3.722758484E-1,1.108068805E1
4.495635208E0,-4.433630219E0,-1.060649368E1,3.629951477E-1,1.150158905E1
4.505714208E0,-4.910987549E0,-1.050260971E1,3.832031250E-1,1.160040750E1
4.515793208E0,-5.218298492E0,-1.025936554E1,3.505709839E-1,1.151555993E1
4.525872208E0,-5.449118500E0,-1.001297791E1,2.730322266E-1,1.140294548E1
4.535951208E0,-5.576054535E0,-9.794282684E0,1.287322998E-1,1.127106603E1
4.546030208E0,-5.605992279E0,-9.581575012E0,-1.074765015E-1,1.110158909E1
4.556109208E0,-5.508844299E0,-9.303303680E0,-2.960842896E-1,1.081602934E1
4.566188208E0,-5.324727173E0,-8.879085846E0,-1.839674377E-1,1.035493742E1
4.576267208E0,-5.063220978E0,-8.557704163E0,1.501377869E-1,9.944498407E0
4.586346208E0,-4.615052948E0,-8.387208710E0,5.264552307E-1,9.587551239E0
4.596425208E0,-4.057312775E0,-8.264763336E0,9.150471497E-1,9.252319236E0
4.606504208E0,-3.601211243E0,-8.267457733E0,1.163081360E0,9.092433010E0
4.616583208E0,-3.280128937E0,-8.404273224E0,1.264869690E0,9.109936860E0
4.626662208E0,-3.181184692E0,-8.623267822E0,1.167122955E0,9.265142199E0
4.636741208E0,-3.237317963E0,-8.748257904E0,9.250762939E-1,9.373793794E0
4.646820208E0,-3.381917267E0,-8.789422302E0,6.869215393E-1,9.442625165E0
4.656899208E0,-3.609593811E0,-8.801098022E0,6.418652344E-1,9.534174577E0
4.666978208E0,-3.882626038E0,-8.749754791E0,8.165519714E-1,9.607275939E0
4.677057208E0,-4.008813629E0,-8.662486267E0,1.089584198E0,9.607104078E0
4.687136208E0,-4.074826355E0,-8.594078522E0,1.384321289E0,9.611386003E0
4.697215208E0,-4.167783051E0,-8.643176422E0,1.612147522E0,9.730053127E0
4.707294208E0,-4.243824921E0,-8.797355804E0,1.770667877E0,9.926670330E0
4.717373208E0,-4.284839630E0,-8.927135925E0,1.844314728E0,1.007249241E1
4.727452208E0,-4.234394531E0,-9.045839081E0,1.828747101E0,1.015389667E1
4.737531208E0,-4.122427368E0,-9.063352661E0,1.723366241E0,1.010488793E1
4.747610208E0,-3.958667908E0,-8.987310791E0,1.527573395E0,9.938626028E0
4.757689208E0,-3.807931366E0,-8.942553864E0,1.255139923E0,9.800254441E0
4.767768208E0,-3.618275757E0,-8.979826355E0,9.922865295E-1,9.732103235E0
4.777847208E0,-3.373684387E0,-9.080716553E0,7.756869507E-1,9.718171109E0
4.787926208E0,-3.081042938E0,-9.135203247E0,5.873785400E-1,9.658663339E0
4.798005208E0,-2.852617950E0,-9.047485657E0,3.972738647E-1,9.494853996E0
4.808083208E0,-2.790197754E0,-8.850794678E0,2.148033142E-1,9.282667203E0
4.818162208E0,-2.981799316E0,-8.774752808E0,1.767823792E-1,9.269232223E0
4.828241208E0,-3.378624115E0,-8.848549347E0,4.016148376E-1,9.480148782E0
4.838320208E0,-3.645968170E0,-8.771908722E0,7.018904114E-1,9.525340764E0
4.848399208E0,-3.734583893E0,-8.600215759E0,1.015787659E0,9.430941232E0
4.858478208E0,-3.725452881E0,-8.422684937E0,1.200204163E0,9.287685973E0
4.868557208E0,-3.791764984E0,-8.278983765E0,1.313219147E0,9.200195563E0
4.878636208E0,-3.991150360E0,-8.227041779E0,1.445843353E0,9.257643362E0
4.888715208E0,-4.270020447E0,-8.255782013E0,1.575174408E0,9.427204553E0
4.898794208E0,-4.537813568E0,-8.276588745E0,1.717977448E0,9.594014788E0
4.908873208E0,-4.757706299E0,-8.277486877E0,1.800455933E0,9.715667748E0
4.918952208E0,-5.018014984E0,-8.068671112E0,1.814975739E0,9.673575597E0
4.929031208E0,-5.392536163E0,-7.871082001E0,1.754351807E0,9.701089031E0
4.939110208E0,-5.941145325E0,-7.907606049E0,1.632056122E0,1.002452235E1
4.949189208E0,-6.462810516E0,-8.176896057E0,1.528920593E0,1.053409451E1
4.959268208E0,-6.825356598E0,-8.377029877E0,1.680704956E0,1.093548771E1
4.969347208E0,-6.952292633E0,-8.622818756E0,2.035616913E0,1.126193200E1
4.979426208E0,-6.635551300E0,-9.050329742E0,2.189197540E0,1.143379182E1
4.989505208E0,-5.566324768E0,-9.127718811E0,1.919458466E0,1.086202297E1
4.999584208E0,-4.446952515E0,-9.165140991E0,1.544787598E0,1.030347343E1
5.009663208E0,-3.775299225E0,-9.317374420E0,1.207538910E0,1.012543829E1
5.019742208E0,-3.291355591E0,-9.271419983E0,1.046174469E0,9.893772341E0
5.029821208E0,-2.710263977E0,-9.085506592E0,1.093625793E0,9.544002212E0
5.039900208E0,-2.213746490E0,-8.772357788E0,1.359323273E0,9.148917665E0
5.049979208E0,-2.097138977E0,-8.404273224E0,1.787582703E0,8.844504069E0
5.060058208E0,-2.622247009E0,-8.095764771E0,2.263892212E0,8.805838662E0
5.070137208E0,-3.437751160E0,-7.916886749E0,2.626138916E0,9.021742317E0
5.080216208E0,-4.107308807E0,-7.946974182E0,2.803520050E0,9.374652472E0
5.090295208E0,-4.576882324E0,-8.172704773E0,2.780168610E0,9.770890062E0
5.100374208E0,-4.896617432E0,-8.501271515E0,2.611619110E0,1.015229206E1
5.110452500E0,-5.164111176E0,-8.704698486E0,2.277513885E0,1.037433803E1
5.120531500E0,-5.333558807E0,-8.774004364E0,1.843266907E0,1.043204846E1
5.130610500E0,-5.413791962E0,-8.868907013E0,1.298399963E0,1.047150884E1
5.140688500E0,-5.397625580E0,-8.947044525E0,6.724017334E-1,1.047072546E1
5.150767500E0,-5.321733398E0,-9.060658264E0,-1.392105103E-2,1.050792883E1
5.160846500E0,-5.201383667E0,-9.054221649E0,-7.854167175E-1,1.047139920E1
5.170925500E0,-5.098547516E0,-8.926686859E0,-1.442101135E0,1.038077939E1
5.181004500E0,-5.189558258E0,-8.848848724E0,-1.769470367E0,1.040983497E1
5.191083500E0,-5.513933716E0,-8.983418884E0,-1.686991882E0,1.067479374E1
5.201162500E0,-5.964796143E0,-9.319470062E0,-1.295406189E0,1.114043951E1
5.211241500E0,-6.306535492E0,-9.460476837E0,-6.679110718E-1,1.138943006E1
5.221320500E0,-6.427034912E0,-9.120533752E0,1.122665405E-2,1.115755528E1
5.231399500E0,-6.562054138E0,-8.703201599E0,5.004093933E-1,1.091130983E1
5.241478500E0,-6.703060913E0,-8.399932251E0,6.135740662E-1,1.076412377E1
5.251557500E0,-6.860982513E0,-8.183182983E0,4.203259277E-1,1.068710619E1
5.261636500E0,-7.014862518E0,-8.189619598E0,5.718109131E-2,1.078338699E1
5.271715500E0,-7.326065369E0,-8.664731598E0,-1.936972046E-1,1.134840632E1
5.281794500E0,-7.619455261E0,-9.382938080E0,-1.511856079E-2,1.208701179E1
5.291873500E0,-7.906707916E0,-1.003812561E1,5.087919617E-1,1.278823151E1
5.301952500E0,-8.389903107E0,-1.044333298E1,9.493258667E-1,1.342962760E1
5.312031500E0,-8.837771759E0,-1.050320847E1,1.059646454E0,1.376758687E1
5.322110500E0,-8.970246277E0,-1.029319519E1,6.090834045E-1,1.366697363E1
5.332189500E0,-8.541986847E0,-9.882898407E0,-3.576063538E-1,1.306771221E1
5.342268500E0,-7.517816620E0,-9.373657379E0,-1.705553284E0,1.213638873E1
5.352347500E0,-6.176755371E0,-9.112600250E0,-3.705095215E0,1.161548625E1
5.362426500E0,-4.939727783E0,-9.283245392E0,-5.400769043E0,1.182149998E1
5.372505500E0,-4.096531219E0,-9.763147430E0,-5.759572906E0,1.205293723E1
5.382584500E0,-3.475173340E0,-1.023152344E1,-4.422702942E0,1.167566713E1
5.392663500E0,-3.306923218E0,-1.072774155E1,-2.446662140E0,1.148940101E1
5.402742500E0,-3.400179291E0,-1.123413849E1,-1.190025330E0,1.179759497E1
5.412821500E0,-3.714675293E0,-1.190130112E1,-1.874102783E-1,1.246895759E1
5.422900500E0,-3.894451447E0,-1.261157410E1,4.432283020E-1,1.320662730E1
5.432979500E0,-3.641776886E0,-1.299313065E1,1.491049347E0,1.357597919E1
5.443058500E0,-2.947819977E0,-1.304357574E1,2.228565674E0,1.355695452E1
5.453137500E0,-2.278861084E0,-1.280931290E1,2.697690125E0,1.328718318E1
5.463215500E0,-1.851200409E0,-1.275961624E1,3.174598389E0,1.327828394E1
5.473294500E0,-1.759291534E0,-1.289253983E1,3.113675079E0,1.337937451E1
5.483373500E0,-1.973795471E0,-1.295555878E1,2.310595093E0,1.330718684E1
5.493452500E0,-2.427052917E0,-1.241757751E1,1.016685791E0,1.269332373E1
5.503531500E0,-3.196452942E0,-1.134939880E1,-2.978805542E-2,1.179097332E1
5.513610500E0,-3.998185730E0,-1.021565643E1,-3.761677551E-1,1.097664009E1
5.523689500E0,-4.594395905E0,-9.240733795E0,-3.008743286E-1,1.032425107E1
5.533768500E0,-5.301375732E0,-8.443341980E0,-4.924758911E-1,9.981840559E0
5.543847500E0,-5.655838623E0,-7.697742462E0,-2.008822632E-1,9.554271465E0
5.553926500E0,-5.248984680E0,-6.984924774E0,1.168619843E0,8.815139625E0
5.564005500E0,-5.366640015E0,-6.233038330E0,1.882036285E0,8.437633107E0
5.574084500E0,-5.629493408E0,-5.698499908E0,1.999242554E0,8.255971659E0
5.584163500E0,-5.831423492E0,-5.342540131E0,1.632954254E0,8.075566518E0
5.594242500E0,-5.554499359E0,-5.264103241E0,6.643185425E-1,7.681442911E0
5.604321500E0,-5.356311493E0,-4.952900391E0,1.273701324E0,7.405647180E0
5.614400500E0,-4.417014771E0,-4.532873840E0,1.184337158E0,6.438914446E0
5.624479500E0,-2.994223480E0,-4.577630768E0,4.555027771E-1,5.488857848E0
5.634558500E0,-2.001487885E0,-4.700375519E0,4.408332825E-1,5.127749775E0
5.644637500E0,-1.555864563E0,-5.025200043E0,6.433621216E-1,5.299741959E0
5.654716500E0,-1.330882416E0,-5.391787720E0,6.068380737E-1,5.586669425E0
5.664795500E0,-8.367599487E-1,-5.375022583E0,6.732998657E-1,5.481274276E0
5.674874500E0,-2.395019531E-1,-5.387895813E0,4.192781067E-1,5.409489496E0
5.684953500E0,1.303788757E-1,-5.326224060E0,3.308120728E-1,5.338079993E0
5.695032500E0,3.068618774E-1,-5.292544098E0,4.432283020E-1,5.319928436E0
5.705111500E0,1.969903564E-1,-5.612877960E0,4.703219604E-1,5.635992099E0
5.715190500E0,-3.200344849E-1,-6.134992218E0,3.185375977E-1,6.151586607E0
5.725269500E0,-9.111552429E-1,-6.947951660E0,-4.071533203E-2,7.007559767E0
5.735348500E0,-1.371747437E0,-7.821085968E0,-7.358697510E-1,7.974495660E0
5.745427500E0,-1.799408112E0,-8.836723938E0,-2.403252411E0,9.332801383E0
5.755506500E0,-2.586920471E0,-1.015802628E1,-6.302643585E0,1.223114760E1
5.765585500E0,-5.512137451E0,-1.178184952E1,-1.098281113E1,1.702403529E1
5.775664500E0,-9.286837921E0,-1.294942154E1,-1.335732330E1,2.079305082E1
5.785742500E0,-1.234827164E1,-1.383018997E1,-1.495150818E1,2.381809320E1
5.795821500E0,-1.434751419E1,-1.372256378E1,-1.463297058E1,2.466340910E1
5.805900500E0,-1.379680939E1,-1.210472809E1,-1.054497162E1,2.116773058E1
5.815979500E0,-1.150387756E1,-1.006641678E1,-6.489904175E0,1.660695041E1
5.826058500E0,-8.504864044E0,-8.851094055E0,-4.208348694E0,1.297631601E1
5.836137500E0,-6.369554443E0,-8.987310791E0,-2.882705383E0,1.138652578E1
5.846216500E0,-4.805007935E0,-9.586514740E0,-1.637145538E0,1.084756247E1
5.856295500E0,-3.838318176E0,-1.001642075E1,-8.942404175E-1,1.076387648E1
5.866374500E0,-3.560196533E0,-1.031190628E1,-5.545967102E-1,1.092327735E1
5.876453500E0,-3.689976654E0,-1.046473846E1,5.284011841E-2,1.109637197E1
5.886532500E0,-3.663032684E0,-1.024948608E1,8.834628296E-1,1.092017765E1
5.896611500E0,-3.684138794E0,-1.012868729E1,1.385818176E0,1.086663135E1
5.906690500E0,-3.586092682E0,-9.941726074E0,9.554631042E-1,1.061182773E1
5.916769500E0,-3.185076599E0,-9.162596283E0,-2.871029663E-1,9.704654126E0
5.926848500E0,-2.792892151E0,-8.068072357E0,-1.019978943E0,8.598511218E0
5.936927500E0,-2.460134125E0,-7.219487000E0,4.191284180E-2,7.627254364E0
5.947006500E0,-1.939965820E0,-6.881040802E0,1.841171265E0,7.382553862E0
5.957085500E0,-1.501826935E0,-6.927893372E0,2.824925537E0,7.630949810E0
5.967164500E0,-1.390608215E0,-7.272476807E0,2.982547760E0,7.982374412E0
5.977243500E0,-1.624421997E0,-7.917186127E0,2.788251801E0,8.549557362E0
5.987322500E0,-2.031725006E0,-8.631201324E0,2.640359344E0,9.251866853E0
5.997401500E0,-2.694396973E0,-9.293873291E0,2.662064209E0,1.003605708E1
6.007480500E0,-3.431763611E0,-9.886640625E0,2.508333893E0,1.076171005E1
6.017559500E0,-3.964505768E0,-1.021550674E1,2.383194122E0,1.121398672E1
6.027638500E0,-4.544549561E0,-1.027987289E1,2.155667267E0,1.144445799E1
6.037717500E0,-5.066065063E0,-9.819729767E0,1.779050446E0,1.119183311E1
6.047796500E0,-5.505401459E0,-9.098379822E0,1.452130280E0,1.073306307E1
6.057875500E0,-5.756579132E0,-8.416847076E0,1.089733887E0,1.025519566E1
6.067954500E0,-5.942941589E0,-7.898325348E0,7.783813477E-1,9.915037850E0
6.078033500E0,-6.093827820E0,-7.616012421E0,6.083349609E-1,9.772842683E0
6.088111500E0,-6.077212372E0,-7.589068451E0,4.046086121E-1,9.730887847E0
6.098190500E0,-6.053411865E0,-7.783963165E0,3.703298950E-1,9.867675613E0
6.108270125E0,-5.876030731E0,-8.045319672E0,2.032772827E-1,9.964749241E0
6.118349125E0,-5.531297607E0,-8.231233063E0,-6.900650024E-2,9.917318834E0
6.128428125E0,-5.195096741E0,-8.448281708E0,-1.428030396E-1,9.918814781E0
6.138507125E0,-4.896767120E0,-8.622220001E0,2.559677124E-2,9.915727970E0
6.148586125E0,-4.479135590E0,-8.551267548E0,3.212319946E-1,9.658676012E0
6.158665125E0,-4.090693359E0,-8.332722015E0,3.999682617E-1,9.291286399E0
6.168744125E0,-3.908222809E0,-8.123008118E0,4.471202087E-1,9.025374390E0
6.178823125E0,-3.982019348E0,-7.965385895E0,7.387138367E-1,8.935857467E0
6.188902125E0,-4.182751923E0,-7.884703674E0,9.976753235E-1,8.981053487E0
6.198981125E0,-4.438569946E0,-7.874075775E0,1.212179260E0,9.119832841E0
6.209060125E0,-4.713697815E0,-7.877518616E0,1.468895416E0,9.296875840E0
6.219139125E0,-5.034031677E0,-7.921377411E0,1.615740051E0,9.523671085E0
6.229218125E0,-5.336103516E0,-7.929310913E0,1.653611298E0,9.699608374E0
6.239297125E0,-5.463189240E0,-8.027955780E0,1.578168182E0,9.837943153E0
6.249376125E0,-5.411546631E0,-8.107590179E0,1.385967865E0,9.845748442E0
6.259455125E0,-5.141059113E0,-8.109685822E0,1.173409882E0,9.673385326E0
6.269534125E0,-4.774172058E0,-8.089477844E0,9.439370728E-1,9.440518409E0
6.279613125E0,-4.509223022E0,-8.174800415E0,6.391708374E-1,9.357830595E0
6.289692125E0,-4.364174652E0,-8.351283417E0,3.221301270E-1,9.428346776E0
6.299771125E0,-4.338577881E0,-8.544082489E0,1.239422607E-1,9.583317030E0
6.309850125E0,-4.471052399E0,-8.701854401E0,7.499404907E-2,9.783568044E0
6.319929125E0,-4.742587738E0,-8.853638763E0,1.335223389E-1,1.004474420E1
6.330008125E0,-5.166655884E0,-8.974587250E0,2.549198914E-1,1.035869362E1
6.340087125E0,-5.622158661E0,-8.922345886E0,2.517764282E-1,1.054894855E1
6.350166125E0,-5.936355286E0,-8.664282532E0,1.841171265E-2,1.050287793E1
6.360245125E0,-6.180497589E0,-8.464298401E0,-4.046086121E-1,1.048840341E1
6.370324125E0,-6.488107910E0,-8.338260498E0,-8.372090149E-1,1.059825699E1
6.380403125E0,-6.938221893E0,-8.203690338E0,-9.752220154E-1,1.078844364E1
6.390482125E0,-7.384593658E0,-8.103099518E0,-4.689747620E-1,1.097325761E1
6.400560125E0,-7.645201721E0,-8.011789398E0,3.912863159E-1,1.108110932E1
6.410639125E0,-7.737709351E0,-8.075107727E0,1.137334900E0,1.124157647E1
6.420718125E0,-7.622748413E0,-8.566086731E0,1.677112427E0,1.158865140E1
6.430797125E0,-7.122339020E0,-9.254654846E0,1.907782745E0,1.183283501E1
6.440876125E0,-6.383625183E0,-9.725425873E0,1.564696198E0,1.173809410E1
6.450955125E0,-5.650449829E0,-1.001881577E1,8.098159790E-1,1.153083061E1
6.461034125E0,-5.279371490E0,-1.027149033E1,6.586303711E-3,1.154882333E1
6.471113125E0,-5.358706512E0,-1.045830185E1,-5.697152710E-1,1.176504945E1
6.481192125E0,-5.727389832E0,-1.053763687E1,-1.009351044E0,1.203592849E1
6.491271125E0,-6.131250000E0,-1.037178177E1,-1.241218872E0,1.211225445E1
6.501350125E0,-6.616391144E0,-1.007479935E1,-1.221759338E0,1.211490444E1
6.511429125E0,-7.040010223E0,-9.900262299E0,-1.092128906E0,1.219711782E1
6.521508125E0,-7.417375488E0,-9.914931793E0,-1.047970734E0,1.242664775E1
6.531587125E0,-7.715705109E0,-9.947563934E0,-1.300944672E0,1.265616808E1
6.541666125E0,-7.926317139E0,-9.948761444E0,-2.070943451E0,1.288771370E1
6.551745125E0,-7.835306396E0,-9.891131287E0,-3.364553375E0,1.305935388E1
6.561824125E0,-7.004983063E0,-9.702523499E0,-4.389472046E0,1.274661582E1
6.571903125E0,-5.291645966E0,-9.635462952E0,-4.305646362E0,1.180602617E1
6.581982125E0,-3.604055328E0,-1.000399658E1,-4.290078735E0,1.146620853E1
6.592061125E0,-2.452649689E0,-1.049168243E1,-3.716471558E0,1.139750199E1
6.602140125E0,-1.893861694E0,-1.073447754E1,-1.980381775E-1,1.090206124E1
6.612219125E0,-2.190544739E0,-1.102502335E1,3.414848785E0,1.174780057E1
6.622298125E0,-2.622396698E0,-1.118698654E1,5.225782928E0,1.262277464E1
6.632377125E0,-2.670147400E0,-1.123518631E1,5.333558807E0,1.272029670E1
6.642456125E0,-2.650388489E0,-1.134475845E1,5.001549225E0,1.267846987E1
6.652535125E0,-2.450104980E0,-1.174547516E1,4.300556946E0,1.274574404E1
6.662614125E0,-2.253264313E0,-1.252206024E1,2.717748413E0,1.301020174E1
6.672693125E0,-2.298470306E0,-1.361448853E1,-6.679110718E-1,1.382329081E1
6.682772125E0,-2.443069611E0,-1.410157562E1,-3.473526764E0,1.472713184E1
6.692850125E0,-2.254012756E0,-1.360401031E1,-3.886368256E0,1.432667192E1
6.702929125E0,-2.192490692E0,-1.273312134E1,-3.060535583E0,1.327803722E1
6.713008125E0,-2.237996063E0,-1.166299667E1,-1.536704407E0,1.197478928E1
6.723087125E0,-2.531685333E0,-1.050171158E1,3.585044861E-1,1.080851064E1
6.733166125E0,-3.007845154E0,-9.355994110E0,2.180665283E0,1.006663098E1
6.743245125E0,-3.322191467E0,-8.705596619E0,2.028731232E0,9.536252883E0
6.753324125E0,-3.287763062E0,-7.873327332E0,2.284698944E0,8.832809207E0
6.763403125E0,-3.392545166E0,-6.833439789E0,3.566333771E0,8.421638713E0
6.773482125E0,-4.202061768E0,-6.104455719E0,3.163072357E0,8.057712421E0
6.783561125E0,-4.803960114E0,-5.590125275E0,2.466271362E0,7.772388809E0
6.793640125E0,-4.912484436E0,-5.056335297E0,1.711540833E0,7.254543541E0
6.803719125E0,-4.592000885E0,-4.658612366E0,9.726773071E-1,6.613262617E0
6.813798125E0,-4.174069977E0,-4.205055542E0,7.054829407E-1,5.966829850E0
6.823877125E0,-3.832330627E0,-3.916306000E0,7.089257812E-1,5.525105111E0
6.833956125E0,-3.457061005E0,-3.911665649E0,6.981481934E-1,5.266859581E0
6.844035125E0,-2.675087128E0,-3.958069153E0,5.420228577E-1,4.807930047E0
6.854114125E0,-1.496887207E0,-3.960464172E0,2.850073242E-1,4.243486414E0
6.864193125E0,-6.367758179E-1,-4.103716278E0,1.269360352E-1,4.154766358E0
6.874272125E0,-1.984872437E-1,-4.112847290E0,3.357518005E-1,4.131299951E0
6.884351125E0,1.327738953E-1,-4.202810211E0,8.114625549E-1,4.282489236E0
6.894430125E0,-1.805245972E-1,-4.788991241E0,1.385818176E0,4.988739145E0
6.904509125E0,-1.157093811E0,-5.941295013E0,1.222956848E0,6.175230844E0
6.914588125E0,-2.495909729E0,-7.737859039E0,-1.241069183E0,8.224614313E0
6.924667125E0,-4.853656769E0,-1.010219238E1,-9.676777039E0,1.480717018E1
6.934746125E0,-9.399254150E0,-1.231159790E1,-1.704670120E1,2.303283403E1
6.944825125E0,-1.194036987E1,-1.381656830E1,-1.613135468E1,2.436576689E1
6.954904125E0,-1.350566483E1,-1.457923233E1,-1.441966415E1,2.455369040E1
6.964983125E0,-1.393137955E1,-1.346360229E1,-1.075663147E1,2.215980694E1
6.975061125E0,-1.220442078E1,-1.042297531E1,-6.923702087E0,1.747924345E1
6.985140125E0,-8.794212341E0,-7.257208557E0,-5.267246704E0,1.255982224E1
6.995219125E0,-5.989794159E0,-5.781277771E0,-4.424050140E0,9.427249142E0
7.005298125E0,-4.360881500E0,-6.048023071E0,-1.946103058E0,7.706048770E0
7.015377125E0,-2.968926086E0,-7.690258026E0,1.182690582E0,8.327865731E0
7.025456125E0,-2.046244812E0,-9.504485321E0,3.032992859E0,1.018437061E1
7.035535125E0,-1.948647766E0,-1.123024658E1,3.491938477E0,1.192096056E1
7.045614125E0,-2.373763733E0,-1.287337967E1,3.094963989E0,1.345129958E1
7.055693125E0,-2.298619995E0,-1.413196243E1,1.648372192E0,1.441225683E1
7.065772125E0,-2.454445953E0,-1.296933014E1,-7.923023987E-1,1.322329657E1
7.075851125E0,-3.070564728E0,-1.016730698E1,-2.834206238E0,1.099250763E1
7.085930125E0,-3.698808289E0,-8.727750549E0,-2.612666931E0,9.832641603E0
7.096009125E0,-3.574267273E0,-8.459059296E0,-9.223818970E-1,9.229401880E0
7.106087750E0,-2.649939423E0,-8.360115051E0,5.915698242E-1,8.789974828E0
7.116166750E0,-1.816921692E0,-8.030201111E0,1.528471527E0,8.373861685E0
7.126245750E0,-1.362466736E0,-7.614365845E0,1.741029510E0,7.928812432E0
7.136324750E0,-1.634451141E0,-7.351512451E0,1.613943787E0,7.702011452E0
7.146403750E0,-2.338736572E0,-7.258106689E0,1.463955688E0,7.764854649E0
7.156482750E0,-3.512894897E0,-7.790998535E0,1.527573395E0,8.681795276E0
7.166561750E0,-4.689298553E0,-8.839568024E0,1.654359741E0,1.014220834E1
7.176640750E0,-5.423970795E0,-9.490414581E0,1.658251648E0,1.105609455E1
7.186719750E0,-5.818101196E0,-9.642198944E0,1.667382660E0,1.138430793E1
7.196798750E0,-6.460714874E0,-9.610914001E0,1.406475220E0,1.166570517E1
7.206877750E0,-7.344327393E0,-9.534273376E0,8.181985474E-1,1.206279248E1
7.216956750E0,-7.975564728E0,-9.196425934E0,2.983296204E-1,1.217673533E1
7.227035750E0,-7.966134338E0,-8.596323853E0,-1.191522217E-1,1.172050670E1
7.237114750E0,-7.334897003E0,-8.062234497E0,-4.234693909E-1,1.090778004E1
7.247193750E0,-6.649472351E0,-7.956404572E0,-4.433779907E-1,1.037865311E1
7.257272750E0,-6.068530426E0,-8.492589569E0,-2.577639771E-1,1.044114847E1
7.267350750E0,-5.274581451E0,-8.959319000E0,-1.038839722E-1,1.039718223E1
7.277429750E0,-4.436025238E0,-9.054221649E0,1.886077881E-1,1.008428592E1
7.287508750E0,-3.732937317E0,-8.975186005E0,4.794529724E-1,9.732351205E0
7.297587750E0,-3.142714691E0,-8.755293274E0,7.798782349E-1,9.334882217E0
7.307666750E0,-2.659220123E0,-8.483009491E0,9.418414307E-1,8.939796808E0
7.317745750E0,-2.341730347E0,-8.325686646E0,7.731422424E-1,8.683231430E0
7.327824750E0,-2.322420502E0,-8.322992249E0,3.396437073E-1,8.647612087E0
7.337903750E0,-2.542013855E0,-8.513096924E0,5.837860107E-3,8.884519557E0
7.347982750E0,-3.055446167E0,-8.862021332E0,-3.311114502E-1,9.379808535E0
7.358061750E0,-3.750001831E0,-9.132808228E0,-7.716453552E-1,9.902834766E0
7.368140750E0,-4.481680298E0,-9.158404999E0,-1.291364594E0,1.027761952E1
7.378219750E0,-5.116809540E0,-9.140442352E0,-1.938169556E0,1.065297740E1
7.388298750E0,-5.500910797E0,-9.046288147E0,-2.638563080E0,1.091134107E1
7.398377750E0,-5.685327301E0,-8.763077087E0,-3.202590179E0,1.092570595E1
7.408456750E0,-6.003715210E0,-8.314609680E0,-4.117787018E0,1.105140264E1
7.418535750E0,-6.901099091E0,-7.614216156E0,-6.154152374E0,1.197810702E1
7.428614750E0,-7.075187073E0,-6.762187958E0,-7.015012207E0,1.204142244E1
7.438693750E0,-6.556815033E0,-6.127956848E0,-6.821464691E0,1.127280174E1
7.448772750E0,-6.837780762E0,-5.645510101E0,-7.789052582E0,1.180238832E1
7.458851750E0,-5.991889801E0,-5.353467407E0,-5.371879120E0,9.665373347E0
7.468930750E0,-3.946393433E0,-5.136718140E0,-1.987566833E0,6.775715187E0
7.479009750E0,-2.146087189E0,-4.734654236E0,2.420466614E-1,5.203962677E0
7.489088750E0,-9.572593689E-1,-3.976929932E0,2.298170929E0,4.691897995E0
7.499167750E0,-6.424639893E-1,-2.967429199E0,2.833906860E0,4.153242603E0
7.509246750E0,-1.380429382E0,-2.202370148E0,3.197051697E0,4.120334829E0
7.519325750E0,-2.387984161E0,-1.745071106E0,3.128943329E0,4.305581015E0
7.529403750E0,-3.442391510E0,-2.155816956E0,5.755531311E-1,4.102300265E0
7.539482750E0,-5.515879669E0,-3.254981232E0,-4.392465820E0,7.766182288E0
7.549561750E0,-7.951913910E0,-4.865033112E0,-7.050338745E0,1.168797495E1
7.559640750E0,-8.664282532E0,-6.763086090E0,-3.992796936E0,1.169408195E1
7.569719750E0,-9.152716827E0,-8.710686035E0,-2.342329102E0,1.285047790E1
7.579798750E0,-9.083261261E0,-9.877060547E0,-3.185525665E0,1.379164725E1
7.589877750E0,-6.906787262E0,-9.422455902E0,-1.994302826E0,1.185173529E1
7.599956750E0,-5.602250061E0,-8.573720856E0,-1.830393677E0,1.040404902E1
7.610035750E0,-5.992189178E0,-8.146359558E0,-3.085084534E0,1.057294906E1
7.620114750E0,-6.860982513E0,-8.441396027E0,-2.343825989E0,1.112761287E1
7.630193750E0,-7.386838989E0,-9.696386261E0,-1.950144653E0,1.234456807E1
7.640272750E0,-7.210505676E0,-1.146151566E1,-2.044747925E0,1.369447799E1
7.650351750E0,-6.704557800E0,-1.326780945E1,-1.754202118E0,1.496873702E1
7.660430750E0,-6.586004333E0,-1.506332565E1,-1.018781433E0,1.647170751E1
7.670509750E0,-7.281009064E0,-1.733470230E1,-9.810598755E-1,1.882730664E1
7.680588750E0,-8.134534149E0,-1.986444168E1,-7.479945374E-1,2.147850518E1
7.690667750E0,-9.107959900E0,-2.210393463E1,-1.802252197E-1,2.390755824E1
7.700746750E0,-9.929601288E0,-2.398956345E1,1.901046753E-2,2.596336838E1
7.710825750E0,-1.011446686E1,-2.499981262E1,6.472540283E-1,2.697613777E1
7.720904750E0,-1.031355286E1,-2.613310593E1,1.699565735E0,2.814599655E1
7.730983750E0,-1.066397415E1,-2.769001831E1,2.721191254E0,2.979701899E1
7.741062750E0,-1.052296738E1,-2.886267975E1,3.383863220E0,3.090691921E1
7.751141750E0,-9.810149689E0,-2.840912292E1,3.470532990E0,3.025494838E1
7.761220750E0,-8.879834290E0,-2.682706284E1,2.127675476E0,2.833848550E1
7.771299750E0,-7.295678558E0,-2.460253876E1,-1.570983124E0,2.570952794E1
7.781378750E0,-5.249284058E0,-2.195155151E1,-8.574020233E0,2.414413842E1
7.791457750E0,-3.576362915E0,-1.759755569E1,-1.441622131E1,2.302806494E1
7.801536750E0,-4.219425659E0,-1.287233185E1,-1.173005722E1,1.791911612E1
7.811615750E0,-3.936513977E0,-9.379345551E0,-8.363707581E0,1.316889782E1
7.821693750E0,-3.804189148E0,-6.805897064E0,-6.390361176E0,1.008111134E1
7.831772750E0,-2.923271027E0,-5.111271057E0,-6.001769257E0,8.407843928E0
7.841851750E0,-2.245779877E0,-3.429218903E0,-5.128485260E0,6.565396454E0
7.851930750E0,-2.447260895E0,-2.086511078E0,-3.196752319E0,4.534516485E0
7.862009750E0,-2.232008514E0,-9.701325989E-1,-1.530267792E0,2.874845871E0
7.872088750E0,-2.164199524E0,1.829196167E-1,-1.268462219E0,2.515196924E0
7.882167750E0,-2.132315826E0,1.203497314E0,-1.339115295E0,2.790771640E0
7.892246750E0,-1.976639557E0,1.940863953E0,4.790039062E-3,2.770212946E0
7.902325750E0,-1.510059814E0,2.482587433E0,1.127605133E0,3.116891776E0
7.912404750E0,-8.812174988E-1,2.719245300E0,1.935026093E0,3.451835057E0
7.922483750E0,-5.926176453E-1,2.789149933E0,2.265239410E0,3.641684035E0
7.932562750E0,-3.772155762E-1,3.265459442E0,2.109263763E0,3.905702316E0
7.942641750E0,-3.465293884E-1,2.936892700E0,2.232756958E0,3.705485796E0
7.952720750E0,-4.234693909E-1,2.810705109E0,2.286644897E0,3.648031582E0
7.962799750E0,-4.182302856E-1,2.905907135E0,2.338137817E0,3.753145521E0
7.972878750E0,-2.603086853E-1,2.733914795E0,2.416275330E0,3.657927991E0
7.982957750E0,-4.490661621E-3,2.408491516E0,2.295326843E0,3.327067307E0
7.993036750E0,9.939331055E-2,2.170785828E0,2.004631348E0,2.956473741E0
8.003115750E0,1.086740112E-1,2.022144928E0,1.764680328E0,2.686070887E0
8.013194750E0,1.598675537E-1,1.879042511E0,1.538201294E0,2.433602600E0
8.023273750E0,1.878593445E-1,1.728156281E0,1.254541168E0,2.143755771E0
8.033352750E0,2.877017212E-1,1.489103394E0,8.605604553E-1,1.743779084E0
8.043431750E0,3.305126953E-1,1.080902252E0,4.131408691E-1,1.203442437E0
8.053510750E0,1.356179810E-1,6.286926270E-1,9.729766846E-3,6.432272727E-1
8.063589750E0,-1.519340515E-1,3.502716064E-1,-3.275189209E-1,5.030335951E-1
8.073668750E0,-3.149450684E-1,2.257305908E-1,-6.611750793E-1,7.663531701E-1
8.083746750E0,-4.311035156E-1,1.636097717E-1,-1.153052216E0,1.241832441E0
8.093825750E0,-6.176156616E-1,6.077362061E-2,-2.073488159E0,2.164369581E0
8.103904750E0,-1.202449493E0,-3.107537842E-1,-4.922663269E0,5.076915044E0
8.113984083E0,-1.971550140E0,-9.044192505E-1,-7.950566711E0,8.241146472E0
8.124063083E0,-2.217039642E0,-1.404229889E0,-7.652985535E0,8.090445844E0
8.134142083E0,-2.757266235E0,-2.335144043E0,-7.804769897E0,8.600572536E0
8.144221083E0,-2.773133240E0,-3.658392334E0,-2.459086304E0,5.207802596E0
8.154300083E0,-2.105222168E0,-4.847669220E0,3.512445831E0,6.345796480E0
8.164379083E0,-2.284998322E0,-6.070177002E0,3.548221436E0,7.393114467E0
8.174458083E0,-3.101250916E0,-1.130404312E1,4.117936707E-1,1.172896936E1
8.184537083E0,-4.113296356E0,-2.332674179E1,-4.940326538E0,2.419634096E1
8.194616083E0,-5.246889038E0,-2.993549881E1,-2.985092468E0,3.053808623E1
8.204695083E0,-6.385421448E0,-3.126578247E1,1.858535156E0,3.196524540E1
8.214774083E0,-9.144933014E0,-3.583458160E1,5.940995636E0,3.745720849E1
8.224853083E0,-1.258073822E1,-3.744433411E1,8.205187225E0,4.034449440E1
8.234932083E0,-1.220546860E1,-2.994522858E1,7.456893311E0,3.318577159E1
8.245011083E0,-9.533973999E0,-2.293051575E1,5.314997406E0,2.539595263E1
8.255090083E0,-8.906179504E0,-2.063728455E1,3.284918976E0,2.271581474E1
8.265169083E0,-1.146031815E1,-2.500445297E1,-1.830693054E0,2.756651950E1
8.275248083E0,-1.606174942E1,-2.740291534E1,-7.704628143E0,3.268426011E1
8.285327083E0,-2.045002396E1,-2.198029175E1,-1.630469421E1,3.416401262E1
8.295406083E0,-1.281200729E1,-1.514580414E1,-8.339458008E0,2.151951379E1
8.305485083E0,-2.697091370E0,-1.178110107E1,1.518143005E0,1.218086214E1
8.315564083E0,2.126927032E0,-9.689949646E0,-5.665718079E-1,9.936797591E0
8.325643083E0,3.291056213E0,-9.481283569E0,-1.433718567E0,1.013811314E1
8.335722083E0,3.298989716E0,-9.431586914E0,-7.689509583E-1,1.002144952E1
8.345800083E0,3.121159515E0,-9.187145233E0,2.059716797E-1,9.705034703E0
8.355879083E0,2.460283813E0,-8.430319061E0,5.432203674E-1,8.798770612E0
8.365958083E0,1.909579010E0,-6.963070221E0,-5.373825073E-2,7.220368875E0
8.376037083E0,1.564546509E0,-5.467530212E0,-1.586550751E0,5.904137167E0
8.386116083E0,1.096469879E0,-3.936663666E0,-3.724704437E0,5.529284778E0
8.396195083E0,-6.975494385E-2,-2.784958649E0,-4.488565979E0,5.282810329E0
8.406274083E0,-1.551822968E0,-2.570005646E0,-2.980601807E0,4.230492958E0
8.416353083E0,-3.093167725E0,-3.075354767E0,-8.755293274E-1,4.448825139E0
8.426432083E0,-3.879781952E0,-3.745361481E0,8.108638000E-1,5.453250473E0
8.436511083E0,-3.816763000E0,-4.135599976E0,1.982178040E0,5.966564903E0
8.446590083E0,-3.471131744E0,-4.342170410E0,2.499352570E0,6.095076925E0
8.456669083E0,-3.012485504E0,-4.371509399E0,2.525697784E0,5.879142169E0
8.466748083E0,-2.542462921E0,-4.386478271E0,2.463726654E0,5.636954706E0
8.476827083E0,-2.395169220E0,-4.599485321E0,2.437381439E0,5.730002538E0
8.486906083E0,-2.672841797E0,-5.174888763E0,2.445614319E0,6.317007708E0
8.496985083E0,-3.363954620E0,-6.196214905E0,2.372566223E0,7.438974413E0
8.507064083E0,-4.059408417E0,-7.496111755E0,2.133064270E0,8.787516789E0
8.517143083E0,-4.569996643E0,-8.704848175E0,1.395997009E0,9.930159048E0
8.527222083E0,-4.569397888E0,-9.676926727E0,4.373904419E-1,1.071044436E1
8.537301083E0,-4.251009979E0,-1.047267197E1,-2.248324585E-1,1.130479958E1
8.547380083E0,-3.974983978E0,-1.126527374E1,-5.333409119E-1,1.195789876E1
8.557459083E0,-3.795357513E0,-1.205997116E1,-4.107458496E-1,1.264975712E1
8.567538083E0,-3.693868561E0,-1.289283920E1,1.945953369E-1,1.341297264E1
8.577617083E0,-3.709436188E0,-1.395817383E1,9.309141541E-1,1.447263399E1
8.587696083E0,-3.925287323E0,-1.520328461E1,1.577569427E0,1.578088935E1
8.597775083E0,-4.032165070E0,-1.609273499E1,2.023641815E0,1.671315651E1
8.607853083E0,-3.420087891E0,-1.545551010E1,1.882485352E0,1.594093927E1
8.617932083E0,-2.266586609E0,-1.259855118E1,1.383872223E0,1.287540325E1
8.628011083E0,-1.315314789E0,-1.021371048E1,9.021739197E-1,1.033749740E1
8.638090083E0,-6.430627441E-1,-8.717571716E0,5.779481506E-1,8.760343052E0
8.648169083E0,-1.561253357E-1,-7.586224365E0,5.242098999E-1,7.605916859E0
8.658248083E0,9.415420532E-2,-6.775809631E0,6.935078430E-1,6.811858359E0
8.668327083E0,7.559280396E-2,-6.229894867E0,9.828561401E-1,6.307401249E0
8.678406083E0,-2.239343262E-1,-6.089636536E0,1.164877625E0,6.204092166E0
8.688485083E0,-8.226892090E-1,-6.476432190E0,1.164578247E0,6.631533302E0
8.698564083E0,-1.659748535E0,-7.420069885E0,1.099763031E0,7.682556933E0
8.708643083E0,-2.689906311E0,-8.302784271E0,1.012793884E0,8.786215002E0
8.718722083E0,-3.601660309E0,-8.948691101E0,1.049317932E0,9.703200375E0
8.728801083E0,-4.251608734E0,-9.500892792E0,1.189127197E0,1.047650534E1
8.738880083E0,-4.613705750E0,-9.969418488E0,1.319506073E0,1.106420725E1
8.748959083E0,-4.661755829E0,-1.034603531E1,1.407523041E0,1.143475121E1
8.759038083E0,-4.576732635E0,-1.063807800E1,1.427132263E0,1.166841428E1
8.769117083E0,-4.506079559E0,-1.088985443E1,1.300944672E0,1.185690261E1
8.779196083E0,-4.328399048E0,-1.110795090E1,9.939331055E-1,1.196283890E1
8.789275083E0,-3.917204132E0,-1.105076981E1,5.457650757E-1,1.173719988E1
8.799354083E0,-3.368295593E0,-1.074211166E1,-6.137237549E-3,1.125781577E1
8.809433083E0,-2.796035614E0,-1.027358597E1,-4.673281860E-1,1.065752220E1
8.819512083E0,-2.348017273E0,-9.703721008E0,-4.737648010E-1,9.994990726E0
8.829591083E0,-1.965263214E0,-9.159901886E0,9.250762939E-2,9.368811009E0
8.839670083E0,-1.719174957E0,-8.786727905E0,8.629554749E-1,8.994823065E0
8.849749083E0,-1.611399078E0,-8.591533813E0,1.523082733E0,8.873040137E0
8.859828083E0,-1.678908691E0,-8.585396576E0,1.947899323E0,8.962258673E0
8.869907083E0,-1.867815857E0,-8.738977203E0,2.145039368E0,9.190193280E0
8.879985083E0,-2.097588043E0,-8.915160828E0,2.148182831E0,9.407159914E0
8.890064083E0,-2.293081512E0,-8.977730713E0,2.095043335E0,9.499846217E0
8.900143083E0,-2.453547821E0,-8.994645538E0,1.978735199E0,9.530946346E0
8.910222083E0,-2.600991211E0,-9.089099121E0,1.762734375E0,9.616865944E0
8.920301083E0,-2.834655304E0,-9.230105896E0,1.524429932E0,9.775173255E0
8.930380083E0,-3.056493988E0,-9.373657379E0,1.314117279E0,9.946582950E0
8.940459083E0,-3.276686096E0,-9.503138123E0,1.136736145E0,1.011624807E1
8.950538083E0,-3.366649017E0,-9.537267151E0,1.065334625E0,1.016999155E1
8.960617083E0,-3.329975281E0,-9.534123688E0,1.128802643E0,1.016181309E1
8.970696083E0,-3.229384460E0,-9.420060883E0,1.227746887E0,1.003363511E1
8.980775083E0,-3.097209320E0,-9.279652863E0,1.379980316E0,9.879727147E0
8.990854083E0,-3.023113403E0,-9.246122589E0,1.521436157E0,9.846053299E0
9.000933083E0,-2.902314606E0,-9.322763214E0,1.636546783E0,9.900284309E0
9.011012083E0,-2.719544678E0,-9.462722168E0,1.700613556E0,9.991552459E0
9.021091083E0,-2.464475098E0,-9.591753845E0,1.566941528E0,1.002649914E1
9.031170083E0,-2.247725830E0,-9.606273651E0,1.336570587E0,9.955861881E0
9.041249083E0,-2.125280457E0,-9.502239990E0,1.085093536E0,9.797285840E0
9.051328083E0,-2.172881470E0,-9.347910919E0,9.159452820E-1,9.640736911E0
9.061407083E0,-2.372865601E0,-9.312734070E0,8.285270691E-1,9.645929925E0
9.071486083E0,-2.578388214E0,-9.331445160E0,8.358618164E-1,9.717130211E0
9.081565083E0,-2.790646820E0,-9.359137573E0,9.247769165E-1,9.810014176E0
9.091644083E0,-2.925216980E0,-9.370364227E0,1.121617584E0,9.880214883E0
9.101723083E0,-2.969674530E0,-9.327702942E0,1.436412964E0,9.893851181E0
9.111802125E0,-2.930007019E0,-9.269923096E0,1.720671844E0,9.873050538E0
9.121881125E0,-2.803819427E0,-9.248816986E0,1.897753601E0,9.849034864E0
9.131959125E0,-2.650089111E0,-9.235943756E0,1.987267456E0,9.811975403E0
9.142038125E0,-2.517165527E0,-9.298813019E0,1.995500336E0,9.837991027E0
9.152117125E0,-2.455344086E0,-9.584119720E0,1.988914032E0,1.009157294E1
9.162196125E0,-2.203717346E0,-9.683063965E0,1.799258423E0,1.009234506E1
9.172275125E0,-2.053280182E0,-9.505383453E0,1.609004059E0,9.856833577E0
9.182354125E0,-2.003583527E0,-9.458081818E0,1.717528381E0,9.819346330E0
9.192433125E0,-2.058219910E0,-9.501341858E0,1.769470367E0,9.881436721E0
9.202512125E0,-2.082768860E0,-9.401948547E0,1.780098267E0,9.793023662E0
9.212591125E0,-2.010319519E0,-9.296118622E0,1.815125427E0,9.682659052E0
9.222670125E0,-1.976040802E0,-9.482331390E0,1.825903015E0,9.856635718E0
9.232749125E0,-1.898651733E0,-9.691895599E0,1.860930176E0,1.004991442E1
9.242828125E0,-1.689985657E0,-9.908195801E0,2.020198975E0,1.025229728E1
9.252907125E0,-1.677860870E0,-9.462273102E0,1.978286133E0,9.811393651E0
9.262986125E0,-2.060764618E0,-8.317453766E0,1.585652618E0,8.714418063E0
9.273065125E0,-2.480940857E0,-7.896379395E0,1.106049957E0,8.350522234E0
9.283144125E0,-1.686393127E0,-9.361083527E0,1.296903076E0,9.599779381E0
9.293223125E0,-2.091450806E0,-1.054811508E1,1.603465576E0,1.087235026E1
9.303302125E0,-2.114203491E0,-1.094987961E1,1.615889740E0,1.126857664E1
9.313381125E0,-2.136058044E0,-1.071741302E1,1.657952271E0,1.105325706E1
9.323460125E0,-2.399360504E0,-1.048225204E1,1.635049896E0,1.087694474E1
9.333539125E0,-2.551294556E0,-1.030157776E1,1.625320129E0,1.073653919E1
9.343618125E0,-2.719394989E0,-9.897867279E0,1.669328613E0,1.039949729E1
9.353697125E0,-2.878065033E0,-9.154812469E0,1.674867096E0,9.741613289E0
9.363776125E0,-2.794688416E0,-8.619076538E0,1.560205536E0,9.194183217E0
9.373855125E0,-2.532284088E0,-8.480165405E0,1.381926270E0,8.957420846E0
9.383933125E0,-2.206860809E0,-8.641978912E0,1.245859222E0,9.005898032E0
9.394012125E0,-1.988614655E0,-8.926686859E0,1.088686066E0,9.210079472E0
9.404091125E0,-2.115401001E0,-8.522078247E0,4.179309082E-1,8.790643053E0
9.414170125E0,-1.656904449E0,-9.336833954E0,9.400451660E-2,9.483176550E0
9.424249125E0,-1.364412689E0,-1.005758514E1,6.628216553E-1,1.017133096E1
9.434328125E0,-1.301992493E0,-1.031400192E1,8.716374207E-1,1.043233300E1
9.444407125E0,-1.734143829E0,-1.001207977E1,6.791377258E-1,1.018382169E1
9.454486125E0,-2.411036224E0,-9.045090637E0,7.098239136E-1,9.387790491E0
9.464565125E0,-2.353256378E0,-8.404572601E0,9.258247375E-1,8.776776609E0
9.474644125E0,-1.732946320E0,-8.889114990E0,8.737330627E-1,9.098509643E0
9.484723125E0,-1.169817352E0,-9.915979614E0,1.068478088E0,1.004175133E1
9.494802125E0,-8.663983154E-1,-1.071516769E1,1.531016235E0,1.085861296E1
9.504881125E0,-7.954458618E-1,-1.100631226E1,2.007026367E0,1.121605093E1
9.514960125E0,-8.253836060E-1,-1.084375031E1,2.128723297E0,1.108149997E1
9.525039125E0,-8.515791321E-1,-1.045021866E1,2.006726990E0,1.067516793E1
9.535118125E0,-6.378236389E-1,-1.052027298E1,1.561253357E0,1.065459875E1
9.545197125E0,-2.062710571E-1,-1.041848465E1,8.714877319E-1,1.045690494E1
9.555276125E0,3.591032410E-1,-1.029050079E1,6.875202942E-1,1.031969214E1
9.565355125E0,5.861810303E-1,-9.853709106E0,5.441184998E-1,9.886114317E0
9.575434125E0,5.481600952E-1,-8.911568298E0,5.915698242E-1,8.947987700E0
9.585513125E0,4.818479919E-1,-8.106093292E0,7.604187012E-1,8.155928062E0
9.595592125E0,3.906875610E-1,-7.517666931E0,1.144519958E0,7.614320639E0
9.605671125E0,5.912704468E-2,-7.106172638E0,1.560804291E0,7.275802059E0
9.615750125E0,-2.171983337E-1,-6.908134460E0,1.920356598E0,7.173372032E0
9.625829125E0,-5.789959717E-1,-6.947053528E0,2.298021240E0,7.340142415E0
9.635907125E0,-9.367520142E-1,-7.112459564E0,2.492317200E0,7.594486843E0
9.645986125E0,-1.041234741E0,-7.405400391E0,2.628983002E0,7.926895758E0
9.656065125E0,-9.699829102E-1,-7.668553162E0,2.769989777E0,8.210993716E0
9.666144125E0,-1.061442719E0,-7.780819702E0,2.749183044E0,8.320205724E0
9.676223125E0,-1.298699341E0,-8.020321655E0,2.704426117E0,8.563066043E0
9.686302125E0,-1.448837128E0,-8.435109100E0,2.762804718E0,8.993513466E0
9.696381125E0,-1.910926208E0,-8.469387817E0,2.793490906E0,9.120622809E0
9.706460125E0,-2.470911713E0,-8.257877655E0,2.698438568E0,9.032138106E0
9.716539125E0,-3.195704498E0,-7.333100739E0,2.487377472E0,8.376988741E0
9.726618125E0,-3.699556732E0,-7.483687592E0,2.436483307E0,8.696479224E0
9.736697125E0,-3.804488525E0,-1.006985962E1,2.719245300E0,1.110272492E1
9.746776125E0,-3.613785095E0,-1.306423279E1,3.474275208E0,1.399300573E1
9.756855125E0,-2.653681641E0,-1.534369263E1,3.835025024E0,1.603678106E1
9.766934125E0,-1.181343384E0,-1.549787201E1,3.371588745E0,1.590431450E1
9.777013125E0,3.239263916E-1,-1.459599747E1,2.442919922E0,1.480256492E1
9.787092125E0,1.501527557E0,-1.371927063E1,1.664987640E0,1.390126453E1
9.797171125E0,2.024090881E0,-1.285915924E1,1.435664520E0,1.309641374E1
9.807250125E0,1.275198212E0,-1.118893250E1,2.082768860E0,1.145234766E1
9.817329125E0,6.089337158E-1,-9.493108978E0,1.380728760E0,9.612300986E0
9.827408125E0,3.969744873E-1,-8.913514252E0,-6.840774536E-2,8.922611987E0
9.837487125E0,1.627116394E-1,-8.863069153E0,-7.915539551E-1,8.899833007E0
9.847566125E0,1.255888367E-1,-8.712631989E0,-6.701564026E-1,8.739269897E0
9.857645125E0,-3.591032410E-1,-6.839427338E0,-1.226250000E0,6.957759015E0
9.867724125E0,-2.615511017E0,-6.951544189E-1,-3.561244354E0,4.472873673E0
9.877802125E0,1.197509766E-3,-9.412127380E0,-7.276368713E-1,9.440211792E0
9.887881125E0,7.734416199E-1,-1.344698685E1,3.167413330E-1,1.347293555E1
9.897960125E0,7.647596741E-1,-1.252355713E1,5.752537537E-1,1.256006598E1
9.908039125E0,1.144370270E0,-1.107666595E1,5.402265930E-1,1.114871996E1
9.918118125E0,7.283853149E-1,-8.274044037E0,1.940265198E0,8.529652920E0
9.928197125E0,1.092727661E0,-8.826245728E0,2.790497131E0,9.321134138E0
9.938276125E0,2.808908844E0,-7.729027405E0,2.481090546E0,8.589740614E0
9.948355125E0,4.261188812E0,-5.499713287E0,2.057621155E0,7.255231296E0
9.958434125E0,1.970202942E0,-9.354796600E0,2.791694641E-1,9.564091941E0
9.968513125E0,-1.043330383E0,-1.410591660E1,-3.739224243E0,1.463035267E1
9.978592125E0,-3.626658325E0,-1.549338135E1,-5.737568665E0,1.691499957E1
9.988671125E0,-3.829935608E0,-1.369517075E1,-2.727178802E0,1.447976563E1
9.998750125E0,-1.603465576E0,-1.243374390E1,7.113208008E-1,1.255687327E1