"Time (s)","Acceleration x (m/s^2)","Acceleration y (m/s^2)","Acceleration z (m/s^2)","Absolute acceleration (m/s^2)"
-7.236666279E-4,1.744172974E0,9.234147491E0,1.582808533E0,9.529790245E0
9.355333284E-3,1.811532898E0,9.223070526E0,1.628463593E0,9.539317326E0
1.943433331E-2,1.864522705E0,9.223818970E0,1.738484802E0,9.569619152E0
2.951333334E-2,1.906884613E0,9.249565430E0,1.891167297E0,9.631572214E0
3.959233337E-2,1.951192474E0,9.309889984E0,1.998943176E0,9.719926821E0
4.967133328E-2,2.022593994E0,9.309740295E0,2.067500610E0,9.748677326E0
5.975033331E-2,2.103126526E0,9.342671814E0,2.115101624E0,9.807258163E0
6.982933334E-2,2.166893921E0,9.370214539E0,2.119143219E0,9.848203783E0
7.990833337E-2,2.159110107E0,9.361831970E0,2.095492401E0,9.833450193E0
8.998733328E-2,2.073039093E0,9.332642670E0,2.007026367E0,9.768513967E0
1.000663333E-1,2.044598236E0,9.322164459E0,1.895059204E0,9.730076132E0
1.101453333E-1,2.009421387E0,9.386979675E0,1.787582703E0,9.764661471E0
1.202243334E-1,2.038610687E0,9.478738861E0,1.737287292E0,9.849903099E0
1.303043333E-1,2.078577576E0,9.531578979E0,1.670376434E0,9.897557275E0
1.403833333E-1,2.119891663E0,9.455387421E0,1.586101685E0,9.819063626E0
1.504623333E-1,2.155966644E0,9.305698700E0,1.437460785E0,9.659736745E0
1.605413334E-1,2.165696411E0,9.193881226E0,1.244512024E0,9.527145591E0
1.706203333E-1,2.051783295E0,9.179810486E0,1.146465912E0,9.475923139E0
1.806993333E-1,1.947450256E0,9.212292938E0,1.199006653E0,9.491918701E0
1.907783333E-1,1.895657959E0,9.308991852E0,1.292861481E0,9.587613843E0
2.008573334E-1,1.711989899E0,9.343120880E0,1.415157166E0,9.603514305E0
2.109363333E-1,1.509161682E0,9.238039398E0,1.462009735E0,9.473986139E0
2.210153333E-1,1.469494171E0,9.127868500E0,1.373394012E0,9.346850142E0
2.310943333E-1,1.633852386E0,9.020691376E0,1.226100311E0,9.249090144E0
2.411733334E-1,1.862876129E0,8.987460480E0,1.164428558E0,9.252061782E0
2.512523333E-1,2.111658783E0,8.983867950E0,1.127754822E0,9.297355382E0
2.613313333E-1,2.243983612E0,8.952732697E0,1.098266144E0,9.294787448E0
2.714103333E-1,2.259551239E0,8.934171295E0,1.038690033E0,9.273826908E0
2.814893334E-1,2.263143768E0,8.996890869E0,9.925859070E-1,9.330117460E0
2.915683333E-1,2.319576416E0,9.154064026E0,9.765692139E-1,9.493735322E0
3.016473333E-1,2.403402100E0,9.372759247E0,1.002465363E0,9.727789798E0
3.117263333E-1,2.454745331E0,9.452094269E0,1.036744080E0,9.820524375E0
3.218053334E-1,2.255210266E0,9.433682556E0,9.831555176E-1,9.749201746E0
3.318843333E-1,2.117496643E0,9.363179169E0,8.833131409E-1,9.640184557E0
3.419633333E-1,2.039957886E0,9.274413757E0,7.601193237E-1,9.526487291E0
3.520423333E-1,2.061662750E0,9.149124298E0,7.149133301E-1,9.405744510E0
3.621213334E-1,2.105820923E0,9.074429626E0,7.598199463E-1,9.346501011E0
3.722003333E-1,1.952240295E0,8.955576782E0,8.726852417E-1,9.207343656E0
3.822793333E-1,1.919608154E0,8.741222534E0,9.385482788E-1,8.998596542E0
3.923583333E-1,1.940115509E0,8.415499878E0,9.231303406E-1,8.685439310E0
4.024373334E-1,2.125579834E0,8.154293060E0,8.803193665E-1,8.472635194E0
4.125163333E-1,2.435435486E0,8.000562744E0,9.177415466E-1,8.413239553E0
4.225953333E-1,2.778072968E0,8.017477570E0,1.019679565E0,8.546191105E0
4.326743333E-1,2.991678772E0,8.173303528E0,1.119222565E0,8.775288689E0
4.427533334E-1,3.150648193E0,8.334967346E0,1.190324707E0,8.989724001E0
4.528323333E-1,3.446133728E0,8.562643890E0,1.237476654E0,9.312682564E0
4.629113333E-1,3.863465881E0,8.896300049E0,1.321751404E0,9.788643928E0
4.729903333E-1,4.338877258E0,9.355395355E0,1.430575104E0,1.041133148E1
4.830703334E-1,4.760400696E0,9.932744751E0,1.475930786E0,1.111301961E1
4.931493333E-1,4.852908325E0,1.055544983E1,1.412612457E0,1.170314976E1
5.032283333E-1,4.614903259E0,1.155162827E1,1.245559845E0,1.250155458E1
5.133073333E-1,4.245022430E0,1.226669128E1,1.100062408E0,1.302697462E1
5.233865416E-1,3.658991089E0,1.266306702E1,1.083746338E0,1.322558083E1
5.334655417E-1,3.324137421E0,1.294433212E1,1.034049683E0,1.340428597E1
5.435445417E-1,2.898123322E0,1.304552170E1,8.518785095E-1,1.339068528E1
5.536235417E-1,2.821183319E0,1.272159531E1,6.617738342E-1,1.304745213E1
5.637025416E-1,3.076402588E0,1.228899490E1,4.653822327E-1,1.267675941E1
5.737815417E-1,3.100053406E0,1.201491486E1,1.321751404E-1,1.240910877E1
5.838605417E-1,3.100502472E0,1.184816162E1,-8.711883545E-2,1.224743398E1
5.939395417E-1,2.986140289E0,1.156734558E1,8.098159790E-2,1.194684375E1
6.040185416E-1,3.142415314E0,1.121916962E1,5.010081482E-1,1.166171300E1
6.140975417E-1,3.348985748E0,1.094209579E1,8.695417786E-1,1.147611732E1
6.241765417E-1,3.428620148E0,1.076441528E1,1.115180969E0,1.135216724E1
6.342555417E-1,3.722309418E0,1.124551483E1,1.080303497E0,1.189471508E1
6.443345416E-1,3.830384674E0,1.149040558E1,9.116043091E-1,1.214628707E1
6.544135417E-1,3.494632874E0,1.130583939E1,6.409671021E-1,1.185096207E1
6.644925417E-1,3.350183258E0,1.088356750E1,5.057981873E-1,1.139875438E1
6.745715417E-1,3.298241272E0,1.034498749E1,4.824467468E-1,1.086875874E1
6.846505416E-1,3.197500763E0,9.694440308E0,4.572990417E-1,1.021838081E1
6.947295417E-1,3.105741577E0,9.038055267E0,4.863386536E-1,9.569148293E0
7.048085417E-1,2.910846863E0,8.359216919E0,4.581971741E-1,8.863378679E0
7.148875417E-1,2.701582031E0,7.538323975E0,4.484674072E-1,8.020348922E0
7.249665416E-1,2.644850006E0,6.781647491E0,4.632865906E-1,7.293874740E0
7.350455417E-1,2.804567871E0,6.341862030E0,4.194277954E-1,6.946994647E0
7.451245417E-1,2.575993195E0,5.837860107E0,3.246748352E-1,6.389191288E0
7.552035417E-1,1.656904449E0,4.819677429E0,4.685256958E-1,5.118021024E0
7.652825416E-1,6.683601379E-1,3.235072632E0,1.160087585E0,3.501171720E0
7.753615417E-1,8.837622070E-1,3.284020844E0,1.649719391E0,3.779868068E0
7.854405417E-1,1.962568817E0,4.421505432E0,1.375040588E0,5.029127486E0
7.955195417E-1,1.994602203E0,4.994513855E0,1.031205597E0,5.476037945E0
8.055985416E-1,1.820663910E0,5.692512360E0,9.502239990E-1,6.051647684E0
8.156775417E-1,2.109114075E0,7.098538513E0,9.066645813E-1,7.460539650E0
8.257565417E-1,2.741548920E0,8.751251678E0,1.082249451E0,9.234270967E0
8.358365417E-1,3.354374542E0,1.028810577E1,1.716480560E0,1.095642526E1
8.459155416E-1,3.933370514E0,1.232806366E1,2.258204041E0,1.313590662E1
8.559945417E-1,4.708758087E0,1.491423569E1,2.346370697E0,1.581493864E1
8.660735417E-1,5.367388458E0,1.772568924E1,1.781146088E0,1.860595064E1
8.761525417E-1,6.013744354E0,1.977612534E1,4.291575623E-1,2.067472928E1
8.862315416E-1,6.168672180E0,2.051379135E1,-1.362017670E0,2.146446468E1
8.963105417E-1,6.055806885E0,1.907243866E1,-2.705174561E0,2.019278789E1
9.063895417E-1,5.316045227E0,1.625484787E1,-2.596350861E0,1.729801879E1
9.164685417E-1,4.682412872E0,1.458013046E1,-1.359323273E0,1.537377489E1
9.265475416E-1,4.205654297E0,1.339429642E1,-2.531236267E-1,1.404132387E1
9.366265417E-1,3.757785645E0,1.212328949E1,8.810678101E-1,1.272286845E1
9.467055417E-1,3.552712097E0,1.127171036E1,1.810185699E0,1.195616953E1
9.567845417E-1,3.107388153E0,1.052266800E1,2.286345520E0,1.120757685E1
9.668635416E-1,2.346520386E0,9.834099884E0,2.516566772E0,1.041867490E1
9.769425417E-1,1.977388000E0,9.996212769E0,2.782264252E0,1.056292229E1
9.870215417E-1,1.656754761E0,1.009455826E1,3.233725433E0,1.072855642E1
9.971005417E-1,1.276096344E0,9.979297943E0,3.800596619E0,1.075450343E1
1.007179542E0,9.249266052E-1,1.017628830E1,4.446054382E0,1.114359602E1
1.017258542E0,3.864962769E-1,1.029484177E1,5.084476776E0,1.148847468E1
1.027337542E0,-1.917512512E-1,1.023646317E1,5.444927216E0,1.159608464E1
1.037416542E0,-7.038363647E-1,1.014515305E1,5.317242737E0,1.147573903E1
1.047495542E0,-9.818083191E-1,1.033914963E1,4.856650543E0,1.146512177E1
1.057574542E0,-1.082698517E0,1.084434906E1,4.136049042E0,1.165671670E1
1.067653542E0,-8.608598328E-1,1.078956299E1,3.324137421E0,1.132279289E1
1.077732542E0,6.617738342E-1,1.011805939E1,3.013832703E0,1.057810276E1
1.087811542E0,1.088835754E0,9.745035095E0,3.021616516E0,1.026067438E1
1.097890542E0,8.884025574E-1,9.443112946E0,3.004102936E0,9.949184673E0
1.107969542E0,1.300046539E0,8.881630554E0,2.901416473E0,9.433541215E0
1.118048542E0,2.026785278E0,7.986192627E0,2.546354828E0,8.623865383E0
1.128127542E0,2.387535095E0,7.117099915E0,1.926044769E0,7.750037644E0
1.138206542E0,2.612068176E0,6.417754211E0,1.272054749E0,7.044756387E0
1.148285542E0,2.644550629E0,6.049969025E0,8.219407654E-1,6.653672659E0
1.158364542E0,2.653232574E0,6.258635101E0,1.124162292E-1,6.798734723E0
1.168443542E0,2.586321716E0,6.175258484E0,-3.787124634E-1,6.705691649E0
1.178522542E0,2.220332794E0,4.873265991E0,-7.098239136E-1,5.402078223E0
1.188601542E0,1.783690796E0,3.605252838E0,-9.422904968E-1,4.131260372E0
1.198681542E0,1.179996185E0,3.685635681E0,-5.721102905E-1,3.911983072E0
1.208760542E0,5.089416504E-1,4.295617218E0,5.658233643E-2,4.326031721E0
1.218839542E0,7.888595581E-2,4.920567627E0,1.645079041E-1,4.923948783E0
1.228918542E0,5.688171387E-3,5.751489716E0,-2.496807861E-1,5.756909483E0
1.238997542E0,7.783813477E-3,6.441854095E0,-7.810757446E-1,6.489038765E0
1.249076542E0,4.707710266E-1,6.513554993E0,-9.698332214E-1,6.602166347E0
1.259155542E0,1.096619568E0,6.057303772E0,-7.729925537E-1,6.204113228E0
1.269234542E0,1.370998993E0,5.923631744E0,-6.415658569E-1,6.113972361E0
1.279313542E0,1.717378693E0,6.120322723E0,-5.631289673E-1,6.381602780E0
1.289392542E0,1.606908417E0,6.704857178E0,-2.451901245E-1,6.899085637E0
1.299471542E0,1.471739502E0,7.922425232E0,4.483177185E-1,8.070429201E0
1.309550542E0,1.759441223E0,9.808652802E0,1.255139923E0,1.004393745E1
1.319629542E0,2.092348938E0,1.227492416E1,2.188748474E0,1.264287575E1
1.329708542E0,2.279459839E0,1.504296799E1,3.405119019E0,1.559107625E1
1.339787542E0,2.180365906E0,1.729847763E1,4.679568787E0,1.805241501E1
1.349866542E0,1.946103058E0,1.870674911E1,4.964576111E0,1.945190982E1
1.359945542E0,2.333647156E0,1.979423767E1,3.579057312E0,2.025012112E1
1.370024542E0,3.527414703E0,1.998329453E1,8.921447754E-1,2.031183490E1
1.380103542E0,4.636907501E0,1.907977341E1,-1.416354675E0,1.968615567E1
1.390182542E0,5.623206482E0,1.732033218E1,-1.928739166E0,1.831213786E1
1.400261542E0,6.142776031E0,1.576431793E1,-1.363215179E0,1.697367883E1
1.410340542E0,6.410120087E0,1.471155716E1,-6.282435608E-1,1.605970870E1
1.420419542E0,6.426735535E0,1.401909714E1,1.698966980E-1,1.542293354E1
1.430498542E0,5.825136566E0,1.360146561E1,9.610015869E-1,1.482752868E1
1.440577542E0,4.418062592E0,1.312156357E1,1.728904724E0,1.395291436E1
1.450656542E0,3.519930267E0,1.229378494E1,2.536026306E0,1.303681275E1
1.460735542E0,2.714754639E0,1.126991409E1,3.188968506E0,1.202291049E1
1.470814542E0,2.082918549E0,1.011596375E1,3.568878479E0,1.092740435E1
1.480893542E0,1.793570251E0,8.962163086E0,3.607049103E0,9.825887474E0
1.490972542E0,1.552571411E0,8.135731659E0,3.454067230E0,8.973917096E0
1.501051542E0,1.377285919E0,7.410489807E0,3.219505005E0,8.196187416E0
1.511130542E0,1.294358368E0,6.628665619E0,3.017724609E0,7.397380164E0
1.521209292E0,1.473835144E0,5.952222290E0,2.813249817E0,6.746518714E0
1.531288292E0,1.470092926E0,5.302872620E0,2.618654480E0,6.094176115E0
1.541367292E0,1.535506897E0,4.854255524E0,2.237247620E0,5.561191871E0
1.551446292E0,1.882784729E0,4.683760071E0,1.790726166E0,5.356228798E0
1.561525292E0,2.000440063E0,4.440216522E0,1.420845337E0,5.073074480E0
1.571604292E0,2.167043610E0,4.303550720E0,1.093176727E0,4.940815941E0
1.581683292E0,2.283501434E0,4.185596008E0,7.216493225E-1,4.822278558E0
1.591763292E0,2.358345795E0,4.190984802E0,4.162843323E-1,4.826949466E0
1.601842292E0,2.436483307E0,4.209396515E0,2.170486450E-2,4.863737352E0
1.611921292E0,2.539469147E0,3.751947784E0,-4.358935547E-1,4.551485353E0
1.622000292E0,2.525248718E0,2.995870056E0,-7.524851990E-1,3.989781004E0
1.632079292E0,2.753374329E0,2.480791168E0,-1.089434509E0,3.862934450E0
1.642158292E0,2.967878265E0,2.153272247E0,-1.351240082E0,3.907778465E0
1.652237292E0,3.043022003E0,2.205064545E0,-1.644629974E0,4.102084874E0
1.662316292E0,2.597398682E0,3.034040680E0,-2.053130493E0,4.490793647E0
1.672395292E0,1.622476044E0,3.106939087E0,-2.015558624E0,4.043262986E0
1.682474292E0,1.012195129E0,2.925216980E0,-1.507215729E0,3.442837872E0
1.692553292E0,6.095324707E-1,3.292253723E0,-5.757028198E-1,3.397336920E0
1.702632292E0,8.955876160E-1,4.054019623E0,6.225553894E-1,4.198181451E0
1.712711292E0,1.703457642E0,5.314398651E0,1.562600555E0,5.795370692E0
1.722790292E0,2.544259186E0,7.072342987E0,2.402803345E0,7.890801863E0
1.732869292E0,2.779569855E0,7.936945038E0,3.581901398E0,9.140630325E0
1.742948292E0,3.181184692E0,8.686286774E0,4.504882050E0,1.028909502E1
1.753027292E0,3.870950317E0,1.004441254E1,4.505929871E0,1.166952799E1
1.763106292E0,4.275558929E0,1.149968628E1,3.638334045E0,1.279690054E1
1.773185292E0,4.747377777E0,1.329849564E1,2.818339233E0,1.439897975E1
1.783264292E0,5.422623596E0,1.539728119E1,2.242486725E0,1.647755629E1
1.793343292E0,6.431226196E0,1.753378830E1,2.045945435E0,1.878776983E1
1.803422292E0,7.109615479E0,1.896600998E1,1.920057220E0,2.034558396E1
1.813501292E0,7.254663849E0,1.991803024E1,1.283431091E0,2.123688470E1
1.823580292E0,7.360044708E0,2.111658783E1,-2.203417969E-1,2.236356613E1
1.833659292E0,7.044051819E0,2.090432922E1,-2.324665833E0,2.218138223E1
1.843738292E0,5.958509216E0,1.906405609E1,-3.917054443E0,2.035400163E1
1.853817292E0,4.714296570E0,1.692096268E1,-3.471431122E0,1.790515021E1
1.863896292E0,4.478387146E0,1.573393112E1,-1.530267792E0,1.643028483E1
1.873975292E0,4.775818634E0,1.498189499E1,4.191284180E-2,1.572473776E1
1.884054292E0,4.905748444E0,1.426817917E1,1.214723969E0,1.513680478E1
1.894133292E0,4.883594513E0,1.343561050E1,1.879940643E0,1.441871360E1
1.904212292E0,4.543501740E0,1.256801468E1,1.999990997E0,1.351289625E1
1.914291292E0,4.028871918E0,1.148995651E1,1.893262939E0,1.232214893E1
1.924370292E0,3.623814240E0,1.047072601E1,1.452729034E0,1.117490736E1
1.934449292E0,3.071762238E0,9.657766571E0,9.051676941E-1,1.017484678E1
1.944528292E0,2.432591400E0,8.891060944E0,5.707630920E-1,9.235487866E0
1.954607292E0,1.910626831E0,8.314459991E0,7.159611511E-1,8.561152972E0
1.964686292E0,1.739981689E0,8.205187225E0,1.229842529E0,8.477331321E0
1.974765292E0,1.590442657E0,8.744665375E0,1.737436981E0,9.056344054E0
1.984844292E0,1.113384705E0,9.130712585E0,2.180515594E0,9.453263250E0
1.994923292E0,2.772235107E-1,8.965905304E0,2.601589966E0,9.339838390E0
2.005003292E0,-7.729925537E-1,8.779093781E0,3.039579163E0,9.322502163E0
2.015082292E0,-1.924847260E0,8.748557281E0,3.143313446E0,9.493298210E0
2.025161292E0,-2.703078918E0,8.695866852E0,2.773731995E0,9.519365794E0
2.035240292E0,-3.268752594E0,8.349337463E0,2.354304199E0,9.270325122E0
2.045319292E0,-3.706891479E0,7.266339569E0,2.165546722E0,8.439806146E0
2.055398292E0,-2.318977661E0,5.370980988E0,2.334245911E0,6.298714006E0
2.065477292E0,-4.415817261E-1,4.508175201E0,2.235900421E0,5.051523410E0
2.075556292E0,4.887336731E-1,4.273762665E0,1.620979156E0,4.596899101E0
2.085635292E0,8.993298340E-1,3.773053894E0,4.790039062E-1,3.908218850E0
2.095714292E0,1.349743195E0,3.409160614E0,-7.318281555E-1,3.738951087E0
2.105793292E0,1.330583038E0,3.071762238E0,-1.295555878E0,3.589518004E0
2.115872292E0,8.310717773E-1,2.705174561E0,-1.166374512E0,3.060895164E0
2.125951292E0,3.787124634E-1,2.816692657E0,-8.764274597E-1,2.974105874E0
2.136030292E0,1.372645569E-1,2.780318298E0,-2.809657288E-1,2.797847948E0
2.146109292E0,1.871109009E-1,2.787503357E0,5.255570984E-1,2.842779576E0
2.156188292E0,4.164340210E-1,2.686912537E0,1.045725403E0,2.913152569E0
2.166267292E0,1.018482056E0,2.979254608E0,1.064286804E0,3.323547821E0
2.176346292E0,1.389261017E0,3.692671051E0,7.165599060E-1,4.009903211E0
2.186425292E0,1.153052216E0,3.970343628E0,6.279441833E-1,4.181802462E0
2.196504292E0,8.155041504E-1,4.253404999E0,6.587800598E-1,4.380695409E0
2.206583292E0,9.984237671E-1,4.609813843E0,6.709048462E-1,4.764173275E0
2.216662292E0,1.666035461E0,5.031337280E0,6.664141846E-1,5.341735378E0
2.226741292E0,2.218835907E0,5.565426636E0,5.707630920E-1,6.018552727E0
2.236820292E0,2.622995453E0,6.244264984E0,2.903961182E-2,6.772871890E0
2.246899292E0,3.020568695E0,7.115603027E0,-6.165678406E-1,7.754727435E0
2.256978292E0,3.123704224E0,8.311316528E0,-1.059347076E0,8.941908451E0
2.267057292E0,2.883453827E0,9.911488953E0,-1.008452911E0,1.037154263E1
2.277136292E0,2.711012421E0,1.196776291E1,-3.589535522E-1,1.227622845E1
2.287215292E0,2.627186737E0,1.472697510E1,4.740641785E-1,1.496698508E1
2.297294292E0,2.722239075E0,1.771491165E1,1.426683197E0,1.797954686E1
2.307373292E0,2.898123322E0,2.036859329E1,2.263892212E0,2.069792065E1
2.317452292E0,3.430416412E0,2.279355057E1,2.171983337E0,2.315234796E1
2.327531292E0,4.811893616E0,2.502496033E1,7.185058594E-3,2.548338696E1
2.337610292E0,6.292165375E0,2.554228455E1,-3.535497894E0,2.654240739E1
2.347689292E0,7.259902954E0,2.330413879E1,-4.818330231E0,2.487981877E1
2.357768292E0,7.165149994E0,1.992955627E1,-3.460054779E0,2.145923034E1
2.367847292E0,6.115832062E0,1.744981293E1,-2.017354889E0,1.860024445E1
2.377926292E0,5.812862091E0,1.589035583E1,-1.184786224E0,1.696161822E1
2.388005292E0,5.414390717E0,1.489911713E1,-3.608995056E-1,1.585653072E1
2.398084292E0,4.646786957E0,1.419872360E1,6.730004883E-1,1.495490925E1
2.408163292E0,4.086053009E0,1.350177292E1,1.696571960E0,1.420816869E1
2.418242292E0,3.613635406E0,1.288864792E1,2.706072693E0,1.365644300E1
2.428321292E0,3.219505005E0,1.250724106E1,3.727548523E0,1.344213188E1
2.438400292E0,2.793640594E0,1.217223770E1,4.477489014E0,1.326709110E1
2.448480292E0,2.262095947E0,1.126647125E1,4.949307861E0,1.251183843E1
2.458559292E0,1.721569977E0,9.952952728E0,4.823569336E0,1.119338610E1
2.468638292E0,1.599723358E0,8.771160278E0,4.232448578E0,9.869447219E0
2.478717292E0,1.715881805E0,7.820936279E0,3.674109650E0,8.809675157E0
2.488796292E0,1.778751068E0,7.151378632E0,3.299738159E0,8.074307624E0
2.498875292E0,1.941313019E0,6.821913757E0,3.092119904E0,7.737467871E0
2.508954292E0,2.164049835E0,6.680757294E0,2.857557678E0,7.581640033E0
2.519032458E0,2.295925598E0,6.579567719E0,2.630779266E0,7.448690171E0
2.529111458E0,2.502196655E0,6.588848419E0,2.313888245E0,7.418085360E0
2.539190458E0,2.810705109E0,6.717880096E0,1.885628815E0,7.522338215E0
2.549269458E0,2.994522858E0,6.647676086E0,1.254990234E0,7.398227151E0
2.559348458E0,2.817291412E0,5.843997345E0,5.589376831E-1,6.511670078E0
2.569427458E0,2.697241058E0,4.855453033E0,-2.769241333E-2,5.554394689E0
2.579506458E0,2.811752930E0,4.098028107E0,-7.472460938E-1,5.025750255E0
2.589585458E0,3.083887024E0,3.321742401E0,-1.488354950E0,4.770695150E0
2.599664458E0,3.086282043E0,2.386786652E0,-1.847907257E0,4.317018485E0
2.609743458E0,2.162103882E0,1.428329773E0,-1.783541107E0,3.145765092E0
2.619822458E0,6.577322388E-1,7.851173401E-1,-1.398242340E0,1.733234715E0
2.629901458E0,2.091151428E-1,1.959425354E-1,-6.243516541E-1,6.869771525E-1
2.639980458E0,7.478448486E-1,-1.212478638E-1,8.397537231E-2,7.622498444E-1
2.650059458E0,1.423090668E0,4.587959290E-1,4.989125061E-1,1.576259637E0
2.660138458E0,1.854044495E0,1.480271759E0,8.146060181E-1,2.508439442E0
2.670217458E0,2.136058044E0,2.273621979E0,1.315763855E0,3.385754775E0
2.680296458E0,1.818268890E0,2.687511292E0,1.953138428E0,3.787290379E0
2.690375458E0,1.283580780E0,3.619473267E0,2.190245361E0,4.421011320E0
2.700454458E0,1.163380737E0,4.841082916E0,2.211800537E0,5.448082246E0
2.710533458E0,1.089733887E0,5.645360413E0,2.352208557E0,6.212125178E0
2.720612458E0,1.048719177E0,6.236481171E0,2.819087677E0,6.923926966E0
2.730691458E0,1.715432739E0,7.569459229E0,3.090323639E0,8.354012371E0
2.740770458E0,2.411784668E0,9.409882050E0,3.041225739E0,1.017898028E1
2.750849458E0,3.029550018E0,1.160985718E1,2.769690399E0,1.231414398E1
2.760928458E0,3.818110199E0,1.373334137E1,2.580034790E0,1.448582791E1
2.771007458E0,4.853207703E0,1.593616058E1,2.714904327E0,1.687855280E1
2.781086458E0,5.968688049E0,1.866274063E1,2.514920197E0,1.975469434E1
2.791165458E0,6.927444305E0,2.140219391E1,1.898502045E0,2.257537815E1
2.801244458E0,7.939489746E0,2.300670731E1,3.240760803E-1,2.434027740E1
2.811323458E0,9.113947449E0,2.308364731E1,-2.888393555E0,2.498522821E1
2.821402458E0,9.403146057E0,2.154634415E1,-4.511767731E0,2.393783929E1
2.831481458E0,7.006180573E0,1.933334610E1,-2.386038208E0,2.070164283E1
2.841560458E0,5.321583710E0,1.769919434E1,-2.279759216E-1,1.848330886E1
2.851639458E0,5.164859619E0,1.675450882E1,8.774752808E-1,1.755446677E1
2.861718458E0,4.414020996E0,1.601025650E1,1.639839935E0,1.668834832E1
2.871797458E0,3.466341705E0,1.461066696E1,1.644929352E0,1.510605529E1
2.881876458E0,3.036585388E0,1.309596680E1,1.358874207E0,1.351191090E1
2.891955458E0,3.091670837E0,1.164907562E1,1.066532135E0,1.209945793E1
2.902034458E0,2.948867798E0,1.040426422E1,1.009051666E0,1.086106443E1
2.912113458E0,2.330204315E0,9.292975159E0,1.235979767E0,9.660066534E0
2.922192458E0,1.756148071E0,7.878267059E0,1.803000641E0,8.270547698E0
2.932272458E0,1.372645569E0,7.255861359E0,2.431094513E0,7.774438915E0
2.942351458E0,9.286688232E-1,7.150480499E0,2.864892426E0,7.758827602E0
2.952430458E0,4.944218445E-1,7.177274780E0,3.058290253E0,7.817343890E0
2.962509458E0,1.619631958E-1,7.374115448E0,3.009192352E0,7.966118837E0
2.972588458E0,-1.957928467E-1,7.747738495E0,2.802023163E0,8.241184407E0
2.982667458E0,-4.412823486E-1,8.131690063E0,2.370320892E0,8.481599763E0
2.992746458E0,-5.779481506E-1,8.576415253E0,1.852846985E0,8.793290886E0
3.002825458E0,-8.740324402E-1,8.994645538E0,1.396146698E0,9.144222584E0
3.012904458E0,-1.435814209E0,9.138795776E0,1.228794708E0,9.332153402E0
3.022983458E0,-2.569855957E0,8.265062714E0,1.696272583E0,8.820020520E0
3.033062458E0,-3.062331848E0,6.988666992E0,2.366129608E0,7.988611394E0
3.043141458E0,-1.575473785E0,5.622907104E0,2.768792267E0,6.462616542E0
3.053220458E0,-4.068539429E-1,4.590503998E0,2.847977600E0,5.417493285E0
3.063299458E0,5.234614563E-1,4.156556396E0,2.296524353E0,4.777551368E0
3.073378458E0,9.407936096E-1,3.815266113E0,1.241518250E0,4.121009063E0
3.083457458E0,1.126856689E0,3.600762177E0,3.363505554E-1,3.787931619E0
3.093536458E0,1.512155457E0,3.528612213E0,-6.104306030E-1,3.887202567E0
3.103615458E0,1.907183990E0,3.481460266E0,-1.048120422E0,4.105663500E0
3.113694458E0,1.728156281E0,3.379522247E0,-7.996371460E-1,3.879061009E0
3.123773458E0,1.261576538E0,3.494034119E0,-3.070115662E-1,3.727479830E0
3.133852458E0,9.524693298E-1,3.376528473E0,-1.472937012E-1,3.511386875E0
3.143931458E0,6.818321228E-1,3.427272949E0,-1.731898499E-1,3.498726859E0
3.154010458E0,4.326004028E-1,3.568728790E0,-2.200424194E-2,3.594920371E0
3.164089458E0,3.993695068E-1,3.456013184E0,1.179547119E-1,3.481010836E0
3.174168458E0,2.342628479E-1,3.849544830E0,9.580078125E-2,3.857855916E0
3.184247458E0,8.502319336E-2,4.414020996E0,1.043330383E-1,4.416072427E0
3.194326458E0,3.312611389E-1,4.775968323E0,1.874102783E-1,4.791109472E0
3.204405458E0,7.300318909E-1,5.485642548E0,2.571652222E-1,5.539977859E0
3.214484458E0,8.104147339E-1,6.261030121E0,5.017565918E-1,6.333169024E0
3.224563458E0,9.298663330E-1,7.489375763E0,5.049000549E-1,7.563750709E0
3.234642458E0,9.551637268E-1,9.299411774E0,3.197351074E-1,9.353802843E0
3.244721458E0,8.657995605E-1,1.153321655E1,4.742138672E-1,1.157538646E1
3.254800458E0,1.174008636E0,1.378288834E1,1.146615601E0,1.388023899E1
3.264879458E0,1.832339630E0,1.634091888E1,1.902992706E0,1.655308067E1
3.274958458E0,2.226020966E0,1.838207428E1,3.007545776E0,1.875902865E1
3.285037458E0,2.896177368E0,1.987731491E1,3.527714081E0,2.039461346E1
3.295116458E0,4.426445160E0,2.091989685E1,1.738335114E0,2.145360832E1
3.305195458E0,5.991440735E0,2.121687927E1,-1.397493896E0,2.209086502E1
3.315274458E0,6.747069397E0,2.055211166E1,-2.135608978E0,2.173644555E1
3.325353458E0,6.684200134E0,1.966385880E1,-7.520361328E-1,2.078247898E1
3.335432458E0,6.224206696E0,1.851739288E1,7.140151978E-2,1.953560049E1
3.345511458E0,6.150709534E0,1.777179337E1,3.725752258E-1,1.880974959E1
3.355590458E0,6.142925720E0,1.694880478E1,5.394781494E-1,1.803575772E1
3.365669458E0,5.737568665E0,1.548440002E1,7.969427490E-1,1.653243648E1
3.375748458E0,5.080584869E0,1.393452301E1,1.014590149E0,1.486649479E1
3.385827458E0,4.364474030E0,1.292592041E1,1.122815094E0,1.368900163E1
3.395906458E0,3.639531555E0,1.223540634E1,1.506018219E0,1.285377179E1
3.405985458E0,3.025658112E0,1.153261780E1,2.199376373E0,1.212407261E1
3.416064458E0,2.246528320E0,1.054317535E1,2.823129272E0,1.114340589E1
3.426143458E0,1.277593231E0,9.471404114E0,3.172951813E0,1.007012232E1
3.436222458E0,6.538403320E-1,8.514294434E0,3.313060455E0,9.159535275E0
3.446301458E0,6.261479187E-1,7.663613434E0,3.337310028E0,8.382163820E0
3.456381458E0,8.711883545E-1,7.134314117E0,3.162922668E0,7.852482848E0
3.466460458E0,1.082997894E0,6.863976288E0,2.800077209E0,7.491828034E0
3.476539458E0,1.346749420E0,6.723568268E0,2.423759766E0,7.272875336E0
3.486618458E0,1.826052704E0,6.753805389E0,2.225122833E0,7.341629747E0
3.496697458E0,2.306703186E0,7.059918823E0,2.186652832E0,7.742401694E0
3.506776458E0,2.611619110E0,7.169640656E0,2.121687927E0,7.919965983E0
3.516855458E0,2.784509583E0,7.088060303E0,1.923799438E0,7.854622636E0
3.526934792E0,2.710862732E0,6.703509979E0,1.548380127E0,7.394816009E0
3.537013792E0,2.592458954E0,5.966442719E0,1.051563263E0,6.589769908E0
3.547092792E0,2.498155060E0,5.297932892E0,5.215155029E-1,5.880548448E0
3.557171792E0,2.362836456E0,4.547243958E0,1.477427673E-1,5.126621856E0
3.567250792E0,2.144739990E0,3.775598602E0,-2.104623413E-1,4.347338131E0
3.577329792E0,2.063459015E0,3.207978973E0,-5.806425476E-1,3.858255819E0
3.587408792E0,2.090253296E0,2.930456085E0,-9.985734558E-1,3.735489346E0
3.597487792E0,1.818568268E0,2.898123322E0,-1.199006653E0,3.625455321E0
3.607566792E0,1.800306244E0,2.775079193E0,-1.118174744E0,3.491773454E0
3.617645792E0,1.834285583E0,2.441423035E0,-8.535250854E-1,3.170749928E0
3.627724792E0,1.564097443E0,2.203268280E0,-5.625302124E-1,2.759933362E0
3.637803792E0,1.359023895E0,1.937271423E0,-1.182540894E-1,2.369377670E0
3.647882792E0,1.288071442E0,1.972747650E0,4.733157349E-1,2.403099897E0
3.657961792E0,1.745071106E0,2.802472229E0,9.008267212E-1,3.422077226E0
3.668040792E0,2.345173187E0,4.170028381E0,1.387015686E0,4.981243469E0
3.678119792E0,1.947300568E0,4.615651703E0,2.102527771E0,5.432940564E0
3.688198792E0,1.328038330E0,5.093009033E0,2.631976776E0,5.884702930E0
3.698277792E0,1.248104553E0,6.024372253E0,2.983146515E0,6.837396372E0
3.708356792E0,1.194665680E0,7.166796570E0,3.084036713E0,7.893128759E0
3.718435792E0,1.508712616E0,8.972491608E0,2.813549194E0,9.523543378E0
3.728514792E0,2.103126526E0,1.134026779E1,2.412832489E0,1.178331767E1
3.738593792E0,3.149600372E0,1.410920975E1,2.209405518E0,1.462433776E1
3.748672792E0,4.722080383E0,1.708547058E1,2.294877777E0,1.787394227E1
3.758751792E0,6.234535217E0,1.967942642E1,2.518063660E0,2.079639147E1
3.768830792E0,7.377707977E0,2.111554001E1,2.245181122E0,2.247971181E1
3.778909792E0,7.540120239E0,2.094235016E1,9.330097961E-1,2.227792519E1
3.788988792E0,7.002438354E0,1.966086502E1,-1.411714325E0,2.091833391E1
3.799067792E0,7.301217041E0,1.836126755E1,-4.740641785E0,2.032037403E1
3.809146792E0,7.592361603E0,1.728680191E1,-6.393953705E0,1.993389372E1
3.819225792E0,6.759343872E0,1.624122620E1,-4.038002930E0,1.804914473E1
3.829304792E0,6.076164551E0,1.572539886E1,-1.442250824E0,1.692004824E1
3.839383792E0,5.865103455E0,1.496917145E1,3.637435913E-2,1.607721541E1
3.849462792E0,5.498515778E0,1.384126694E1,1.106648712E0,1.493449087E1
3.859541792E0,4.966522064E0,1.258163635E1,1.445244598E0,1.360340570E1
3.869620792E0,3.974834290E0,1.164967438E1,1.334025879E0,1.238118919E1
3.879699792E0,3.147055664E0,1.113100296E1,1.010847931E0,1.161141679E1
3.889778792E0,2.282902679E0,1.045396088E1,7.574249268E-1,1.072709817E1
3.899857792E0,1.422641602E0,9.395511932E0,8.199948120E-1,9.537921424E0
3.909936792E0,6.391708374E-1,8.338410187E0,1.091380463E0,8.433785337E0
3.920015792E0,6.346801758E-2,7.668852539E0,1.524280243E0,7.819127682E0
3.930094792E0,-2.956352234E-1,7.756121063E0,2.118993530E0,8.045803112E0
3.940173792E0,-7.403604126E-1,8.194110260E0,2.838247833E0,8.703288301E0
3.950252792E0,-1.519639893E0,8.483757935E0,3.642525330E0,9.356892907E0
3.960331792E0,-2.231260071E0,9.040300598E0,4.128265228E0,1.018568261E1
3.970410792E0,-2.741698608E0,9.732012177E0,4.109404449E0,1.091403579E1
3.980489792E0,-3.156186676E0,1.029978149E1,3.809128876E0,1.142613128E1
3.990568792E0,-3.045866089E0,1.070214478E1,3.217708740E0,1.158304159E1
4.000647792E0,-1.777254181E0,1.001627106E1,2.994373169E0,1.060427220E1
4.010726792E0,-7.455995178E-1,9.105265503E0,3.233575745E0,9.691119162E0
4.020805792E0,2.981799316E-1,8.467591553E0,3.023412781E0,8.996112650E0
4.030884792E0,1.302890625E0,8.179740143E0,2.303410034E0,8.597172243E0
4.040963792E0,1.770967255E0,8.179141388E0,1.538500671E0,8.508916686E0
4.051043792E0,1.240320740E0,8.098758545E0,8.366102600E-1,8.235787894E0
4.061122792E0,8.184979248E-1,7.710765381E0,-7.559280396E-2,7.754453938E0
4.071201792E0,1.131347351E0,7.081923065E0,-1.144819336E0,7.262519703E0
4.081280792E0,6.480024719E-1,6.532116394E0,-1.505269775E0,6.734559294E0
4.091359792E0,4.679269409E-1,6.237828369E0,-1.310225372E0,6.391099194E0
4.101438792E0,9.385482788E-1,5.888903961E0,-9.794132996E-1,6.043121143E0
4.111517792E0,7.679031372E-1,5.433850250E0,-6.045927429E-1,5.521044843E0
4.121596792E0,6.950047302E-1,4.670138397E0,-1.713935852E-1,4.724679882E0
4.131675792E0,7.273374939E-1,3.957320709E0,4.131408691E-2,4.023818321E0
4.141754792E0,7.361691284E-1,3.386407928E0,2.844085693E-2,3.465618635E0
4.151833792E0,7.096742249E-1,3.035088501E0,-9.864486694E-2,3.118514153E0
4.161912792E0,4.661306763E-1,2.996917877E0,-8.622070312E-2,3.034176755E0
4.171991792E0,4.638853455E-1,3.305126953E0,2.531236267E-1,3.347107014E0
4.182070792E0,8.994795227E-1,3.869303741E0,7.120692444E-1,4.035792049E0
4.192149792E0,1.318308563E0,4.662204895E0,8.080197144E-1,4.911923026E0
4.202228792E0,1.457219696E0,5.085075531E0,6.644682312E-1,5.331322578E0
4.212307792E0,1.785636749E0,5.425018616E0,6.156697083E-1,5.744421187E0
4.222386792E0,2.031425629E0,6.009553070E0,4.420307922E-1,6.358994371E0
4.232465792E0,2.134710846E0,6.613996124E0,2.356100464E-1,6.953951914E0
4.242544792E0,2.306852875E0,7.334897003E0,1.302291870E-2,7.689112682E0
4.252623792E0,2.534230042E0,8.358917542E0,-2.392025757E-1,8.737908345E0
4.262702792E0,2.715203705E0,9.656119995E0,-3.760180664E-1,1.003764784E1
4.272781792E0,3.081342316E0,1.108160568E1,-4.412823486E-1,1.151049022E1
4.282860792E0,3.480861511E0,1.262205231E1,-5.834866333E-1,1.310622211E1
4.292939792E0,4.020489349E0,1.411624512E1,-1.024469604E0,1.471333575E1
4.303018792E0,4.988825684E0,1.555175995E1,-1.752854919E0,1.642614135E1
4.313097792E0,6.231541443E0,1.677666275E1,-2.724334717E0,1.810277662E1
4.323176792E0,6.961573334E0,1.721540039E1,-3.569626923E0,1.890967346E1
4.333255792E0,7.039112091E0,1.718725891E1,-3.499572601E0,1.889968191E1
4.343334792E0,6.867269440E0,1.703008575E1,-2.677332458E0,1.855670551E1
4.353413792E0,6.735243988E0,1.675600571E1,-1.676363983E0,1.813663241E1
4.363492792E0,6.352639618E0,1.634930145E1,-6.758445740E-1,1.755313231E1
4.373571792E0,5.707181854E0,1.570219711E1,2.743794250E-1,1.670946447E1
4.383650792E0,5.211712189E0,1.489028549E1,1.077160034E0,1.581274232E1
4.393729792E0,4.931345215E0,1.436278244E1,1.809736633E0,1.529322830E1
4.403808792E0,4.892575836E0,1.433583847E1,2.495310974E0,1.535187740E1
4.413887792E0,4.904850311E0,1.418345535E1,3.153941345E0,1.533542658E1
4.423966792E0,4.887935486E0,1.339699081E1,3.723207550E0,1.473884496E1
4.434045792E0,4.852010193E0,1.229079117E1,3.804937592E0,1.375074909E1
4.444124792E0,4.547094269E0,1.107771378E1,3.273692322E0,1.241405938E1
4.454203792E0,4.128115540E0,1.008437943E1,2.454146576E0,1.116955154E1
4.464282792E0,3.822900238E0,9.283395081E0,2.014660492E0,1.023986559E1
4.474361792E0,3.812272339E0,8.977730713E0,1.960922241E0,9.948783100E0
4.484440792E0,3.924389191E0,9.013356628E0,2.125130768E0,1.005771391E1
4.494519792E0,3.855682068E0,9.114995270E0,2.334545288E0,1.016855568E1
4.504598792E0,3.692671051E0,8.927884369E0,2.621797943E0,1.001083230E1
4.514677792E0,3.489992523E0,8.669970703E0,3.101999359E0,9.847377307E0
4.524757667E0,3.279679871E0,8.246651001E0,3.326083374E0,9.477678165E0
4.534836667E0,3.479214935E0,7.634424133E0,3.466641083E0,9.077828419E0
4.544915667E0,3.546874237E0,6.910230103E0,3.332070923E0,8.451881066E0
4.554994667E0,3.545377350E0,6.291267242E0,2.746937714E0,7.726280533E0
4.565073667E0,3.419489136E0,5.451064453E0,2.040107574E0,6.750485059E0
4.575152667E0,3.497476959E0,4.365222473E0,1.277144165E0,5.737474143E0
4.585231667E0,4.001478882E0,3.321443024E0,8.913963318E-1,5.276211181E0
4.595310667E0,4.268373871E0,1.911674652E0,1.127156067E0,4.810820749E0
4.605389667E0,4.669240265E0,1.095272369E0,1.709295502E0,5.091474966E0
4.615468667E0,5.412594452E0,1.481020203E0,2.025587769E0,5.965953851E0
4.625547667E0,5.494923248E0,1.660347290E0,2.448907471E0,6.240839882E0
4.635626667E0,3.212619324E0,1.967508545E0,2.684966583E0,4.626127792E0
4.645705667E0,2.349364471E0,2.605182495E0,2.861599274E0,4.527166846E0
4.655784667E0,2.272274780E0,3.325334930E0,2.995420990E0,5.019325850E0
4.665863667E0,2.107467499E0,3.863765259E0,3.097059631E0,5.381624252E0
4.675942667E0,1.878593445E0,4.330494690E0,3.246299286E0,5.728940272E0
4.686021667E0,1.522933044E0,4.678371277E0,2.945574646E0,5.734360719E0
4.696101667E0,9.494755554E-1,4.412224731E0,2.412832489E0,5.117713506E0
4.706179667E0,5.914201355E-1,4.207151184E0,1.999242554E0,4.695409423E0
4.716259667E0,6.298901367E-1,4.336332550E0,1.590891724E0,4.661703342E0
4.726338667E0,8.605604553E-1,4.777016144E0,1.096320190E0,4.976179809E0
4.736417667E0,1.215771790E0,5.586832123E0,8.038284302E-1,5.773814541E0
4.746496667E0,1.915117493E0,6.873107300E0,8.848100281E-1,7.189587453E0
4.756575667E0,2.977009277E0,8.259374542E0,1.167721710E0,8.856829346E0
4.766654667E0,4.391417999E0,9.622440033E0,1.273701324E0,1.065355430E1
4.776733667E0,5.596861267E0,1.121887024E1,9.840536499E-1,1.257601952E1
4.786812667E0,6.672075348E0,1.320404205E1,4.629872131E-1,1.480127269E1
4.796891667E0,7.602241058E0,1.541584259E1,-2.345622253E-1,1.719003465E1
4.806970667E0,8.358318787E0,1.729713043E1,-1.010698242E0,1.923730036E1
4.817049667E0,8.920250244E0,1.831890564E1,-1.491199036E0,2.042980281E1
4.827128667E0,8.811725922E0,1.834944214E1,-1.586401062E0,2.041727721E1
4.837207667E0,7.574099579E0,1.773197617E1,-6.873706055E-1,1.929410380E1
4.847286667E0,6.972201233E0,1.733185822E1,6.438111877E-1,1.869276309E1
4.857365667E0,6.745123444E0,1.686752380E1,1.615740051E0,1.823789093E1
4.867444667E0,7.158863068E0,1.584185669E1,2.031126251E0,1.750254889E1
4.877523667E0,7.646548920E0,1.455124054E1,1.838776245E0,1.654053837E1
4.887602667E0,7.521259460E0,1.328547272E1,1.149309998E0,1.530993281E1
4.897681667E0,7.246131592E0,1.194710587E1,4.468208313E-1,1.397996461E1
4.907760667E0,6.788233795E0,1.087293961E1,2.486329651E-1,1.282040374E1
4.917839667E0,6.114484863E0,9.872569885E0,4.843927002E-1,1.162278786E1
4.927918667E0,5.530698853E0,8.848399658E0,8.701405334E-1,1.047090974E1
4.937997667E0,5.184019775E0,8.193511505E0,1.227746887E0,9.773180354E0
4.948076667E0,4.606221313E0,7.605384521E0,1.395398254E0,9.000349149E0
4.958155667E0,3.505111084E0,7.259154510E0,1.473835144E0,8.194712805E0
4.968234667E0,2.563569031E0,7.559729462E0,1.919308777E0,8.210063452E0
4.978313667E0,2.205812988E0,8.069269867E0,2.541115723E0,8.742768225E0
4.988392667E0,1.960772552E0,8.678502960E0,3.088677063E0,9.418119166E0
4.998471667E0,2.085313568E0,9.338630219E0,3.591631165E0,1.022048734E1
5.008550667E0,2.239043884E0,1.000474503E1,3.818110199E0,1.094011911E1
5.018629667E0,2.172133026E0,1.056592804E1,3.850742340E0,1.145361139E1
5.028708667E0,2.020198975E0,1.105840393E1,3.673810272E0,1.182651188E1
5.038787667E0,1.953437805E0,1.162916702E1,3.365152130E0,1.226285830E1
5.048866667E0,1.908680878E0,1.200623291E1,2.918181610E0,1.250233879E1
5.058945667E0,1.669328613E0,1.202778809E1,2.656974792E0,1.243036039E1
5.069024667E0,6.403683472E-1,1.101753891E1,2.912942505E0,1.141409082E1
5.079103667E0,-2.155517578E-1,1.060634399E1,3.690126343E0,1.123200908E1
5.089182667E0,-8.900491333E-1,1.048000671E1,4.082610168E0,1.128230623E1
5.099261667E0,-1.113235016E0,1.049856812E1,3.699107666E0,1.118671633E1
5.109340667E0,-1.053658905E0,1.012509476E1,3.438948669E0,1.074495737E1
5.119419667E0,2.492317200E-1,9.003926239E0,3.660338287E0,9.722699242E0
5.129498667E0,1.184636536E0,8.500373383E0,2.971171417E0,9.082266840E0
5.139577667E0,1.570084991E0,7.737709351E0,1.269210663E0,7.996762381E0
5.149656667E0,1.595831451E0,7.206164703E0,-2.020797729E-1,7.383517047E0
5.159735667E0,1.234033813E0,7.104975128E0,-1.892364807E0,7.455505053E0
5.169814667E0,5.783972168E-1,6.981481934E0,-3.440595245E0,7.804699160E0
5.179893667E0,1.308279419E-1,6.281238098E0,-3.377276917E0,7.132816230E0
5.189972667E0,-9.280700684E-3,5.321883087E0,-2.109563141E0,5.724751730E0
5.200051667E0,-2.077679443E-1,4.556225281E0,-6.505471802E-1,4.607121440E0
5.210130667E0,4.775070190E-2,4.054768066E0,5.403762817E-2,4.055409260E0
5.220209667E0,2.152523804E-1,3.532055054E0,-1.990859985E-2,3.538663991E0
5.230288667E0,3.906875610E-1,2.954705658E0,-6.954537964E-1,3.060486608E0
5.240367667E0,3.577560425E-1,2.282752991E0,-1.409618683E0,2.706653918E0
5.250446667E0,-4.879852295E-2,1.756297760E0,-1.710343323E0,2.451986419E0
5.260525667E0,-3.649411011E-1,1.222507782E0,-1.552421722E0,2.009407995E0
5.270604667E0,-1.068777466E-1,1.174906769E0,-8.855584717E-1,1.475141544E0
5.280683667E0,4.499642944E-1,1.822759552E0,-1.812730408E-1,1.886207880E0
5.290762667E0,8.840615845E-1,2.852617950E0,3.721261597E-1,3.009563413E0
5.300841667E0,1.419198761E0,4.265829163E0,7.979905701E-1,4.565984288E0
5.310920667E0,1.989063721E0,5.708229675E0,1.120719452E0,6.147867321E0
5.320999667E0,2.325414276E0,6.817722473E0,1.276246033E0,7.315578939E0
5.331078667E0,2.540666656E0,7.681127014E0,1.272354126E0,8.189846414E0
5.341157667E0,2.792742462E0,8.637039185E0,1.004111938E0,9.132693859E0
5.351236667E0,3.147654419E0,9.909542999E0,5.029541016E-1,1.040959815E1
5.361315667E0,3.488345947E0,1.132350266E1,-8.128097534E-2,1.184891879E1
5.371394667E0,3.861819305E0,1.276904663E1,-4.565505981E-1,1.334805749E1
5.381473667E0,4.320465546E0,1.426009598E1,-7.677534485E-1,1.491999347E1
5.391552667E0,4.894372101E0,1.592897552E1,-1.338666229E0,1.671763042E1
5.401631667E0,5.526507568E0,1.734353394E1,-2.484832764E0,1.837157721E1
5.411710667E0,6.111640778E0,1.803659271E1,-3.869453430E0,1.943305173E1
5.421789667E0,6.246210938E0,1.803973618E1,-4.741539917E0,1.967052193E1
5.431868667E0,5.641169128E0,1.749367172E1,-4.716841278E0,1.897629919E1
5.441947667E0,5.113815765E0,1.660122757E1,-3.997886353E0,1.782512170E1
5.452026667E0,4.734205170E0,1.602118378E1,-3.025358734E0,1.697774495E1
5.462105667E0,4.361031189E0,1.588257202E1,-2.220332794E0,1.661940326E1
5.472184667E0,4.148772583E0,1.576371918E1,-1.407073975E0,1.636114340E1
5.482264667E0,3.987408142E0,1.547302368E1,-6.273454285E-1,1.599085513E1
5.492343667E0,3.859424286E0,1.477188171E1,6.735992432E-3,1.526773364E1
5.502422667E0,3.658242645E0,1.380115036E1,3.933819580E-1,1.428318031E1
5.512501667E0,3.523672485E0,1.257654694E1,8.147557068E-1,1.308623810E1
5.522579708E0,3.302432556E0,1.147573608E1,1.401236115E0,1.202339561E1
5.532658708E0,3.113824768E0,1.059391983E1,2.087259521E0,1.123760181E1
5.542737708E0,2.922672272E0,9.580826569E0,2.837050323E0,1.041072070E1
5.552816708E0,2.688858490E0,8.379424896E0,3.610342255E0,9.512060385E0
5.562895708E0,2.642005920E0,7.635022888E0,4.227059784E0,9.118212775E0
5.572974708E0,2.421215057E0,7.337292023E0,4.726121979E0,9.057282459E0
5.583053708E0,1.997595978E0,7.408094788E0,5.215903473E0,9.277710230E0
5.593132708E0,2.008373566E0,7.595654755E0,5.832171936E0,9.784772099E0
5.603211708E0,2.593955841E0,8.081244965E0,6.237828369E0,1.053307314E1
5.613290708E0,3.336262207E0,8.429420929E0,5.912854156E0,1.082347574E1
5.623369708E0,3.957021332E0,8.751101990E0,5.405110016E0,1.102066323E1
5.633448708E0,4.409680023E0,9.552834778E0,4.640200653E0,1.149927790E1
5.643527708E0,5.004542999E0,1.035486694E1,3.916306000E0,1.214932808E1
5.653606708E0,5.389692078E0,1.043075912E1,3.385060730E0,1.221917152E1
5.663685708E0,5.462141418E0,9.931547241E0,3.096011810E0,1.174971951E1
5.673764708E0,5.335804138E0,9.376351776E0,2.905458069E0,1.117266598E1
5.683843708E0,4.912484436E0,8.859326935E0,2.836750946E0,1.051985423E1
5.693922708E0,3.116668854E0,8.761729889E0,2.622696075E0,9.662301491E0
5.704001708E0,2.118694153E0,8.827143860E0,2.213447113E0,9.343804458E0
5.714080708E0,2.049088898E0,8.716374207E0,1.677711182E0,9.109811163E0
5.724159708E0,1.674567719E0,8.138276367E0,1.300794983E0,8.409981383E0
5.734238708E0,9.912387085E-1,7.217241669E0,9.951306152E-1,7.352646899E0
5.744317708E0,3.489244080E-1,6.627168732E0,7.726931763E-1,6.681180164E0
5.754396708E0,-2.038760376E-1,6.284980316E0,5.128335571E-1,6.309163278E0
5.764475708E0,-7.083270264E-1,5.876779175E0,4.391867065E-1,5.935583005E0
5.774554708E0,-1.143621826E0,5.594765625E0,4.572990417E-1,5.728734214E0
5.784633708E0,-1.559157715E0,5.213807831E0,5.047503662E-1,5.465303085E0
5.794712708E0,-1.217268677E0,4.677922211E0,4.382885742E-1,4.853534394E0
5.804791708E0,4.090992737E-1,4.344864807E0,4.614903259E-1,4.388414945E0
5.814870708E0,1.211879883E0,4.644391937E0,4.816983032E-1,4.824008973E0
5.824949708E0,1.544338531E0,4.782854004E0,6.105802917E-1,5.062951927E0
5.835028708E0,1.736538849E0,4.834346924E0,6.755451965E-1,5.181007495E0
5.845107708E0,1.903890839E0,5.712870026E0,7.009922791E-1,6.062431396E0
5.855186708E0,1.870510254E0,7.629334717E0,7.830216980E-1,7.894218125E0
5.865265708E0,1.712888031E0,9.461674347E0,1.255888367E0,9.697139910E0
5.875344708E0,1.368903351E0,1.108534790E1,2.187101898E0,1.138166285E1
5.885423708E0,1.187480621E0,1.229198868E1,3.172203369E0,1.275013608E1
5.895502708E0,1.520837402E0,1.256427246E1,3.417543182E0,1.310929023E1
5.905581708E0,2.209854584E0,1.226160187E1,2.727627869E0,1.275422641E1
5.915660708E0,2.303110657E0,1.229947311E1,1.692680054E0,1.262721360E1
5.925739708E0,2.237846375E0,1.264435593E1,9.151968384E-1,1.287343305E1
5.935818708E0,2.115850067E0,1.331316513E1,3.185375977E-1,1.348401474E1
5.945897708E0,1.993853760E0,1.370055954E1,-4.011657715E-2,1.384494109E1
5.955976708E0,1.831291809E0,1.364188156E1,-2.351609802E-1,1.376625813E1
5.966055708E0,1.368753662E0,1.304806641E1,-4.049079895E-1,1.312590850E1
5.976134708E0,1.186732178E0,1.228495331E1,-6.944059753E-1,1.236165890E1
5.986213708E0,1.819017334E0,1.164114212E1,-1.082249451E0,1.183200227E1
5.996292708E0,2.467468872E0,1.151884644E1,-1.569635925E0,1.188427460E1
6.006371708E0,3.038830719E0,1.176268936E1,-1.932780762E0,1.230166634E1
6.016450708E0,3.403173065E0,1.198093552E1,-1.999242554E0,1.261433207E1
6.026529708E0,3.565735016E0,1.190624084E1,-1.479074249E0,1.251641713E1
6.036608708E0,3.290158081E0,1.161494659E1,-4.845423889E-1,1.208167645E1
6.046687708E0,2.723735962E0,1.179038177E1,1.969903564E-1,1.210250574E1
6.056766708E0,2.085612946E0,1.180894318E1,8.116122437E-1,1.201913619E1
6.066845708E0,1.438807983E0,1.205712708E1,1.716181183E0,1.226335026E1
6.076924708E0,1.274749146E0,1.257100845E1,2.887196045E0,1.296113961E1
6.087003708E0,1.137484589E0,1.299792068E1,4.309538269E0,1.374088547E1
6.097082708E0,6.932084656E-1,1.342558136E1,5.911506958E0,1.468579883E1
6.107161708E0,-1.666035461E-1,1.337618408E1,7.243886261E0,1.521262454E1
6.117240708E0,-9.665400696E-1,1.280616943E1,7.575147400E0,1.491023251E1
6.127319708E0,-1.247805176E0,1.213900681E1,6.542444916E0,1.384615793E1
6.137398708E0,-8.247848511E-1,1.103220840E1,4.741240540E0,1.203616443E1
6.147477708E0,-4.760101318E-2,9.760602722E0,3.132984924E0,1.025120607E1
6.157556708E0,2.204914856E-1,1.079001205E1,2.015109558E0,1.097878150E1
6.167635708E0,1.199904785E0,1.078731766E1,1.411564636E0,1.094525050E1
6.177714708E0,2.093097382E0,9.735155640E0,8.652008057E-1,9.995143041E0
6.187793708E0,2.037263489E0,9.543254700E0,1.207987976E-1,9.759034027E0
6.197872708E0,2.082170105E0,8.822952576E0,-4.047583008E-1,9.074345915E0
6.207951708E0,1.648521881E0,7.809559937E0,-7.481442261E-1,8.016643349E0
6.218030708E0,9.375004578E-1,6.611002350E0,-9.457333374E-1,6.743787565E0
6.228109708E0,5.649252319E-1,5.549709320E0,-8.641529846E-1,5.644924662E0
6.238188708E0,6.819818115E-1,4.850962372E0,-6.731501770E-1,4.944700829E0
6.248267708E0,8.457412720E-1,4.425247650E0,-5.403762817E-1,4.537631716E0
6.258346708E0,7.551795959E-1,4.086651764E0,-5.173242188E-1,4.187916333E0
6.268426708E0,5.941145325E-1,3.828289032E0,-5.385800171E-1,3.911372831E0
6.278504708E0,2.677931213E-1,3.078498230E0,-3.691323853E-1,3.112093062E0
6.288584708E0,2.775228882E-1,2.784210205E0,-2.279759216E-1,2.807279544E0
6.298663708E0,7.680528259E-1,2.784509583E0,-1.728904724E-1,2.893663746E0
6.308742708E0,1.004860382E0,2.711012421E0,-7.933502197E-2,2.892339326E0
6.318821708E0,1.172062683E0,2.595602417E0,1.317260742E-2,2.847991636E0
6.328900708E0,1.425635376E0,2.610720978E0,9.086105347E-2,2.975996636E0
6.338979708E0,1.428180084E0,2.751428375E0,1.880090332E-1,3.105705049E0
6.349058708E0,1.007255402E0,2.956202545E0,3.661386108E-1,3.144479991E0
6.359137708E0,3.864962769E-1,3.595074005E0,6.325845337E-1,3.670708333E0
6.369216708E0,-1.098715210E-1,4.516857147E0,9.846524048E-1,4.624241624E0
6.379295708E0,-4.230203247E-1,5.600304108E0,1.380279694E0,5.783383467E0
6.389374708E0,-8.523275757E-1,6.801855469E0,1.460512848E0,7.008908467E0
6.399453708E0,-1.055904236E0,8.136629791E0,1.469643860E0,8.335438272E0
6.409532708E0,-9.618997192E-1,9.689650269E0,1.708547058E0,9.886035932E0
6.419611708E0,-9.099577332E-1,1.125853775E1,2.021546173E0,1.147472633E1
6.429690708E0,-5.456153870E-1,1.267968246E1,2.008523254E0,1.284936610E1
6.439769708E0,1.901046753E-1,1.381567017E1,1.821562042E0,1.393653365E1
6.449848708E0,1.056353302E0,1.448223404E1,1.381177826E0,1.458624822E1
6.459927708E0,2.077978821E0,1.525807068E1,7.508386230E-1,1.541721361E1
6.470006708E0,3.217559052E0,1.641860733E1,-4.535568237E-2,1.673097158E1
6.480085708E0,4.578079834E0,1.787732391E1,-1.454076233E0,1.851139819E1
6.490164708E0,6.105054474E0,1.913396072E1,-3.484304352E0,2.038432044E1
6.500243708E0,7.278614044E0,1.926553711E1,-4.857997742E0,2.115985077E1
6.510322708E0,7.475155334E0,1.783780609E1,-4.551884308E0,1.986919536E1
6.520401708E0,6.839726715E0,1.585443054E1,-3.394640808E0,1.759739798E1
6.530481292E0,5.811514893E0,1.435499863E1,-2.327509918E0,1.566068304E1
6.540560292E0,5.262905731E0,1.369547012E1,-1.574425964E0,1.475611384E1
6.550639292E0,4.800517273E0,1.348605560E1,-5.990542603E-1,1.432750948E1
6.560718292E0,4.469555511E0,1.331376389E1,5.611830139E-1,1.405518273E1
6.570797292E0,4.317471771E0,1.304656952E1,1.655108185E0,1.384170950E1
6.580876292E0,4.063150635E0,1.263567398E1,2.556833038E0,1.351690960E1
6.590955292E0,3.670217743E0,1.199814972E1,3.319197693E0,1.297856573E1
6.601034292E0,3.146756287E0,1.121842117E1,3.823349304E0,1.226266890E1
6.611113292E0,2.725382538E0,1.042058029E1,4.083957367E0,1.151932773E1
6.621192292E0,2.529440002E0,1.003034180E1,4.212989044E0,1.116938226E1
6.631271292E0,2.801424408E0,9.941726074E0,4.139042816E0,1.112733443E1
6.641350292E0,2.981050873E0,1.005863297E1,3.798500977E0,1.115757013E1
6.651429292E0,3.080294495E0,1.052221893E1,3.478765869E0,1.150248310E1
6.661508292E0,2.999312897E0,1.074824890E1,3.332220612E0,1.164579008E1
6.671587292E0,2.906655579E0,1.089748856E1,3.277135162E0,1.174493586E1
6.681666292E0,2.896626434E0,1.105017105E1,3.295546875E0,1.188937989E1
6.691745292E0,2.422711945E0,1.117231705E1,2.982697449E0,1.181468093E1
6.701824292E0,2.606679382E0,1.085392914E1,2.428699493E0,1.142370940E1
6.711903292E0,3.269650726E0,1.039169037E1,1.779050446E0,1.103824556E1
6.721982292E0,3.636388092E0,9.730515289E0,1.265019379E0,1.046453631E1
6.732061292E0,3.548820190E0,8.939560089E0,7.952961731E-1,9.651028719E0
6.742140292E0,3.310366058E0,8.058342590E0,1.640588379E-1,8.713341727E0
6.752219292E0,3.306174774E0,7.415429535E0,-7.406597900E-1,8.152788710E0
6.762298292E0,3.573369141E0,6.709946594E0,-1.931433563E0,7.843646213E0
6.772377292E0,3.909570007E0,5.838159485E0,-3.194057922E0,7.718215456E0
6.782456292E0,3.826792145E0,4.878056030E0,-3.866010590E0,7.306559151E0
6.792535292E0,2.834505615E0,3.995491333E0,-3.843407593E0,6.226568477E0
6.802614292E0,1.600172424E0,3.426823883E0,-3.003504181E0,4.829566345E0
6.812693292E0,1.390009460E0,2.912343750E0,-1.868115234E0,3.728770166E0
6.822772292E0,9.800120544E-1,2.351909180E0,-7.054829407E-1,2.643786413E0
6.832851292E0,1.054407349E0,2.875520325E0,1.968406677E-1,3.069061460E0
6.842930292E0,9.684860229E-1,3.482657776E0,6.304888916E-1,3.669385044E0
6.853009292E0,4.790039062E-1,3.334016876E0,7.560777283E-1,3.452067034E0
6.863088292E0,1.953437805E-1,2.727627869E0,8.349636841E-1,2.859244190E0
6.873167292E0,2.185455322E-1,2.321073303E0,9.151968384E-1,2.504541611E0
6.883246292E0,4.746629333E-1,2.098785553E0,9.689350891E-1,2.359881545E0
6.893325292E0,8.357121277E-1,2.163900146E0,1.124910736E0,2.578042430E0
6.903404292E0,1.107097778E0,2.411934357E0,1.550775146E0,3.073759325E0
6.913483292E0,1.368304596E0,2.824626160E0,2.219135284E0,3.843869381E0
6.923562292E0,1.378633118E0,3.580853577E0,2.962788849E0,4.847809750E0
6.933641292E0,1.299298096E0,4.580175476E0,3.310366058E0,5.798681434E0
6.943720292E0,1.473535767E0,5.916296997E0,3.208278351E0,6.889624648E0
6.953799292E0,1.850751343E0,7.533533936E0,2.657423859E0,8.200080222E0
6.963878292E0,2.454296265E0,9.229507141E0,1.930086365E0,9.743336472E0
6.973957292E0,3.138972473E0,1.087713089E1,1.312021637E0,1.139677697E1
6.984036292E0,3.878135376E0,1.241652969E1,9.592053223E-1,1.304339751E1
6.994115292E0,4.590803375E0,1.384141663E1,8.517288208E-1,1.460772850E1
7.004194292E0,5.074896698E0,1.523846146E1,7.759863281E-1,1.608003230E1
7.014273292E0,4.889881439E0,1.627939682E1,3.987707520E-1,1.700260919E1
7.024352292E0,4.512665863E0,1.696961151E1,7.155120850E-2,1.755952698E1
7.034431292E0,4.684358826E0,1.765563492E1,-1.525328064E-1,1.826712698E1
7.044510292E0,5.171445923E0,1.779035477E1,-1.032103729E0,1.855547935E1
7.054589292E0,5.789810028E0,1.745909363E1,-3.451971588E0,1.871517989E1
7.064668292E0,6.548282776E0,1.664748138E1,-5.182373199E0,1.862459760E1
7.074747292E0,7.030879211E0,1.559142746E1,-4.259991302E0,1.762592972E1
7.084826292E0,7.075935516E0,1.486768250E1,-2.425705719E0,1.664334385E1
7.094905292E0,7.157665558E0,1.475451782E1,-1.221459961E0,1.644445003E1
7.104984292E0,6.847510529E0,1.447744400E1,-6.361770630E-1,1.602777297E1
7.115063292E0,4.901557159E0,1.402553375E1,-6.153703308E-1,1.487008878E1
7.125142292E0,3.732039185E0,1.331541046E1,-3.897894287E-1,1.383402357E1
7.135221292E0,3.165167999E0,1.273716293E1,3.826043701E-1,1.313011783E1
7.145300292E0,2.568808136E0,1.193902267E1,1.267863464E0,1.227788725E1
7.155379292E0,1.722767487E0,1.085228256E1,2.036215668E0,1.117524670E1
7.165458292E0,4.194277954E-1,9.794582062E0,2.738704834E0,1.017891259E1
7.175537292E0,-1.015338593E0,9.200168152E0,3.631598053E0,9.942962883E0
7.185617292E0,-2.374512177E0,8.909472656E0,4.665647736E0,1.033369633E1
7.195696292E0,-3.498973846E0,9.282496948E0,5.239853668E0,1.121889629E1
7.205775292E0,-4.035907288E0,1.012808853E1,4.951104126E0,1.197414536E1
7.215854292E0,-3.568579102E0,1.021041733E1,4.140689392E0,1.158156671E1
7.225933292E0,-1.890568542E0,9.580676880E0,3.476670227E0,1.036585041E1
7.236012292E0,-9.988728333E-1,9.733658752E0,2.975512390E0,1.022719579E1
7.246091292E0,-3.562591553E-2,9.873168640E0,2.110910339E0,1.009636918E1
7.256170292E0,6.641688538E-1,1.001537292E1,1.337468719E0,1.012608699E1
7.266249292E0,9.485774231E-1,1.029888336E1,7.581733704E-1,1.037022779E1
7.276328292E0,1.492845612E0,9.997559967E0,2.477348328E-1,1.011143738E1
7.286407292E0,1.619182892E0,9.268875275E0,-1.404080200E-1,9.410287801E0
7.296486292E0,1.682800598E0,8.726702728E0,-6.045927429E-1,8.908012727E0
7.306565292E0,1.704056396E0,8.419092407E0,-1.301842804E0,8.687906529E0
7.316644292E0,1.440454559E0,7.922425232E0,-2.038460999E0,8.306326152E0
7.326723292E0,9.380992126E-1,6.909930725E0,-1.929487610E0,7.235336564E0
7.336802292E0,4.556524658E-1,6.118077393E0,-1.181193695E0,6.247696271E0
7.346881292E0,2.520758057E-1,5.843398590E0,-5.081932068E-1,5.870869580E0
7.356960292E0,2.016307068E-1,5.761069794E0,7.933502197E-3,5.764602593E0
7.367039292E0,2.429447937E-1,5.550607452E0,3.240760803E-1,5.565365268E0
7.377118292E0,7.087760925E-1,5.382507019E0,2.475851440E-1,5.434615328E0
7.387197292E0,1.091081085E0,5.372028809E0,-2.537223816E-1,5.487579293E0
7.397276292E0,8.437953186E-1,5.124743042E0,-6.947053528E-1,5.239999744E0
7.407355292E0,6.140231323E-1,4.828359375E0,-7.134164429E-1,4.919252147E0
7.417434292E0,5.095404053E-1,4.618944855E0,-4.161346436E-1,4.665560099E0
7.427513292E0,5.171745300E-1,4.515659637E0,8.831634521E-2,4.546036871E0
7.437592292E0,5.496569824E-1,4.251758423E0,6.360273743E-1,4.334063140E0
7.447671292E0,5.957611084E-1,3.849844208E0,8.279283142E-1,3.982674606E0
7.457750292E0,8.285270691E-1,3.470083923E0,6.144721985E-1,3.620154088E0
7.467829292E0,1.188528442E0,3.626957703E0,2.948867798E-1,3.828104002E0
7.477908292E0,1.510209503E0,4.060306549E0,2.200424194E-1,4.337653822E0
7.487987292E0,1.859882355E0,4.701872406E0,3.128494263E-1,5.066028154E0
7.498066292E0,2.023641815E0,5.526956635E0,4.138893127E-1,5.900311873E0
7.508145292E0,1.937720490E0,6.389463043E0,5.556445312E-1,6.699905934E0
7.518224292E0,1.666783905E0,7.360493774E0,8.220904541E-1,7.591499845E0
7.528302333E0,1.497935028E0,8.338410187E0,9.783654785E-1,8.528193994E0
7.538381333E0,1.784439240E0,9.386081543E0,1.178798676E0,9.626646168E0
7.548460333E0,2.045646057E0,1.070768326E1,1.269510040E0,1.097500817E1
7.558539333E0,2.402204590E0,1.177391602E1,1.266067200E0,1.208298851E1
7.568618333E0,2.898871765E0,1.272399033E1,1.018332367E0,1.308970543E1
7.578697333E0,3.337010651E0,1.374561584E1,3.465293884E-1,1.414912286E1
7.588776333E0,3.627556458E0,1.467203934E1,-7.140151978E-1,1.513068808E1
7.598855333E0,3.827091522E0,1.546628769E1,-1.927541656E0,1.604892835E1
7.608934333E0,4.091441803E0,1.619422394E1,-3.129542084E0,1.699372880E1
7.619013333E0,4.342469788E0,1.677127396E1,-3.894451447E0,1.775667272E1
7.629092333E0,4.353995819E0,1.693712906E1,-3.840413818E0,1.790453570E1
7.639171333E0,3.879482574E0,1.662068710E1,-3.101999359E0,1.734704657E1
7.649250333E0,2.994373169E0,1.600576584E1,-2.213447113E0,1.643320294E1
7.659329333E0,2.486479340E0,1.551284088E1,-1.457369385E0,1.577829957E1
7.669408333E0,1.875300293E0,1.531719772E1,-6.406677246E-1,1.544486168E1
7.679487333E0,1.281485138E0,1.539323959E1,3.314108276E-1,1.545004409E1
7.689566333E0,1.159339142E0,1.550206329E1,1.312620392E0,1.560067325E1
7.699645333E0,1.411864014E0,1.509910126E1,2.207609253E0,1.532480856E1
7.709724333E0,1.770069122E0,1.416519333E1,2.811154175E0,1.454951664E1
7.719803333E0,1.831740875E0,1.284553757E1,2.834655304E0,1.328150521E1
7.729882333E0,1.986219635E0,1.119177658E1,2.414479065E0,1.162026853E1
7.739961333E0,2.057621155E0,9.744586029E0,2.115700378E0,1.018169680E1
7.750040333E0,2.153122559E0,8.833879852E0,2.115401001E0,9.335324922E0
7.760119333E0,2.261197815E0,8.471782837E0,2.319875793E0,9.070057535E0
7.770198333E0,2.240241394E0,8.399782562E0,2.583926697E0,9.069272615E0
7.780277333E0,1.852397919E0,8.362659760E0,2.957250366E0,9.061500209E0
7.790356333E0,1.411714325E0,8.309819641E0,3.404520264E0,9.090478427E0
7.800435333E0,1.089733887E0,8.295748901E0,3.775448914E0,9.179378208E0
7.810514333E0,8.147557068E-1,8.215815125E0,3.998784485E0,9.173533800E0
7.820593333E0,5.447172546E-1,8.506660309E0,3.949237518E0,9.394491124E0
7.830672333E0,5.077441406E-1,9.005872192E0,3.886667633E0,9.821900190E0
7.840751333E0,5.102888489E-1,9.156758423E0,3.906276855E0,9.968230455E0
7.850830333E0,6.568341064E-1,8.891510010E0,3.591930542E0,9.612093753E0
7.860909333E0,8.223898315E-1,8.426576843E0,2.985391846E0,8.977532334E0
7.870988333E0,1.030756531E0,7.822882233E0,2.341880035E0,8.230695448E0
7.881067333E0,1.143472137E0,7.055577850E0,1.787882080E0,7.367851089E0
7.891146333E0,1.279239807E0,6.283333740E0,1.438209229E0,6.571543438E0
7.901225333E0,1.519340515E0,5.795498199E0,1.259031830E0,6.122201902E0
7.911304333E0,2.018103333E0,5.843997345E0,1.046922913E0,6.270653364E0
7.921383333E0,2.507136383E0,6.264772339E0,7.914042664E-1,6.794072859E0
7.931462333E0,2.936443634E0,6.973997498E0,5.379812622E-1,7.586090307E0
7.941541333E0,3.348686371E0,7.651488647E0,3.270698547E-1,8.358585623E0
7.951620333E0,3.533851318E0,7.996670837E0,1.802252197E-1,8.744560066E0
7.961699333E0,3.075205078E0,8.053253174E0,7.379653931E-2,8.620743523E0
7.971778333E0,2.554288330E0,7.874075775E0,6.735992432E-2,8.278284577E0
7.981857333E0,2.170486450E0,7.489226074E0,1.483415222E-1,7.798815540E0
7.991936333E0,1.781595154E0,7.208709412E0,2.924917603E-1,7.431360851E0
8.002015333E0,1.409918060E0,7.095395050E0,4.085005188E-1,7.245645073E0
8.012094333E0,1.117426300E0,7.172784119E0,5.623805237E-1,7.281053866E0
8.022173333E0,9.204359436E-1,7.246131592E0,7.494914246E-1,7.342708136E0
8.032252333E0,9.222322083E-1,7.237449646E0,8.785231018E-1,7.348672837E0
8.042331333E0,9.695338440E-1,7.257358246E0,1.007854156E0,7.390873736E0
8.052410333E0,1.016685791E0,7.183112640E0,1.100212097E0,7.337657927E0
8.062489333E0,1.123563538E0,7.119195557E0,1.151854706E0,7.298774531E0
8.072568333E0,1.165925446E0,7.039860535E0,1.179846497E0,7.232638263E0
8.082647333E0,1.254391479E0,6.955286407E0,1.176253967E0,7.164710768E0
8.092726333E0,1.498533783E0,6.920708313E0,1.168170776E0,7.176798034E0
8.102805333E0,1.795067139E0,7.139253845E0,1.229393463E0,7.463418773E0
8.112884333E0,2.094594269E0,7.667355652E0,1.364412689E0,8.064570034E0
8.122964333E0,2.302661591E0,8.378826141E0,1.491348724E0,8.816524198E0
8.133043333E0,2.449057159E0,9.072932739E0,1.640139313E0,9.539708928E0
8.143122333E0,2.487676849E0,9.552236023E0,1.800306244E0,1.003368585E1
8.153201333E0,2.455194397E0,9.620793457E0,1.774709473E0,1.008648799E1
8.163280333E0,2.318678284E0,9.328152008E0,1.456471252E0,9.721728107E0
8.173359333E0,2.309996338E0,8.840615845E0,1.024469604E0,9.194678329E0
8.183438333E0,2.310295715E0,8.466992798E0,6.668632507E-1,8.801825943E0
8.193517333E0,2.576741638E0,8.449479218E0,5.498066711E-1,8.850739172E0
8.203596333E0,2.991978149E0,8.762029266E0,5.629792786E-1,9.275884636E0
8.213675333E0,3.466192017E0,9.503138123E0,5.614823914E-1,1.013110970E1
8.223754333E0,3.938160553E0,1.045246399E1,4.348457336E-1,1.117820213E1
8.233833333E0,4.327201538E0,1.134835098E1,2.661465454E-1,1.214827466E1
8.243912333E0,4.426744537E0,1.193617859E1,3.442840576E-3,1.273061029E1
8.253991333E0,4.024980011E0,1.203976318E1,-4.501139832E-1,1.270271484E1
8.264070333E0,3.385210419E0,1.161330002E1,-1.062191162E0,1.214317244E1
8.274149333E0,2.735561371E0,1.117501144E1,-1.620230713E0,1.161849062E1
8.284228333E0,2.077978821E0,1.079794556E1,-1.958976288E0,1.116920822E1
8.294307333E0,1.506167908E0,1.035172348E1,-2.144889679E0,1.067835533E1
8.304386333E0,9.389973450E-1,9.843380585E0,-2.125430145E0,1.011391668E1
8.314465333E0,4.969665527E-1,9.347312164E0,-1.752405853E0,9.523137441E0
8.324544333E0,4.938230896E-1,9.088949432E0,-1.054407349E0,9.163222025E0
8.334623333E0,7.229965210E-1,9.126820679E0,-2.522254944E-1,9.158886252E0
8.344702333E0,1.013542328E0,9.314680023E0,5.174739075E-1,9.383939004E0
8.354781333E0,1.380429382E0,9.454638977E0,1.061891785E0,9.613708838E0
8.364860333E0,1.600322113E0,9.425599365E0,1.269809418E0,9.644447637E0
8.374939333E0,1.743125153E0,9.367969208E0,1.146016846E0,9.597431270E0
8.385018333E0,1.791025543E0,9.218729553E0,8.458909607E-1,9.429118654E0
8.395097333E0,1.805245972E0,9.091793518E0,6.141728210E-1,9.289608746E0
8.405176333E0,1.732197876E0,9.043893127E0,4.531077576E-1,9.219426176E0
8.415255333E0,1.682201843E0,9.063352661E0,3.490740967E-1,9.224750253E0
8.425334333E0,1.658700714E0,9.238638153E0,2.311193848E-1,9.389203329E0
8.435413333E0,1.637744293E0,9.532926178E0,9.969268799E-2,9.673098083E0
8.445492333E0,1.538201294E0,9.739197235E0,8.921447754E-2,9.860323789E0
8.455571333E0,1.401984558E0,9.847272491E0,1.293310547E-1,9.947414877E0
8.465650333E0,1.400038605E0,9.842482452E0,1.541793823E-1,9.942753150E0
8.475729333E0,1.446142731E0,9.771230621E0,3.442840576E-2,9.877725546E0
8.485808333E0,1.538500671E0,9.650731201E0,-1.965412903E-1,9.774570349E0
8.495887333E0,1.572480011E0,9.584419098E0,-3.348536682E-1,9.718328550E0
8.505966333E0,1.594334564E0,9.612710266E0,-3.279679871E-1,9.749546880E0
8.516045333E0,1.590592346E0,9.627978516E0,-2.525248718E-1,9.761747954E0
8.526125208E0,1.501078491E0,9.565857697E0,-9.400451660E-2,9.683372706E0
8.536204208E0,1.397194519E0,9.590556335E0,-8.681945801E-3,9.691800592E0
8.546283208E0,1.339564362E0,9.671088867E0,7.963439941E-2,9.763745910E0
8.556362208E0,1.280437317E0,9.742191010E0,2.107617188E-1,9.828236154E0
8.566441208E0,1.262324982E0,9.762698364E0,4.005670166E-1,9.852116404E0
8.576520208E0,1.235830078E0,9.735155640E0,5.072950745E-1,9.826386905E0
8.586599208E0,1.269510040E0,9.746831360E0,5.131329346E-1,9.842544524E0
8.596678208E0,1.246308289E0,9.733359375E0,4.526586914E-1,9.823261626E0
8.606757208E0,1.300046539E0,9.642348633E0,3.863465881E-1,9.737262030E0
8.616836208E0,1.454375610E0,9.547296295E0,2.755769348E-1,9.661367274E0
8.626915208E0,1.668131104E0,9.500144348E0,1.681004333E-1,9.646950905E0
8.636994208E0,1.916764069E0,9.466314697E0,7.888595581E-2,9.658743264E0
8.647073208E0,2.080224152E0,9.448501740E0,1.945953369E-2,9.674807301E0
8.657152208E0,2.170037384E0,9.446106720E0,-2.514770508E-2,9.692194118E0
8.667231208E0,2.182012482E0,9.528435516E0,-2.604583740E-2,9.775118426E0
8.677310208E0,2.164947968E0,9.595346375E0,4.056564331E-2,9.836631401E0
8.687389208E0,2.075883179E0,9.647288361E0,1.580712891E-1,9.869369292E0
8.697468208E0,1.945953369E0,9.725874939E0,2.203417969E-1,9.921085039E0
8.707547208E0,1.862277374E0,9.755513306E0,2.445913696E-1,9.934683780E0
8.717626208E0,1.748963013E0,9.687554626E0,2.375559998E-1,9.847030980E0
8.727705208E0,1.707798615E0,9.659862213E0,1.679507446E-1,9.811101953E0
8.737784208E0,1.698817291E0,9.691745911E0,1.221459961E-1,9.840266187E0
8.747863208E0,1.771416321E0,9.684560852E0,1.272354126E-1,9.846056242E0
8.757942208E0,1.792821808E0,9.639354858E0,1.181044006E-1,9.805372036E0
8.768021208E0,1.829196167E0,9.612560577E0,7.918533325E-2,9.785374279E0
8.778100208E0,1.891316986E0,9.610764313E0,8.008346558E-2,9.795421582E0
8.788179208E0,1.918111267E0,9.584269409E0,5.957611084E-2,9.774503581E0
8.798258208E0,1.920356598E0,9.567354584E0,3.966751099E-2,9.758258897E0
8.808337208E0,1.920057220E0,9.539961548E0,8.532257080E-3,9.731267074E0
8.818416208E0,1.894310760E0,9.510622559E0,3.308120728E-2,9.697497052E0
8.828495208E0,1.898202667E0,9.476643219E0,4.969665527E-2,9.665009561E0
8.838574208E0,1.844913483E0,9.449549561E0,1.025367737E-1,9.628510084E0
8.848653208E0,1.798959045E0,9.471404114E0,1.573228455E-1,9.642017424E0
8.858732208E0,1.761686554E0,9.493258667E0,1.805245972E-1,9.657022769E0
8.868811208E0,1.758992157E0,9.517508240E0,1.654060364E-1,9.680102048E0
8.878890208E0,1.783990173E0,9.596244507E0,1.896556091E-1,9.762504741E0
8.888969208E0,1.778601379E0,9.614955597E0,2.633024597E-1,9.781621654E0
8.899048208E0,1.708097992E0,9.610015869E0,2.872526550E-1,9.764861384E0
8.909127208E0,1.669029236E0,9.626930695E0,8.292755127E-2,9.770891984E0
8.919206208E0,1.721270599E0,9.658814392E0,-2.140548706E-2,9.811010454E0
8.929285208E0,1.787732391E0,9.719887390E0,1.631607056E-2,9.882938035E0
8.939364208E0,1.831591187E0,9.755064240E0,1.028361511E-1,9.926055605E0
8.949443208E0,1.836231537E0,9.709409180E0,1.130149841E-1,9.882162985E0
8.959522208E0,1.831591187E0,9.651180267E0,6.511459351E-2,9.823657503E0
8.969601208E0,1.842518463E0,9.645791473E0,4.191284180E-3,9.820192717E0
8.979680208E0,1.841320953E0,9.658964081E0,1.451980591E-2,9.832917207E0
8.989759208E0,1.812580719E0,9.647887115E0,9.265731812E-2,9.817115668E0
8.999838208E0,1.839674377E0,9.619446259E0,9.639953613E-2,9.794255511E0
9.009917208E0,1.856888580E0,9.586664429E0,6.122268677E-2,9.765035498E0
9.019996208E0,1.827250214E0,9.501341858E0,3.098556519E-2,9.675500015E0
9.030075208E0,1.821711731E0,9.442065125E0,-8.981323242E-3,9.616200295E0
9.040154208E0,1.822759552E0,9.444759521E0,-2.020797729E-2,9.619061449E0
9.050233208E0,1.870809631E0,9.492809601E0,-1.975891113E-2,9.675420053E0
9.060312208E0,1.896107025E0,9.536069641E0,-1.451980591E-2,9.722759736E0
9.070391208E0,1.876348114E0,9.591753845E0,-1.302291870E-2,9.773566067E0
9.080470208E0,1.807640991E0,9.585915985E0,-1.496887207E-3,9.754863068E0
9.090549208E0,1.757495270E0,9.621990967E0,-4.670288086E-2,9.781292397E0
9.100628208E0,1.721120911E0,9.660161591E0,-5.613327026E-2,9.812447711E0
9.110707208E0,1.700314178E0,9.664951630E0,-3.008743286E-2,9.813422622E0
9.120786208E0,1.702858887E0,9.727820892E0,-8.681945801E-3,9.875743166E0
9.130865208E0,1.754950562E0,9.744286652E0,-1.646575928E-2,9.901072919E0
9.140944208E0,1.800605621E0,9.707762604E0,-2.888992310E-2,9.873381893E0
9.151023208E0,1.902843018E0,9.672136688E0,-7.514373779E-2,9.857823606E0
9.161102208E0,1.988315277E0,9.671388245E0,-1.127156067E-1,9.874302660E0
9.171181208E0,2.023043060E0,9.662855988E0,-1.246907043E-1,9.873147261E0
9.181260208E0,1.992506561E0,9.625583496E0,-1.287322998E-1,9.830488901E0
9.191339208E0,1.958377533E0,9.588760071E0,-1.344204712E-1,9.787626429E0
9.201418208E0,1.948049011E0,9.554181976E0,-1.475930786E-1,9.751875302E0
9.211497208E0,1.948947144E0,9.524094543E0,-1.450483704E-1,9.722541379E0
9.221576208E0,1.961670685E0,9.474846954E0,-1.095721436E-1,9.676408566E0
9.231655208E0,1.992955627E0,9.462422791E0,-1.013392639E-1,9.670552562E0
9.241734208E0,2.032473450E0,9.483079834E0,-8.966354370E-2,9.698855139E0
9.251813208E0,2.037413177E0,9.536518707E0,-4.610412598E-2,9.751839165E0
9.261892208E0,2.002984772E0,9.586514740E0,-2.993774414E-3,9.793529589E0
9.271972208E0,1.950444031E0,9.626331940E0,-2.245330811E-3,9.821939909E0
9.282051208E0,1.893262939E0,9.639205170E0,-5.613327026E-2,9.823536624E0
9.292129208E0,1.899250488E0,9.628726959E0,-1.402583313E-1,9.815253826E0
9.302209208E0,1.937421112E0,9.622440033E0,-1.254391479E-1,9.816347984E0
9.312288208E0,1.926942902E0,9.578431549E0,-2.005828857E-2,9.770356300E0
9.322367208E0,1.852996674E0,9.502838745E0,4.296066284E-2,9.681910272E0
9.332446208E0,1.828896790E0,9.493707733E0,-6.017486572E-2,9.668452358E0
9.342525208E0,1.826801147E0,9.552236023E0,-1.215472412E-1,9.726108636E0
9.352604208E0,1.900897064E0,9.644743652E0,-1.073268127E-1,9.830870196E0
9.362683208E0,1.955084381E0,9.699529724E0,2.874023438E-2,9.894647938E0
9.372762208E0,1.916315002E0,9.662855988E0,-5.987548828E-4,9.851043061E0
9.382841208E0,1.868115234E0,9.569749603E0,-3.278182983E-2,9.750437767E0
9.392920208E0,1.850601654E0,9.536818085E0,-6.795867920E-2,9.714949513E0
9.402999208E0,1.863774261E0,9.567803650E0,1.646575928E-3,9.747641966E0
9.413078208E0,1.886976013E0,9.578880615E0,9.370513916E-2,9.763422196E0
9.423157208E0,1.927541656E0,9.576934662E0,6.421646118E-2,9.769197414E0
9.433236208E0,2.003583527E0,9.580078125E0,-0.000000000E0,9.787351216E0
9.443315208E0,1.988165588E0,9.545050964E0,-3.487747192E-2,9.749975218E0
9.453394208E0,1.947450256E0,9.505084076E0,-1.451980591E-2,9.702545883E0
9.463473208E0,1.921554108E0,9.514813843E0,-1.796264648E-3,9.706907637E0
9.473552208E0,1.889670410E0,9.535171509E0,2.245330811E-2,9.720640623E0
9.483631208E0,1.885179749E0,9.566755829E0,6.197113037E-2,9.750926120E0
9.493710208E0,1.920057220E0,9.614207153E0,7.020401001E-2,9.804311680E0
9.503789208E0,1.931283875E0,9.617350616E0,8.996292114E-2,9.809759610E0
9.513868208E0,1.936522980E0,9.584269409E0,7.065307617E-2,9.778207055E0
9.523947208E0,1.942211151E0,9.585167542E0,1.871109009E-2,9.779978070E0
9.534025667E0,1.932331696E0,9.551637268E0,1.137634277E-2,9.745142878E0
9.544104667E0,1.892963562E0,9.513316956E0,5.538482666E-2,9.699978249E0
9.554183667E0,1.868713989E0,9.547595673E0,8.173004150E-2,9.729098360E0
9.564262667E0,1.867217102E0,9.575288086E0,1.187031555E-1,9.756368796E0
9.574341667E0,1.855840759E0,9.619296570E0,1.239422607E-1,9.797467688E0
9.584420667E0,1.890418854E0,9.705068207E0,1.053808594E-1,9.888030009E0
9.594499667E0,1.898052979E0,9.744136963E0,8.921447754E-2,9.927676943E0
9.604578667E0,1.894759827E0,9.767488403E0,7.155120850E-2,9.949827339E0
9.614657667E0,1.896705780E0,9.746831360E0,2.903961182E-2,9.929705820E0
9.624736667E0,1.921703796E0,9.701325989E0,1.347198486E-3,9.889826755E0
9.634815667E0,1.942360840E0,9.654323730E0,1.901046753E-2,9.847796389E0
9.644894667E0,1.914967804E0,9.602531433E0,5.433700562E-2,9.791765118E0
9.654973667E0,1.894610138E0,9.566606140E0,1.242416382E-1,9.753201351E0
9.665052667E0,1.867067413E0,9.533375244E0,1.323248291E-1,9.715384405E0
9.675131667E0,1.833088074E0,9.513167267E0,1.142124939E-1,9.688839344E0
9.685210667E0,1.847907257E0,9.514813843E0,9.879455566E-2,9.693100848E0
9.695289667E0,1.901495819E0,9.531129913E0,9.864486694E-2,9.719457525E0
9.705368667E0,1.971999207E0,9.551188202E0,5.942642212E-2,9.752820538E0
9.715447667E0,1.995051270E0,9.563163300E0,4.296066284E-2,9.769143641E0
9.725526667E0,2.050286407E0,9.599837036E0,1.001417542E-1,9.816851524E0
9.735605667E0,2.047142944E0,9.569450226E0,2.305206299E-1,9.788682834E0
9.745684667E0,1.966610413E0,9.511520691E0,2.875520325E-1,9.716957782E0
9.755763667E0,1.952689362E0,9.497899017E0,1.058299255E-1,9.697127485E0
9.765842667E0,2.013013916E0,9.492061157E0,-1.197509766E-2,9.703174400E0
9.775921667E0,2.077230377E0,9.564510498E0,3.502716064E-2,9.787541776E0
9.786000667E0,2.124232635E0,9.578880615E0,1.779798889E-1,9.813205132E0
9.796079667E0,2.092498627E0,9.507628784E0,1.369651794E-1,9.736134503E0
9.806158667E0,2.045945435E0,9.390272827E0,5.463638306E-2,9.610728465E0
9.816237667E0,2.062710571E0,9.379495239E0,-2.170486450E-2,9.603654354E0
9.826316667E0,2.111209717E0,9.416318665E0,9.999206543E-2,9.650609415E0
9.836395667E0,2.171234894E0,9.429042206E0,2.966830444E-1,9.680347035E0
9.846474667E0,2.207309875E0,9.460327148E0,4.059558105E-1,9.722901149E0
9.856553667E0,2.189197540E0,9.534722443E0,4.700225830E-1,9.794102264E0
9.866632667E0,2.067799988E0,9.607471161E0,5.126838684E-1,9.840840597E0
9.876711667E0,1.894759827E0,9.702523499E0,5.743556213E-1,9.902472490E0
9.886790667E0,1.760039978E0,9.786349182E0,6.650669861E-1,9.965575003E0
9.896869667E0,1.580862579E0,9.893526306E0,7.485932922E-1,1.004695880E1
9.906948667E0,1.368903351E0,1.005968079E1,8.951385498E-1,1.019177840E1
9.917027667E0,1.151255951E0,1.011521530E1,1.076411591E0,1.023726686E1
9.927106667E0,9.229806519E-1,1.018287460E1,1.203647003E0,1.029522193E1
9.937185667E0,6.625222778E-1,1.026684998E1,1.315314789E0,1.037194279E1
9.947264667E0,2.847079468E-1,1.020008881E1,1.457219696E0,1.030758747E1
9.957343667E0,-3.802093506E-2,1.015458344E1,1.656455383E0,1.028887043E1
9.967422667E0,-6.054908752E-1,9.906848602E0,1.881287842E0,1.010205486E1
9.977501667E0,-1.158441010E0,9.567803650E0,1.929038544E0,9.828837264E0
9.987580667E0,-1.203647003E0,9.555678864E0,1.721420288E0,9.783815843E0
9.997659667E0,-8.737330627E-1,9.607022095E0,1.559906158E0,9.771979851E0