"Time (s)","Acceleration x (m/s^2)","Acceleration y (m/s^2)","Acceleration z (m/s^2)","Absolute acceleration (m/s^2)"
8.572916267E-4,-6.962471466E0,3.981719971E-2,5.730383606E0,9.017476953E0
1.093529165E-2,-6.990612946E0,6.586303711E-2,5.560037842E0,8.932358485E0
2.101429168E-2,-6.920109558E0,1.245410156E-1,5.447172546E0,8.807673672E0
3.109229170E-2,-6.841373291E0,1.487905884E-1,5.562881927E0,8.818853808E0
4.117129161E-2,-6.829996948E0,1.447489929E-1,5.948180695E0,9.058182166E0
5.124929163E-2,-6.929689636E0,2.550695801E-1,6.357729034E0,9.407782811E0
6.132829166E-2,-7.079228668E0,5.117857361E-1,6.552174683E0,9.659627128E0
7.140729169E-2,-7.025939484E0,8.479866028E-1,6.498286743E0,9.607842500E0
8.148529171E-2,-6.991960144E0,1.223405914E0,6.389762421E0,9.550565035E0
9.156429162E-2,-6.827601929E0,1.659000092E0,6.443650360E0,9.533575371E0
1.016422916E-1,-6.539900208E0,2.136507111E0,6.732848969E0,9.626329134E0
1.117212917E-1,-6.453978882E0,2.452500000E0,7.001240845E0,9.832902574E0
1.217992917E-1,-6.607709198E0,2.638862457E0,7.114854584E0,1.006213554E1
1.318782916E-1,-6.706204376E0,2.698288879E0,7.210954742E0,1.021037748E1
1.419562916E-1,-6.808591461E0,2.675985260E0,7.341782684E0,1.036434213E1
1.520352917E-1,-7.050937500E0,2.752476196E0,7.732320557E0,1.082038012E1
1.621142917E-1,-7.616012421E0,2.971919861E0,8.415050812E0,1.173239247E1
1.721922917E-1,-8.240962830E0,3.325484619E0,9.086105347E0,1.270943062E1
1.822712916E-1,-8.630303192E0,3.670517120E0,9.556876373E0,1.338987360E1
1.923492916E-1,-8.946894836E0,3.962559814E0,1.003812561E1,1.401830137E1
2.024282917E-1,-9.207652588E0,4.271367645E0,1.037896683E1,1.451717604E1
2.125062917E-1,-9.496701508E0,4.530029755E0,1.045695465E1,1.483429842E1
2.225852917E-1,-9.588311005E0,4.849465485E0,1.042881317E1,1.497374928E1
2.326642916E-1,-9.649683380E0,5.253175964E0,1.037327866E1,1.511016734E1
2.427422917E-1,-9.727671204E0,5.688620453E0,1.051159103E1,1.541043594E1
2.528212917E-1,-9.698930969E0,6.118227081E0,1.057490936E1,1.559905999E1
2.628992917E-1,-9.676627350E0,6.580016785E0,1.066247726E1,1.583105048E1
2.729782916E-1,-9.737850037E0,7.059170380E0,1.083207458E1,1.618614993E1
2.830562916E-1,-9.857750702E0,7.527696075E0,1.067819458E1,1.636659087E1
2.931352917E-1,-1.011371841E1,8.014034729E0,1.042926224E1,1.659161124E1
3.032132917E-1,-1.026834686E1,8.384065247E0,1.019395157E1,1.672268357E1
3.132922917E-1,-1.024619293E1,8.557255096E0,1.007449997E1,1.672443225E1
3.233712916E-1,-1.033675461E1,8.651259613E0,1.063149170E1,1.716745189E1
3.334492916E-1,-1.045006897E1,8.519084473E0,1.137035522E1,1.763699860E1
3.435282917E-1,-1.026819717E1,8.086484070E0,1.168889282E1,1.753446073E1
3.536062917E-1,-1.006506958E1,7.797884216E0,1.178304703E1,1.734799185E1
3.636852916E-1,-9.966424713E0,7.501650238E0,1.132275421E1,1.684663589E1
3.737632916E-1,-9.555379486E0,6.948999481E0,1.032507889E1,1.569079746E1
3.838422917E-1,-9.397757263E0,6.093977509E0,9.682914276E0,1.480585129E1
3.939212917E-1,-9.063352661E0,4.914879456E0,9.432934113E0,1.397428522E1
4.039992917E-1,-8.758436737E0,3.457360382E0,9.527088318E0,1.339510981E1
4.140782916E-1,-8.317304077E0,1.922751617E0,9.463470612E0,1.274487336E1
4.241562916E-1,-7.322472839E0,2.965333557E-1,8.549920349E0,1.126089155E1
4.342352917E-1,-6.153104553E0,-1.284478912E0,7.221432953E0,9.573905975E0
4.443132917E-1,-4.824018402E0,-2.515369263E0,5.505700836E0,7.740218199E0
4.543922916E-1,-3.705244904E0,-3.230881348E0,3.681594086E0,6.141788753E0
4.644702916E-1,-3.015329590E0,-3.580554199E0,2.154170380E0,5.152963316E0
4.745492917E-1,-3.113226013E0,-3.705693970E0,1.356179810E0,5.026287664E0
4.846282917E-1,-3.777544556E0,-3.705693970E0,1.200204163E0,5.426094424E0
4.947062917E-1,-4.865781555E0,-3.795956268E0,1.485959930E0,6.347691789E0
5.047852916E-1,-5.500611420E0,-4.200415192E0,1.423539734E0,7.065881343E0
5.148632916E-1,-5.294190674E0,-4.939129028E0,1.096918945E0,7.323024076E0
5.249422917E-1,-4.709356842E0,-5.713319092E0,8.533753967E-1,7.453073626E0
5.350202917E-1,-4.299509125E0,-6.232738953E0,9.743238831E-1,7.634272761E0
5.450992917E-1,-4.118984528E0,-6.564748535E0,1.441053314E0,7.882803532E0
5.551782916E-1,-4.453538818E0,-6.605014801E0,2.301613770E0,8.292023545E0
5.652562917E-1,-4.545148315E0,-7.166497192E0,3.262016602E0,9.091633931E0
5.753352917E-1,-4.778213654E0,-7.305558014E0,3.779939575E0,9.512646677E0
5.854132917E-1,-5.377866669E0,-7.063511353E0,4.289330292E0,9.859665151E0
5.954922916E-1,-5.665269012E0,-7.331454163E0,4.616400146E0,1.035164931E1
6.055702916E-1,-5.857469330E0,-7.263046417E0,4.630470886E0,1.041647977E1
6.156492917E-1,-5.842799835E0,-7.597600708E0,4.203109589E0,1.046556146E1
6.257282917E-1,-6.043682098E0,-8.111631775E0,3.828738098E0,1.081590952E1
6.358062917E-1,-6.817273407E0,-8.265661469E0,3.778292999E0,1.136098034E1
6.458852916E-1,-8.058192902E0,-8.512498169E0,4.007167053E0,1.238767475E1
6.559632916E-1,-9.534273376E0,-8.578061829E0,4.431534576E0,1.356923035E1
6.660422917E-1,-1.091814560E1,-8.345894623E0,4.999752960E0,1.462386372E1
6.761202917E-1,-1.214768875E1,-8.282725983E0,5.558091888E0,1.571821482E1
6.861992916E-1,-1.297022827E1,-7.991731110E0,5.944588165E0,1.635337017E1
6.962772916E-1,-1.352272934E1,-7.795189819E0,6.179599457E0,1.678739535E1
7.063562917E-1,-1.381192795E1,-7.693700867E0,6.284980316E0,1.701362290E1
7.164352917E-1,-1.413256119E1,-7.664511566E0,6.434369659E0,1.731690319E1
7.265132917E-1,-1.426054504E1,-7.644752655E0,6.522386627E0,1.744554142E1
7.365922916E-1,-1.395248566E1,-7.505691833E0,6.511609039E0,1.712916572E1
7.466702916E-1,-1.353141129E1,-7.232659607E0,6.799759827E0,1.678234757E1
7.567492917E-1,-1.313743057E1,-6.960974579E0,6.916517029E0,1.639772719E1
7.668272917E-1,-1.260917908E1,-6.724915466E0,6.781348114E0,1.581779274E1
7.769062916E-1,-1.222552689E1,-6.309080200E0,6.706204376E0,1.530493965E1
7.869852916E-1,-1.206565933E1,-5.628744965E0,6.852450256E0,1.497394335E1
7.970632917E-1,-1.202973404E1,-4.831353149E0,7.133565674E0,1.479676429E1
8.071422917E-1,-1.167302582E1,-3.940405884E0,7.291038208E0,1.431592010E1
8.172202917E-1,-1.125060425E1,-3.085084534E0,7.154522095E0,1.368506591E1
8.272992916E-1,-1.069540878E1,-2.251767426E0,6.762187958E0,1.285260330E1
8.373772916E-1,-1.014245865E1,-1.614093475E0,6.190676422E0,1.199163207E1
8.474562917E-1,-9.987381134E0,-1.079704742E0,5.539081421E0,1.147148496E1
8.575352917E-1,-9.793085175E0,-5.065466309E-1,4.814737701E0,1.092441330E1
8.676134166E-1,-9.906549225E0,-1.922003174E-1,4.256997528E0,1.078418687E1
8.776924167E-1,-9.863139496E0,1.570234680E-1,4.011807404E0,1.064898003E1
8.877704167E-1,-9.675579529E0,5.674699402E-1,3.894601135E0,1.044541906E1
8.978494167E-1,-9.945917358E0,8.219407654E-1,4.030668182E0,1.076304533E1
9.079274166E-1,-1.051024384E1,1.172062683E0,4.006867676E0,1.130902051E1
9.180064166E-1,-1.096365097E1,1.391356659E0,3.648961945E0,1.163840364E1
9.280844167E-1,-1.130658783E1,1.430874481E0,3.427422638E0,1.190098971E1
9.381634167E-1,-1.142065063E1,1.342558136E0,3.622616730E0,1.205641220E1
9.482424166E-1,-1.171987839E1,8.505313110E-1,4.361330566E0,1.253396016E1
9.583204166E-1,-1.205772583E1,2.402503967E-1,5.721102905E0,1.334831416E1
9.683994167E-1,-1.245619720E1,-3.424877930E-1,7.132368164E0,1.435774433E1
9.784774167E-1,-1.314147217E1,-7.143145752E-1,8.309969330E0,1.556483621E1
9.885564167E-1,-1.391611130E1,-5.433700562E-1,9.125473480E0,1.665015528E1
9.986344166E-1,-1.438014633E1,2.905458069E-1,9.407636719E0,1.718652536E1
1.008713417E0,-1.517888535E1,1.153201904E0,8.931327209E0,1.764927876E1
1.018792417E0,-1.625335098E1,1.754351807E0,8.313412170E0,1.834017422E1
1.028870417E0,-1.706316696E1,2.366129608E0,8.206085358E0,1.908114444E1
1.038949417E0,-1.767299881E1,2.887645111E0,8.603658600E0,1.986696561E1
1.049027417E0,-1.822774521E1,3.403771820E0,9.041049042E0,2.062951589E1
1.059106417E0,-1.857547211E1,3.943399658E0,9.378148041E0,2.117895714E1
1.069184417E0,-1.872456207E1,4.188440094E0,9.169631653E0,2.126580353E1
1.079263417E0,-1.863894012E1,3.989803162E0,8.604556732E0,2.091332147E1
1.089341417E0,-1.817819824E1,3.720213776E0,8.330326996E0,2.033915509E1
1.099420417E0,-1.768736893E1,3.410956879E0,8.484057312E0,1.991122485E1
1.109499417E0,-1.751552628E1,2.975512390E0,8.765172729E0,1.981099664E1
1.119577417E0,-1.748364258E1,2.496807861E0,8.926986237E0,1.978895880E1
1.129656417E0,-1.741553421E1,1.974992981E0,8.903335419E0,1.965886087E1
1.139734417E0,-1.748738480E1,1.252445526E0,8.668773193E0,1.955824316E1
1.149813417E0,-1.764410889E1,3.126997375E-1,8.380023651E0,1.953553572E1
1.159891417E0,-1.782104095E1,-7.147636414E-1,8.396938477E0,1.971316726E1
1.169970417E0,-1.809571976E1,-1.745071106E0,8.513695679E0,2.007444547E1
1.180048417E0,-1.836261475E1,-2.831661530E0,8.537645874E0,2.044737940E1
1.190127417E0,-1.823987000E1,-3.745810547E0,8.550968170E0,2.049007103E1
1.200206417E0,-1.794348633E1,-4.751269684E0,8.296347656E0,2.033156781E1
1.210284417E0,-1.794064224E1,-5.793402557E0,8.208630066E0,2.056238714E1
1.220363417E0,-1.833147949E1,-6.715036011E0,8.424331512E0,2.126274231E1
1.230441417E0,-1.837009918E1,-7.397317200E0,8.711434479E0,2.163492400E1
1.240520417E0,-1.775413010E1,-7.746690674E0,8.715925140E0,2.124117941E1
1.250598417E0,-1.688773178E1,-7.953261108E0,8.468040619E0,2.049774521E1
1.260677417E0,-1.592957428E1,-8.077652435E0,8.319549408E0,1.970316492E1
1.270756417E0,-1.512454834E1,-8.138126678E0,8.558452606E0,1.918927251E1
1.280834417E0,-1.447938995E1,-8.208779755E0,8.891809387E0,1.887064049E1
1.290913417E0,-1.413256119E1,-8.464448090E0,8.953481140E0,1.874942644E1
1.300991417E0,-1.373753265E1,-8.696764984E0,8.625812531E0,1.840538417E1
1.311070417E0,-1.349743195E1,-8.828191681E0,8.156089325E0,1.807316880E1
1.321148417E0,-1.312605423E1,-8.792416077E0,7.682025146E0,1.756739567E1
1.331227417E0,-1.231069977E1,-8.693022766E0,6.984625397E0,1.661044748E1
1.341306417E0,-1.136017639E1,-8.509205017E0,6.225254517E0,1.549883775E1
1.351384417E0,-1.066921326E1,-8.310568085E0,5.687273254E0,1.467115300E1
1.361463417E0,-1.016790573E1,-8.160130920E0,5.200485535E0,1.403634901E1
1.371541417E0,-9.820328522E0,-8.016429749E0,4.951253815E0,1.360944204E1
1.381620417E0,-9.610165558E0,-7.950866089E0,4.785099335E0,1.335921889E1
1.391698417E0,-9.277706909E0,-8.058192902E0,4.612208862E0,1.312565385E1
1.401777417E0,-8.587043152E0,-8.088430023E0,4.377796326E0,1.258273067E1
1.411855417E0,-7.965834961E0,-7.946375427E0,4.142335968E0,1.198992729E1
1.421934417E0,-7.580386505E0,-7.883206787E0,4.065845032E0,1.166783205E1
1.432013417E0,-7.220085754E0,-7.942932587E0,4.085304565E0,1.148518741E1
1.442091417E0,-6.779551849E0,-8.181237030E0,4.071682892E0,1.137864509E1
1.452170417E0,-6.439010010E0,-8.384514313E0,3.842210083E0,1.124826691E1
1.462248417E0,-6.148164825E0,-8.646619263E0,3.328029327E0,1.111934056E1
1.472327417E0,-5.906716919E0,-8.838071136E0,2.675087128E0,1.096161016E1
1.482405417E0,-5.481301575E0,-8.970246277E0,1.884431305E0,1.067993757E1
1.492484417E0,-4.790188751E0,-8.960366821E0,1.081950073E0,1.021786170E1
1.502562417E0,-3.997437286E0,-8.872200165E0,4.754113770E-1,9.742764320E0
1.512641417E0,-3.379372559E0,-8.772357788E0,-3.008743286E-2,9.400815140E0
1.522720417E0,-2.869532776E0,-8.593030701E0,-2.703378296E-1,9.063524564E0
1.532798417E0,-2.362387390E0,-8.321195984E0,7.155120850E-2,8.650335043E0
1.542877417E0,-2.035317535E0,-8.015980682E0,6.634204102E-1,8.296902459E0
1.552955417E0,-1.968406677E0,-7.798482971E0,1.324894867E0,8.151460477E0
1.563034417E0,-2.056723022E0,-7.786058807E0,1.836381226E0,8.259849717E0
1.573112417E0,-2.097588043E0,-7.976911926E0,1.836231537E0,8.450014541E0
1.583191417E0,-2.105222168E0,-7.895481262E0,1.525028687E0,8.312418254E0
1.593270417E0,-2.324067078E0,-7.504344635E0,1.601519623E0,8.017564548E0
1.603348417E0,-3.109932861E0,-7.233258362E0,2.007176056E0,8.125297819E0
1.613427417E0,-4.471351776E0,-7.081773376E0,2.664758606E0,8.788938462E0
1.623505417E0,-6.012696533E0,-6.970704346E0,3.162323914E0,9.733628882E0
1.633584417E0,-7.233857117E0,-7.091503143E0,3.205883331E0,1.062524322E1
1.643662417E0,-8.161627808E0,-7.504644012E0,2.780767365E0,1.143085812E1
1.653741417E0,-9.175768890E0,-8.139024811E0,2.497556305E0,1.251703827E1
1.663819417E0,-1.013946487E1,-8.864566040E0,2.663561096E0,1.372894157E1
1.673898417E0,-1.105436234E1,-9.550739136E0,3.308270416E0,1.497865808E1
1.683977417E0,-1.184322189E1,-9.943821716E0,4.254452820E0,1.603876130E1
1.694055417E0,-1.256906250E1,-9.982591095E0,5.245691528E0,1.688640686E1
1.704134417E0,-1.337857910E1,-9.942175140E0,6.066584473E0,1.773800080E1
1.714212417E0,-1.416145111E1,-9.692494354E0,6.599326630E0,1.838592550E1
1.724291417E0,-1.449001785E1,-9.251212006E0,6.778953094E0,1.847971174E1
1.734369417E0,-1.480900452E1,-8.808881836E0,6.785389709E0,1.851876150E1
1.744448417E0,-1.514221161E1,-8.265362091E0,6.970854034E0,1.860633196E1
1.754526417E0,-1.516541336E1,-7.466473389E0,7.283104706E0,1.840602079E1
1.764605417E0,-1.494522125E1,-6.640491028E0,7.408992920E0,1.795407852E1
1.774684417E0,-1.491663071E1,-5.939947815E0,7.288044434E0,1.763248262E1
1.784762417E0,-1.472083786E1,-5.142106934E0,7.002138977E0,1.709310625E1
1.794841417E0,-1.441577225E1,-4.324507141E0,6.464008026E0,1.637984283E1
1.804919417E0,-1.419692734E1,-3.507805481E0,5.857469330E0,1.575332956E1
1.814998417E0,-1.413001648E1,-2.768492889E0,5.197791138E0,1.530813350E1
1.825076417E0,-1.432042053E1,-2.043400726E0,4.388424225E0,1.511648762E1
1.835155417E0,-1.468491257E1,-1.383722534E0,3.404220886E0,1.513770343E1
1.845234417E0,-1.511451920E1,-7.520361328E-1,2.724334717E0,1.537648362E1
1.855312417E0,-1.523995834E1,-1.830693054E-1,2.134261780E0,1.538976667E1
1.865390417E0,-1.519190826E1,7.544311523E-2,1.807191925E0,1.529920622E1
1.875468417E0,-1.538395889E1,1.466949463E-1,1.990261230E0,1.551286081E1
1.885547417E0,-1.514400787E1,2.088157654E-1,2.524949341E0,1.535447647E1
1.895625417E0,-1.463356934E1,1.701960754E-1,3.079845428E0,1.495512508E1
1.905704417E0,-1.406684784E1,3.023712158E-2,3.443589020E0,1.448224526E1
1.915782417E0,-1.381162857E1,-2.348616028E-1,3.732039185E0,1.430889095E1
1.925861417E0,-1.368289627E1,-5.502557373E-1,3.996389465E0,1.426518701E1
1.935940417E0,-1.392269760E1,-1.040785675E0,4.750072174E0,1.474747195E1
1.946018417E0,-1.432550995E1,-1.292562103E0,6.103407898E0,1.562506128E1
1.956097417E0,-1.513352966E1,-1.117725677E0,7.308252411E0,1.684290901E1
1.966175417E0,-1.604228989E1,-4.929249573E-1,8.103847961E0,1.797972168E1
1.976254417E0,-1.649958893E1,5.361849976E-1,8.309220886E0,1.848153351E1
1.986332417E0,-1.661784302E1,1.685794373E0,8.513845367E0,1.874780446E1
1.996411417E0,-1.662607590E1,2.815794525E0,9.067394257E0,1.914608934E1
2.006489417E0,-1.693458435E1,3.793710938E0,1.003019211E1,2.004437935E1
2.016568417E0,-1.759650787E1,4.617747345E0,1.125269989E1,2.139121162E1
2.026647417E0,-1.830663116E1,5.348078613E0,1.234767288E1,2.272002894E1
2.036725417E0,-1.886916138E1,5.870043182E0,1.304237823E1,2.367712584E1
2.046804417E0,-1.903920776E1,5.940995636E0,1.344803467E1,2.405486433E1
2.056882417E0,-1.911375275E1,5.647006989E0,1.350536545E1,2.407528043E1
2.066961417E0,-1.931613190E1,5.141358490E0,1.331915268E1,2.401970746E1
2.077039417E0,-1.960398331E1,4.549189911E0,1.289104294E1,2.389958741E1
2.087118417E0,-1.908905411E1,3.996539154E0,1.176493469E1,2.277669862E1
2.097196417E0,-1.812251404E1,3.166814575E0,9.956994324E0,2.091879455E1
2.107275417E0,-1.741388763E1,2.106419678E0,8.559799805E0,1.951795735E1
2.117353417E0,-1.715223175E1,7.427554321E-1,7.807613983E0,1.886026447E1
2.127432417E0,-1.737032822E1,-6.415658569E-1,7.679480438E0,1.900300842E1
2.137511417E0,-1.773721527E1,-1.988165588E0,7.741601257E0,1.945492221E1
2.147589417E0,-1.829166229E1,-3.335364075E0,7.954159241E0,2.022320974E1
2.157668417E0,-1.901016815E1,-4.463418274E0,8.338110809E0,2.123282100E1
2.167746417E0,-1.999257523E1,-5.396577759E0,8.465196533E0,2.237153701E1
2.177825417E0,-2.086047043E1,-6.338718567E0,8.148155823E0,2.327511596E1
2.187903417E0,-2.110745682E1,-6.995552673E0,7.742948456E0,2.354603451E1
2.197982417E0,-2.105252106E1,-7.564070435E0,7.451654205E0,2.357861223E1
2.208061417E0,-2.074131821E1,-7.855963440E0,7.142097931E0,2.330081555E1
2.218139417E0,-1.992626312E1,-7.844287720E0,7.075336761E0,2.255325258E1
2.228218417E0,-1.897948196E1,-8.014783173E0,7.275021515E0,2.184910577E1
2.238296417E0,-1.791010574E1,-8.424331512E0,7.497758331E0,2.116500955E1
2.248375417E0,-1.688428894E1,-8.951235809E0,7.758665771E0,2.062524497E1
2.258453417E0,-1.601968689E1,-9.441166992E0,8.030650177E0,2.025481040E1
2.268532417E0,-1.519310577E1,-9.844877472E0,8.104446716E0,1.983517411E1
2.278610417E0,-1.450768112E1,-1.026999344E1,8.220904541E0,1.958389257E1
2.288689417E0,-1.368364471E1,-1.052955368E1,8.083490295E0,1.906453379E1
2.298768417E0,-1.263507523E1,-1.073268127E1,7.176376648E0,1.806477111E1
2.308846417E0,-1.155252640E1,-1.079689774E1,6.208040314E0,1.698745512E1
2.318925417E0,-1.082818268E1,-1.074555450E1,5.534141693E0,1.622785278E1
2.329003417E0,-1.025397675E1,-1.070334229E1,5.109175415E0,1.567830503E1
2.339082417E0,-9.626631317E0,-1.060649368E1,4.891378326E0,1.513589511E1
2.349160417E0,-9.106612701E0,-1.048030609E1,4.789889374E0,1.468707768E1
2.359239417E0,-8.583450623E0,-1.034498749E1,4.588857422E0,1.420394323E1
2.369317417E0,-7.974965973E0,-1.020877075E1,3.926484833E0,1.353648277E1
2.379396417E0,-7.046895905E0,-1.021386017E1,3.027454376E0,1.277290732E1
2.389475417E0,-5.831722870E0,-1.021161484E1,2.237846375E0,1.197054826E1
2.399553417E0,-4.799020386E0,-1.025846741E1,1.354084167E0,1.140615159E1
2.409632417E0,-3.956123199E0,-1.020592667E1,6.730004883E-1,1.096652997E1
2.419710417E0,-3.223995667E0,-1.008093658E1,4.490661621E-4,1.058392322E1
2.429789417E0,-2.581980743E0,-9.957742767E0,-4.754113770E-1,1.029802319E1
2.439867417E0,-2.173779602E0,-9.681716766E0,-6.198609924E-1,9.942091578E0
2.449946417E0,-1.875150604E0,-9.529183960E0,-6.821315002E-1,9.735853333E0
2.460024417E0,-1.461560669E0,-9.225465546E0,-5.818400574E-1,9.358627676E0
2.470103417E0,-9.580078125E-1,-8.882828064E0,-7.283853149E-1,8.963981177E0
2.480182417E0,-3.896397400E-1,-8.572373657E0,-1.096020813E0,8.650934682E0
2.490260417E0,1.258882141E-1,-8.249345398E0,-1.433419189E0,8.373902191E0
2.500339417E0,4.553530884E-1,-8.054750061E0,-1.520687714E0,8.209679415E0
2.510417417E0,3.939807129E-1,-8.014483795E0,-1.309177551E0,8.130259354E0
2.520496417E0,-3.121009827E-1,-8.137078857E0,-7.095245361E-1,8.173914877E0
2.530574417E0,-1.356628876E0,-8.169112244E0,1.056802368E-1,8.281666805E0
2.540653417E0,-2.567311249E0,-8.069718933E0,9.764195251E-1,8.524367765E0
2.550731417E0,-3.840264130E0,-7.976911926E0,1.653760986E0,9.006313223E0
2.560810417E0,-5.305866394E0,-7.988887024E0,2.239942017E0,9.848445274E0
2.570889417E0,-6.810387726E0,-8.183033295E0,2.686762848E0,1.098007784E1
2.580967417E0,-8.076155548E0,-8.597371674E0,2.868934021E0,1.213959927E1
2.591046417E0,-9.324709167E0,-9.125623169E0,3.159928894E0,1.342431935E1
2.601124417E0,-1.058823166E1,-9.594448242E0,3.633993073E0,1.474347287E1
2.611203417E0,-1.187914719E1,-1.012045441E1,4.331841888E0,1.619575838E1
2.621281417E0,-1.319685699E1,-1.064571213E1,5.269641724E0,1.775548775E1
2.631360417E0,-1.442220886E1,-1.109088638E1,6.087989960E0,1.918518937E1
2.641438417E0,-1.569875427E1,-1.138652161E1,6.913373566E0,2.058879535E1
2.651517417E0,-1.664897827E1,-1.144519958E1,7.755671997E0,2.164096854E1
2.661596417E0,-1.734817429E1,-1.128368546E1,8.507857819E0,2.237553023E1
2.671674417E0,-1.750699402E1,-1.100316879E1,8.834029541E0,2.248565411E1
2.681753417E0,-1.717708008E1,-1.068508026E1,8.802894287E0,2.206159487E1
2.691831417E0,-1.679702042E1,-1.026789780E1,8.855884094E0,2.158694752E1
2.701910417E0,-1.652967636E1,-9.519154816E0,9.206455078E0,2.118025789E1
2.711988417E0,-1.630259857E1,-8.677155762E0,9.479187927E0,2.075867905E1
2.722067417E0,-1.622775421E1,-7.789202271E0,9.381890259E0,2.029856014E1
2.732145417E0,-1.629481476E1,-6.739734650E0,9.043144684E0,1.981725200E1
2.742224417E0,-1.640917694E1,-5.600004730E0,8.536747742E0,1.932607572E1
2.752303417E0,-1.646171768E1,-4.484823761E0,7.344177704E0,1.857521842E1
2.762381417E0,-1.628313904E1,-3.500321045E0,5.855074310E0,1.765431277E1
2.772460417E0,-1.630589172E1,-2.682721252E0,4.561913452E0,1.714322468E1
2.782538417E0,-1.628762970E1,-1.775158539E0,3.409909058E0,1.673515906E1
2.792617417E0,-1.636591690E1,-9.964778137E-1,2.630629578E0,1.660591509E1
2.802695417E0,-1.635738464E1,-2.591111755E-1,2.361489258E0,1.652899884E1
2.812774417E0,-1.596475113E1,5.918692017E-1,2.189496918E0,1.612505766E1
2.822852417E0,-1.543889465E1,1.186732178E0,1.818568268E0,1.559086245E1
2.832931417E0,-1.493189896E1,1.628164215E0,1.568438416E0,1.510207020E1
2.843010417E0,-1.447115707E1,1.864223328E0,1.429826660E0,1.466063164E1
2.853088417E0,-1.414423691E1,1.844614105E0,1.502725067E0,1.434295024E1
2.863167417E0,-1.396161667E1,1.504221954E0,1.787133636E0,1.415567979E1
2.873246208E0,-1.392254791E1,9.770182800E-1,2.254761200E0,1.413774569E1
2.883325208E0,-1.361224319E1,4.004173279E-1,2.760110321E0,1.389502457E1
2.893403208E0,-1.357422226E1,-2.140548706E-1,3.620221710E0,1.405031440E1
2.903482208E0,-1.372840164E1,-8.893006897E-1,4.667743378E0,1.452748070E1
2.913560208E0,-1.352452560E1,-1.353635101E0,5.736670532E0,1.475311864E1
2.923639208E0,-1.313892746E1,-1.415157166E0,7.094496918E0,1.499886566E1
2.933718208E0,-1.313114365E1,-1.008303223E0,8.691525879E0,1.577929754E1
2.943796208E0,-1.327873672E1,-8.711883545E-2,1.034124527E1,1.683073951E1
2.953875208E0,-1.350641327E1,1.151854706E0,1.185579575E1,1.800860520E1
2.963953208E0,-1.401655243E1,2.500400391E0,1.296289352E1,1.925493061E1
2.974032208E0,-1.502081406E1,3.581302643E0,1.359502899E1,2.057365784E1
2.984110208E0,-1.632250717E1,4.304897919E0,1.385893021E1,2.184093251E1
2.994189208E0,-1.742286896E1,4.407135315E0,1.356808502E1,2.251826227E1
3.004267208E0,-1.808539124E1,4.142785034E0,1.245919098E1,2.234894816E1
3.014346208E0,-1.837773331E1,3.661386108E0,1.062640228E1,2.154222029E1
3.024424208E0,-1.866423752E1,2.882256317E0,8.624315643E0,2.076150245E1
3.034503208E0,-1.901989792E1,2.318827972E0,6.980583801E0,2.039269551E1
3.044582208E0,-1.915626434E1,1.996697845E0,5.617667999E0,2.006258856E1
3.054660208E0,-1.917557419E1,1.747915192E0,4.549189911E0,1.978517076E1
3.064739208E0,-1.936657700E1,1.131796417E0,3.826642456E0,1.977342813E1
3.074817208E0,-1.972343491E1,2.784210205E-2,3.669618988E0,2.006192322E1
3.084896208E0,-2.031350784E1,-1.525926819E0,4.007316742E0,2.076115702E1
3.094974208E0,-2.143467636E1,-3.288661194E0,4.800816650E0,2.221054893E1
3.105053208E0,-2.275014084E1,-4.929548950E0,5.739065552E0,2.397511698E1
3.115131208E0,-2.415721481E1,-6.497089233E0,6.365662537E0,2.581288158E1
3.125210208E0,-2.538780579E1,-8.077652435E0,6.541097717E0,2.743310246E1
3.135289208E0,-2.601964188E1,-9.229058075E0,6.801556091E0,2.843340362E1
3.145367208E0,-2.603565857E1,-1.032253418E1,6.806495819E0,2.882253657E1
3.155446208E0,-2.578747467E1,-1.163216080E1,6.968159637E0,2.913513795E1
3.165524208E0,-2.422038345E1,-1.220322327E1,6.978188782E0,2.800429880E1
3.175603208E0,-2.215902008E1,-1.258627670E1,6.465504913E0,2.629142990E1
3.185681208E0,-2.057695999E1,-1.263971558E1,5.684878235E0,2.480910182E1
3.195760208E0,-1.924667633E1,-1.237940689E1,5.088368683E0,2.344303224E1
3.205838208E0,-1.798509979E1,-1.219484070E1,4.312681732E0,2.215349133E1
3.215917208E0,-1.681228867E1,-1.199994598E1,3.603306885E0,2.096748851E1
3.225996208E0,-1.573438019E1,-1.153082153E1,3.027005310E0,1.974065162E1
3.236074208E0,-1.475317062E1,-1.104208786E1,2.398162994E0,1.858318954E1
3.246153208E0,-1.368124969E1,-1.068133804E1,1.887275391E0,1.745936379E1
3.256231208E0,-1.244901215E1,-1.029499146E1,1.442400513E0,1.621867047E1
3.266310208E0,-1.100900665E1,-9.885443115E0,9.954299927E-1,1.482939965E1
3.276388208E0,-9.507179718E0,-9.553433533E0,4.745132446E-1,1.348627900E1
3.286467208E0,-8.029452667E0,-9.174870758E0,9.699829102E-2,1.219261138E1
3.296545208E0,-7.134912872E0,-9.108558655E0,-1.311273193E-1,1.157108538E1
3.306624208E0,-6.262377319E0,-8.914412384E0,1.252894592E-1,1.089494448E1
3.316703208E0,-5.277724915E0,-8.563691711E0,-1.088237000E-1,1.005997210E1
3.326781208E0,-4.443659363E0,-8.308023376E0,-4.827461243E-1,9.434108584E0
3.336860208E0,-3.670217743E0,-8.054600372E0,-6.845265198E-1,8.877818538E0
3.346938208E0,-3.047362976E0,-7.886350250E0,-9.924362183E-1,8.512688825E0
3.357017208E0,-2.650987244E0,-7.942184143E0,-1.334624634E0,8.478634633E0
3.367095208E0,-2.158661041E0,-7.852969666E0,-1.487905884E0,8.279058762E0
3.377174208E0,-1.538650360E0,-7.755073242E0,-1.872456207E0,8.124942964E0
3.387252208E0,-7.080276489E-1,-7.634723511E0,-2.248025208E0,7.990239269E0
3.397331208E0,1.013392639E-1,-7.443421326E0,-2.593506775E0,7.882960616E0
3.407409208E0,6.454577637E-1,-7.274422760E0,-2.850522308E0,7.839599457E0
3.417488208E0,1.008003845E0,-7.169490967E0,-2.953657837E0,7.819320117E0
3.427567208E0,1.020428009E0,-6.988367615E0,-2.812501373E0,7.601889187E0
3.437645208E0,6.845265198E-1,-6.844367065E0,-2.594404907E0,7.351521877E0
3.447724208E0,1.300794983E-1,-6.704258423E0,-2.118843842E0,7.032318316E0
3.457802208E0,-6.295907593E-1,-6.602470093E0,-1.474433899E0,6.794332283E0
3.467881208E0,-1.771715698E0,-6.532565460E0,-7.438032532E-1,6.809304758E0
3.477959208E0,-2.935096436E0,-6.517446899E0,-2.933898926E-2,7.147920393E0
3.488038208E0,-3.606899414E0,-6.697073364E0,1.585203552E-1,7.608261545E0
3.498116208E0,-3.992647247E0,-6.989565125E0,2.215393066E-2,8.049580329E0
3.508195208E0,-4.499642944E0,-7.377707977E0,1.655557251E-1,8.643192137E0
3.518274208E0,-5.459447021E0,-7.837252350E0,9.277706909E-1,9.596293276E0
3.528352208E0,-6.853947144E0,-8.114924927E0,2.093097382E0,1.082634078E1
3.538431208E0,-8.100704498E0,-8.368347931E0,3.201841736E0,1.207900869E1
3.548509208E0,-9.050928497E0,-8.648415527E0,4.149371338E0,1.318831605E1
3.558588208E0,-9.945617981E0,-9.152267761E0,4.657863922E0,1.429597910E1
3.568666208E0,-1.094074860E1,-9.785451050E0,4.857249298E0,1.546117404E1
3.578745208E0,-1.212538513E1,-1.050725006E1,4.804558868E0,1.674846424E1
3.588823208E0,-1.334654572E1,-1.123533600E1,5.014871521E0,1.815246523E1
3.598902208E0,-1.451232147E1,-1.198856964E1,5.376818848E0,1.957660485E1
3.608980208E0,-1.564321976E1,-1.288251068E1,5.875881042E0,2.109965364E1
3.619059208E0,-1.669702835E1,-1.379276779E1,6.699318695E0,2.266962880E1
3.629138208E0,-1.765907776E1,-1.446307388E1,7.948920135E0,2.417041300E1
3.639216208E0,-1.849898117E1,-1.460153595E1,9.487271118E0,2.540522524E1
3.649295208E0,-1.895553177E1,-1.433374283E1,1.073148376E1,2.607552707E1
3.659373208E0,-1.905133255E1,-1.371343277E1,1.144175674E1,2.611369962E1
3.669452208E0,-1.889984756E1,-1.279988251E1,1.161225220E1,2.561026418E1
3.679530208E0,-1.886362289E1,-1.172272247E1,1.139699982E1,2.496297450E1
3.689609208E0,-1.863908981E1,-1.049467621E1,1.098640366E1,2.404693251E1
3.699687208E0,-1.813868042E1,-9.320817261E0,1.066187851E1,2.301227966E1
3.709766208E0,-1.756312729E1,-8.219557343E0,1.034528687E1,2.197838764E1
3.719845208E0,-1.688144485E1,-7.113507385E0,9.906698914E0,2.082613385E1
3.729923208E0,-1.655362656E1,-5.990243225E0,9.198222198E0,1.986234774E1
3.740002208E0,-1.647848282E1,-4.889731750E0,8.643026733E0,1.923932909E1
3.750080208E0,-1.643597122E1,-3.722608795E0,8.301287384E0,1.878590798E1
3.760159208E0,-1.625903915E1,-2.736010437E0,8.151448975E0,1.839261340E1
3.770237208E0,-1.566028427E1,-1.895657959E0,8.160130920E0,1.776022971E1
3.780316208E0,-1.488354950E1,-1.262324982E0,8.339308319E0,1.710723745E1
3.790394208E0,-1.438209229E1,-6.783892822E-1,8.615184631E0,1.677874241E1
3.800473208E0,-1.436068680E1,-3.077600098E-1,8.624016266E0,1.675403528E1
3.810551208E0,-1.464659225E1,-1.860630798E-1,8.313262482E0,1.684243501E1
3.820630208E0,-1.504431519E1,-3.444337463E-1,7.862998810E0,1.697871621E1
3.830709208E0,-1.571162750E1,-6.804849243E-1,7.728278961E0,1.752268798E1
3.840787208E0,-1.595621887E1,-9.138496399E-1,7.534282379E0,1.766922332E1
3.850866208E0,-1.590173218E1,-1.290167084E0,7.341632996E0,1.756215227E1
3.860944208E0,-1.557511139E1,-1.513802032E0,7.635921021E0,1.741215039E1
3.871022792E0,-1.514849854E1,-1.488654327E0,8.217012634E0,1.729775697E1
3.881100792E0,-1.465542389E1,-1.140328674E0,8.875643005E0,1.717145415E1
3.891179792E0,-1.401924683E1,-3.541635132E-1,9.402547302E0,1.688409338E1
3.901257792E0,-1.365056351E1,6.039939880E-1,1.001806732E1,1.694297393E1
3.911336792E0,-1.355042175E1,1.551224213E0,1.080887283E1,1.740264228E1
3.921415792E0,-1.372271347E1,2.373164978E0,1.138966507E1,1.799081008E1
3.931493792E0,-1.440619217E1,2.875819702E0,1.205158859E1,1.900130257E1
3.941572792E0,-1.507275604E1,3.091221771E0,1.237461685E1,1.974524674E1
3.951650792E0,-1.534758453E1,3.166215820E0,1.194231583E1,1.970259325E1
3.961729792E0,-1.524040741E1,3.176544342E0,1.093925171E1,1.902702499E1
3.971807792E0,-1.521121811E1,3.201392670E0,9.529333649E0,1.823288982E1
3.981886792E0,-1.546119827E1,3.124602356E0,7.939040680E0,1.765899654E1
3.991964792E0,-1.597702560E1,2.854414215E0,6.686146088E0,1.755327825E1
4.002043792E0,-1.633957169E1,2.516267395E0,5.726192322E0,1.749578472E1
4.012121792E0,-1.643552216E1,2.066602478E0,4.908891907E0,1.727699204E1
4.022200792E0,-1.658341461E1,1.475930786E0,4.046535187E0,1.713366449E1
4.032279792E0,-1.700059708E1,7.357200623E-1,3.407663727E0,1.735435845E1
4.042357792E0,-1.745759674E1,-2.522254944E-1,3.136727142E0,1.773895033E1
4.052436792E0,-1.805380692E1,-1.207389221E0,3.308869171E0,1.839419332E1
4.062514792E0,-1.875914017E1,-2.235151978E0,3.555256805E0,1.922345170E1
4.072593792E0,-1.965068619E1,-3.269950104E0,3.996389465E0,2.031780426E1
4.082671792E0,-2.066153412E1,-4.563709717E0,4.655468903E0,2.166563706E1
4.092750792E0,-2.198747681E1,-5.659880219E0,5.459746399E0,2.335149270E1
4.102828792E0,-2.345861755E1,-6.909930725E0,6.169720001E0,2.522140609E1
4.112907792E0,-2.489652740E1,-8.018076324E0,6.323300629E0,2.690930612E1
4.122986792E0,-2.570020615E1,-9.245224457E0,6.034700775E0,2.797127785E1
4.133064792E0,-2.576472198E1,-1.025532394E1,5.508993988E0,2.827262957E1
4.143143792E0,-2.548555252E1,-1.104178848E1,4.724325714E0,2.817363544E1
4.153221792E0,-2.483859787E1,-1.179831528E1,4.027075653E0,2.779160891E1
4.163300792E0,-2.360695908E1,-1.223795105E1,3.407514038E0,2.680796737E1
4.173378792E0,-2.216141510E1,-1.238045471E1,2.762804718E0,2.553501651E1
4.183457792E0,-2.072649902E1,-1.239976456E1,2.116897888E0,2.424506505E1
4.193535792E0,-1.910417267E1,-1.218600906E1,1.592987366E0,2.271576191E1
4.203614792E0,-1.748199600E1,-1.181687668E1,1.365759888E0,2.114530820E1
4.213692792E0,-1.588077576E1,-1.139355698E1,1.260678406E0,1.958574709E1
4.223771792E0,-1.456785599E1,-1.117590958E1,1.137783966E0,1.839613914E1
4.233850792E0,-1.315344727E1,-1.103714813E1,1.006656647E0,1.720015033E1
4.243928792E0,-1.166928360E1,-1.070603668E1,5.412744141E-1,1.584564228E1
4.254007792E0,-1.045306274E1,-1.015129028E1,7.783813477E-3,1.457104237E1
4.264085792E0,-9.716743927E0,-9.624685364E0,-1.097218323E-1,1.367705084E1
4.274164792E0,-8.779542847E0,-9.196276245E0,-1.859133911E-1,1.271559803E1
4.284242792E0,-7.279512177E0,-8.727750549E0,-6.252497864E-1,1.138226096E1
4.294321792E0,-6.054908752E0,-8.934620361E0,-1.034498749E0,1.084248812E1
4.304399792E0,-4.719086609E0,-8.994495850E0,-1.020577698E0,1.020844321E1
4.314478792E0,-3.432961121E0,-8.951684875E0,-1.324445801E0,9.678431735E0
4.324556792E0,-2.553240509E0,-8.706345062E0,-1.714384918E0,9.233558203E0
4.334635792E0,-1.899849243E0,-8.533753967E0,-1.973945160E0,8.962747537E0
4.344714792E0,-1.304537201E0,-8.219557343E0,-1.964215393E0,8.551086617E0
4.354792792E0,-6.912625122E-1,-7.926317139E0,-1.895657959E0,8.179111586E0
4.364871792E0,-1.965412903E-1,-7.661817169E0,-1.863474884E0,7.887623816E0
4.374949792E0,2.125579834E-2,-7.509733429E0,-1.927242279E0,7.753116198E0
4.385028792E0,2.668949890E-1,-7.416926422E0,-1.993255005E0,7.684731355E0
4.395106792E0,5.057981873E-1,-7.257957001E0,-1.947001190E0,7.531572563E0
4.405185792E0,4.800517273E-1,-7.193441162E0,-1.949845276E0,7.468463163E0
4.415263792E0,3.891906738E-1,-7.084318085E0,-1.684746552E0,7.292283802E0
4.425342792E0,1.456471252E-1,-6.927144928E0,-1.323547668E0,7.053958348E0
4.435420792E0,-2.947370911E-1,-6.911277924E0,-7.192543030E-1,6.954851490E0
4.445499792E0,-1.069675598E0,-6.957082672E0,1.230441284E-1,7.039910869E0
4.455578792E0,-1.929487610E0,-6.923702087E0,7.637118530E-1,7.227989266E0
4.465656792E0,-2.652933197E0,-6.966662750E0,9.632469177E-1,7.516667416E0
4.475735792E0,-3.745960236E0,-7.117698669E0,1.142574005E0,8.123997033E0
4.485813792E0,-5.249433746E0,-7.343129883E0,1.631756744E0,9.172826239E0
4.495892792E0,-6.718329163E0,-7.623496857E0,2.101180573E0,1.037634863E1
4.505970792E0,-7.910599823E0,-7.922724609E0,2.651286621E0,1.150549762E1
4.516049792E0,-8.860674133E0,-8.319100342E0,3.283721466E0,1.258974993E1
4.526127792E0,-9.720486145E0,-8.869954834E0,3.851640472E0,1.371127580E1
4.536206792E0,-1.066127975E1,-9.612111511E0,4.433630219E0,1.502373624E1
4.546284792E0,-1.139235947E1,-1.028511200E1,5.075645142E0,1.616575259E1
4.556363792E0,-1.242072098E1,-1.097128510E1,5.801336060E0,1.755844259E1
4.566442792E0,-1.366193985E1,-1.181328415E1,6.570586395E0,1.921912819E1
4.576520792E0,-1.499776199E1,-1.251173172E1,7.539371796E0,2.093605556E1
4.586599792E0,-1.607207794E1,-1.275796967E1,8.725056152E0,2.229807355E1
4.596677792E0,-1.673430084E1,-1.295301407E1,9.803264008E0,2.332212219E1
4.606756792E0,-1.698892136E1,-1.317530182E1,1.053509216E1,2.394159965E1
4.616834792E0,-1.684536987E1,-1.319131851E1,1.120195541E1,2.415080072E1
4.626913792E0,-1.653865768E1,-1.278162048E1,1.216190918E1,2.418282562E1
4.636991792E0,-1.628328873E1,-1.212553482E1,1.304686890E1,2.413285881E1
4.647070792E0,-1.565519485E1,-1.166314636E1,1.371178619E1,2.385638677E1
4.657149792E0,-1.526151352E1,-1.123144409E1,1.523007889E1,2.431078843E1
4.667227792E0,-1.540177185E1,-1.025786865E1,1.677396835E1,2.497607775E1
4.677306792E0,-1.538021667E1,-9.058712311E0,1.687411011E1,2.456312125E1
4.687384792E0,-1.534593796E1,-7.842641144E0,1.560504913E1,2.324913741E1
4.697463792E0,-1.535566772E1,-6.634802856E0,1.290301804E1,2.112593228E1
4.707541792E0,-1.569785614E1,-5.272485809E0,1.016880386E1,1.943261089E1
4.717620792E0,-1.654898621E1,-3.830684052E0,7.841144257E0,1.870899858E1
4.727698792E0,-1.719025269E1,-2.347119141E0,6.104755096E0,1.839243840E1
4.737777792E0,-1.762539780E1,-1.006357269E0,4.788242798E0,1.829192914E1
4.747855792E0,-1.792507462E1,3.109034729E-1,3.931125183E0,1.835371096E1
4.757934792E0,-1.747361343E1,1.600771179E0,3.183280334E0,1.783319681E1
4.768012792E0,-1.674118652E1,2.145638123E0,2.419418793E0,1.705065032E1
4.778091792E0,-1.579036377E1,2.030228119E0,1.977537689E0,1.604269521E1
4.788170792E0,-1.501677246E1,1.546883240E0,2.373164978E0,1.528162998E1
4.798248792E0,-1.455722809E1,9.886940002E-1,3.093167725E0,1.491502907E1
4.808327792E0,-1.449061661E1,2.764750671E-1,3.837719421E0,1.499274820E1
4.818405792E0,-1.456785599E1,-3.402424622E-1,4.946763153E0,1.538858859E1
4.828484792E0,-1.453597229E1,-6.294410706E-1,6.032455444E0,1.575059380E1
4.838562792E0,-1.483520004E1,-8.247848511E-1,6.826404419E0,1.635124545E1
4.848641792E0,-1.551583466E1,-7.442523193E-1,7.559579773E0,1.727548213E1
4.858719792E0,-1.647159714E1,-2.227368164E-1,8.191116486E0,1.839721482E1
4.868799042E0,-1.760833328E1,5.936654663E-1,8.210126953E0,1.943738728E1
4.878877042E0,-1.850152588E1,1.599573669E0,7.741301880E0,2.011946447E1
4.888956042E0,-1.927122528E1,2.519859924E0,7.282206573E0,2.075476693E1
4.899035042E0,-2.014271301E1,3.179538116E0,6.874604187E0,2.151972428E1
4.909113042E0,-2.083891525E1,3.338357849E0,6.491550751E0,2.208042692E1
4.919192042E0,-2.115296219E1,3.188070374E0,5.914201355E0,2.219435468E1
4.929270042E0,-2.086870331E1,2.936593323E0,4.885839844E0,2.163325655E1
4.939349042E0,-2.003508682E1,2.712509308E0,3.589834900E0,2.053410152E1
4.949427042E0,-1.927257248E1,2.391427002E0,2.052232361E0,1.952850815E1
4.959506042E0,-1.874821289E1,1.845212860E0,6.873706055E-1,1.885133352E1
4.969584042E0,-1.834839432E1,1.365460510E0,-2.737806702E-1,1.840116878E1
4.979663042E0,-1.811712524E1,8.578660583E-1,-1.335223389E0,1.818650551E1
4.989741042E0,-1.796848434E1,4.683760071E-1,-2.402204590E0,1.813439805E1
4.999820042E0,-1.795067139E1,-7.634124756E-2,-3.443289642E0,1.827809276E1
5.009899042E0,-1.860466141E1,-1.042132874E0,-3.776646423E0,1.901269379E1
5.019977042E0,-1.969140152E1,-2.249821472E0,-2.933150482E0,2.003537777E1
5.030056042E0,-2.116598511E1,-3.645219727E0,-1.427731018E0,2.152498475E1
5.040134042E0,-2.280971695E1,-5.330714722E0,1.710942078E-1,2.342496489E1
5.050213042E0,-2.420751022E1,-6.880442047E0,1.641187134E0,2.521978448E1
5.060291042E0,-2.525847473E1,-8.267158356E0,2.744692383E0,2.671834181E1
5.070370042E0,-2.573687988E1,-9.606872406E0,3.573668518E0,2.770288956E1
5.080448042E0,-2.588432327E1,-1.047940796E1,4.331692200E0,2.825915320E1
5.090527042E0,-2.600542145E1,-1.113429611E1,4.814887390E0,2.869560306E1
5.100605042E0,-2.577654739E1,-1.165102158E1,4.842729492E0,2.869893253E1
5.110684042E0,-2.550366486E1,-1.222118591E1,4.914729767E0,2.870450966E1
5.120763042E0,-2.550830521E1,-1.277922546E1,5.165308685E0,2.899418307E1
5.130841042E0,-2.517075714E1,-1.325104431E1,5.418731689E0,2.895720711E1
5.140920042E0,-2.387235718E1,-1.355416397E1,5.351222076E0,2.796856049E1
5.150998042E0,-2.224164825E1,-1.367211868E1,5.120252380E0,2.660516361E1
5.161077042E0,-2.027563660E1,-1.347198486E1,4.564158783E0,2.476746578E1
5.171155042E0,-1.823493027E1,-1.321422089E1,4.383334808E0,2.294214331E1
5.181234042E0,-1.618599106E1,-1.267653900E1,4.134552155E0,2.097082424E1
5.191312042E0,-1.426219162E1,-1.207987976E1,3.705544281E0,1.905425578E1
5.201391042E0,-1.247386047E1,-1.127395569E1,3.321443024E0,1.713858967E1
5.211469042E0,-1.094194611E1,-1.043584854E1,2.944676514E0,1.540468238E1
5.221548042E0,-9.733958130E0,-9.814790039E0,2.708018646E0,1.408592948E1
5.231627042E0,-8.645870819E0,-9.329798584E0,2.464924164E0,1.295654564E1
5.241705042E0,-7.611372070E0,-8.880732422E0,2.311942291E0,1.192247752E1
5.251784042E0,-6.500831451E0,-8.364905090E0,2.070943451E0,1.079450108E1
5.261862042E0,-5.410947876E0,-7.981851654E0,1.671573944E0,9.786852006E0
5.271941042E0,-4.442012787E0,-7.843838654E0,1.418600006E0,9.125223745E0
5.282019042E0,-3.327280884E0,-7.768994293E0,1.469494171E0,8.578314725E0
5.292098042E0,-2.315085754E0,-7.858358459E0,1.396146698E0,8.310393813E0
5.302176042E0,-1.426832886E0,-8.096513214E0,1.338366852E0,8.329502034E0
5.312255042E0,-6.412664795E-1,-8.188571777E0,1.256636810E0,8.309215759E0
5.322333042E0,8.666976929E-2,-8.212821350E0,7.369175720E-1,8.246271502E0
5.332412042E0,7.062313843E-1,-8.137378235E0,1.453477478E-1,8.169260265E0
5.342491042E0,1.264420624E0,-7.947123871E0,-8.187973022E-2,8.047499091E0
5.352569042E0,1.894310760E0,-7.745493164E0,-3.341052246E-1,7.980770885E0
5.362648042E0,2.350412292E0,-7.617060242E0,-5.572911072E-1,7.990908462E0
5.372726042E0,2.662064209E0,-7.649692383E0,-6.810836792E-1,8.128238086E0
5.382805042E0,2.776127014E0,-7.778724060E0,-6.652166748E-1,8.286008836E0
5.392883042E0,2.572400665E0,-7.935148773E0,-2.871029663E-1,8.346631617E0
5.402962042E0,2.016307068E0,-8.195457458E0,1.139131165E-1,8.440615697E0
5.413040042E0,1.260079651E0,-8.390801239E0,6.848258972E-1,8.512480994E0
5.423119042E0,6.268963623E-1,-8.490942993E0,1.168470154E0,8.593860277E0
5.433197042E0,-2.829116821E-1,-8.674910431E0,1.661395111E0,8.837100414E0
5.443276042E0,-1.582808533E0,-8.866362305E0,2.425106964E0,9.327315110E0
5.453355042E0,-3.000360718E0,-9.045090637E0,3.401676178E0,1.011865751E1
5.463433042E0,-4.466262360E0,-9.271569672E0,4.550836487E0,1.125253822E1
5.473512042E0,-6.012696533E0,-9.445358276E0,5.675896912E0,1.255321147E1
5.483590042E0,-7.634124756E0,-9.591304779E0,6.718029785E0,1.397873071E1
5.493669042E0,-9.362131348E0,-9.795629883E0,7.498207397E0,1.548634826E1
5.503747042E0,-1.108100693E1,-1.016790573E1,7.619455261E0,1.685915538E1
5.513826042E0,-1.281994080E1,-1.066487228E1,7.069947968E0,1.811282825E1
5.523904042E0,-1.429886536E1,-1.113953522E1,6.650370483E0,1.930736188E1
5.533983042E0,-1.513173340E1,-1.170550827E1,6.141578522E0,2.009246790E1
5.544061042E0,-1.542242889E1,-1.272264313E1,5.537584534E0,2.074564541E1
5.554140042E0,-1.579201035E1,-1.363080460E1,5.627547455E0,2.160684417E1
5.564218042E0,-1.675465851E1,-1.439197174E1,6.458170166E0,2.301207062E1
5.574297042E0,-1.833567078E1,-1.500509674E1,7.785759430E0,2.493928229E1
5.584376042E0,-1.959844482E1,-1.532917282E1,8.976682892E0,2.645115148E1
5.594454042E0,-2.031739975E1,-1.535432053E1,1.006506958E1,2.738352638E1
5.604533042E0,-2.074595856E1,-1.523277328E1,1.118339401E1,2.806243895E1
5.614611042E0,-2.075508957E1,-1.487726257E1,1.222328156E1,2.831104549E1
5.624690042E0,-2.028192352E1,-1.423674454E1,1.328696960E1,2.811734123E1
5.634768042E0,-1.933259766E1,-1.355596024E1,1.469524109E1,2.781121178E1
5.644847042E0,-1.836081848E1,-1.258208542E1,1.607312576E1,2.745494310E1
5.654925042E0,-1.777478714E1,-1.113100296E1,1.561687454E1,2.614821323E1
5.665004042E0,-1.818209015E1,-1.025981461E1,1.368978195E1,2.496522237E1
5.675083042E0,-1.824615692E1,-8.959468689E0,1.168185745E1,2.344483131E1
5.685161042E0,-1.827714249E1,-7.387886810E0,9.593699799E0,2.192427615E1
5.695240042E0,-1.832145035E1,-5.877826996E0,7.894134064E0,2.079763798E1
5.705318042E0,-1.806802734E1,-4.307143250E0,6.556216278E0,1.969743808E1
5.715397042E0,-1.783211792E1,-3.184178467E0,5.980363770E0,1.907585314E1
5.725475042E0,-1.748708542E1,-2.525697784E0,6.501879272E0,1.882688874E1
5.735554042E0,-1.678908691E1,-2.454595642E0,7.522456970E0,1.856032969E1
5.745632042E0,-1.632205811E1,-2.589016113E0,9.176966400E0,1.890315576E1
5.755711042E0,-1.611429016E1,-2.487826538E0,1.096589630E1,1.964969491E1
5.765789042E0,-1.598660568E1,-2.178419952E0,1.230516129E1,2.029123133E1
5.775868042E0,-1.591116257E1,-1.497186584E0,1.316467392E1,2.070544135E1
5.785946042E0,-1.627610367E1,-4.827461243E-1,1.350611389E1,2.115560698E1
5.796025042E0,-1.727347961E1,6.994953918E-1,1.331241669E1,2.181932240E1
5.806104042E0,-1.861484024E1,2.233655090E0,1.278760803E1,2.269414928E1
5.816182042E0,-1.953692276E1,4.278403015E0,1.225456650E1,2.345571323E1
5.826261042E0,-2.077784225E1,6.276747437E0,1.182675613E1,2.471818051E1
5.836339042E0,-2.245285904E1,8.184679871E0,1.194950089E1,2.671910244E1
5.846418042E0,-2.402518936E1,9.172326050E0,1.220277420E1,2.846487286E1
5.856496042E0,-2.468381973E1,9.029822388E0,1.176688065E1,2.879736323E1
5.866575042E0,-2.397788773E1,8.290360107E0,1.034004776E1,2.739682022E1
5.876652542E0,-2.229568588E1,7.375312958E0,8.578510895E0,2.500167393E1
5.886731542E0,-2.035601944E1,6.424939270E0,7.081324310E0,2.248983161E1
5.896809542E0,-1.866199219E1,5.648503876E0,6.237229614E0,2.047140888E1
5.906888542E0,-1.742167145E1,5.220543823E0,5.894442444E0,1.911839861E1
5.916966542E0,-1.675510757E1,5.012626190E0,5.483247528E0,1.832828564E1
5.927045542E0,-1.653311920E1,4.845723267E0,5.035528564E0,1.794941816E1
5.937124542E0,-1.644989227E1,4.639302521E0,4.612657928E0,1.770307027E1
5.947202542E0,-1.662158524E1,4.122726746E0,4.209845581E0,1.763510055E1
5.957281542E0,-1.698428101E1,3.427572327E0,3.580554199E0,1.769277880E1
5.967359542E0,-1.769964340E1,2.524799652E0,2.816842346E0,1.809935332E1
5.977438542E0,-1.880269958E1,1.119521942E0,2.159259796E0,1.895935769E1
5.987516542E0,-2.014795212E1,-5.260061646E-1,1.755998383E0,2.023116871E1
5.997595542E0,-2.175965057E1,-2.351609802E0,1.769320679E0,2.195775392E1
6.007673542E0,-2.363974091E1,-4.305945740E0,2.199675751E0,2.412917513E1
6.017752542E0,-2.555530746E1,-6.180198212E0,2.924318848E0,2.645411556E1
6.027830542E0,-2.750425461E1,-7.918084259E0,3.757037201E0,2.886685657E1
6.037909542E0,-2.946622467E1,-9.473499756E0,4.482728119E0,3.127459744E1
6.047988542E0,-3.127506317E1,-1.099523529E1,4.690945129E0,3.348178224E1
6.058066542E0,-3.251418640E1,-1.239108261E1,4.378844147E0,3.506972372E1
6.068145542E0,-3.273602509E1,-1.346045883E1,4.061354370E0,3.562760011E1
6.078223542E0,-3.228576141E1,-1.415830765E1,3.720213776E0,3.544951419E1
6.088302542E0,-3.169838287E1,-1.465856735E1,3.464096375E0,3.509502867E1
6.098380542E0,-3.083572678E1,-1.522154663E1,3.686982880E0,3.458513222E1
6.108459542E0,-2.938150085E1,-1.576237198E1,4.348157959E0,3.362486343E1
6.118537542E0,-2.726864456E1,-1.601878876E1,4.939578094E0,3.200906124E1
6.128616542E0,-2.503439072E1,-1.614512604E1,5.069058838E0,3.021723301E1
6.138694542E0,-2.247890488E1,-1.586505844E1,4.911885681E0,2.794866481E1
6.148773542E0,-1.982672012E1,-1.516915558E1,4.552632751E0,2.537574781E1
6.158851542E0,-1.777224243E1,-1.454674988E1,4.262386322E0,2.335869153E1
6.168930542E0,-1.609692627E1,-1.382300491E1,4.034560089E0,2.159778172E1
6.179009542E0,-1.467159027E1,-1.305869431E1,3.740571442E0,1.999442254E1
6.189087542E0,-1.343111984E1,-1.249661316E1,3.313509521E0,1.864241578E1
6.199166542E0,-1.191926376E1,-1.192525131E1,2.797981567E0,1.709120149E1
6.209244542E0,-1.032882111E1,-1.153441406E1,2.777025146E0,1.573019777E1
6.219323542E0,-8.532706146E0,-1.133832184E1,2.913690948E0,1.448634568E1
6.229401542E0,-6.517446899E0,-1.112351852E1,3.008443909E0,1.323859937E1
6.239480542E0,-4.925806732E0,-1.100556381E1,2.902763672E0,1.240209836E1
6.249558542E0,-3.557502136E0,-1.092503128E1,2.714305573E0,1.180591312E1
6.259637542E0,-2.448159027E0,-1.079510147E1,2.307751007E0,1.130722836E1
6.269715542E0,-1.827100525E0,-1.080872314E1,1.833387451E0,1.111431968E1
6.279794542E0,-1.417252808E0,-1.090931396E1,1.287472687E0,1.107606982E1
6.289873542E0,-9.984237671E-1,-1.090407486E1,4.962181091E-1,1.096092747E1
6.299951542E0,-3.417393494E-1,-1.102681961E1,-3.121009827E-1,1.103652769E1
6.310030542E0,7.197033691E-1,-1.103160965E1,-8.336164856E-1,1.108644672E1
6.320108542E0,1.785337372E0,-1.092293564E1,-8.551716614E-1,1.110086803E1
6.330187542E0,2.679877167E0,-1.079510147E1,-6.777905273E-1,1.114339972E1
6.340265542E0,3.321742401E0,-1.084360062E1,-3.218307495E-1,1.134553753E1
6.350344542E0,3.906725922E0,-1.084000809E1,4.427792358E-1,1.153101627E1
6.360422542E0,4.124073944E0,-1.074061478E1,1.353635101E0,1.158452069E1
6.370501542E0,3.679049377E0,-1.069915100E1,2.198178864E0,1.152559008E1
6.380579542E0,3.180885315E0,-1.054212753E1,2.981799316E0,1.140813795E1
6.390658542E0,2.370769958E0,-1.037732025E1,3.674259338E0,1.126097276E1
6.400736542E0,1.385069733E0,-1.014560211E1,4.247866516E0,1.108584820E1
6.410815542E0,1.353186035E-1,-9.651779022E0,4.581073608E0,1.068463312E1
6.420894542E0,-1.564396820E0,-9.051527252E0,4.902604980E0,1.041215725E1
6.430972542E0,-3.563639374E0,-8.418343964E0,5.195545807E0,1.051483414E1
6.441051542E0,-5.504054260E0,-7.884104919E0,5.113067322E0,1.089023329E1
6.451129542E0,-7.122638397E0,-7.730374603E0,4.687502289E0,1.150927222E1
6.461208542E0,-8.221652985E0,-7.894732819E0,4.293671265E0,1.218022976E1
6.471286542E0,-9.015751648E0,-8.463400269E0,3.969595184E0,1.298732489E1
6.481365542E0,-9.687854004E0,-9.392368469E0,3.953877869E0,1.406073436E1
6.491443542E0,-1.022403900E1,-1.053090088E1,4.167783051E0,1.525782627E1
6.501522542E0,-1.124012604E1,-1.150657196E1,4.747078400E0,1.677129646E1
6.511600542E0,-1.270393204E1,-1.212373856E1,5.412744141E0,1.837587345E1
6.521679542E0,-1.409933029E1,-1.287547531E1,5.695506134E0,1.992505381E1
6.531758542E0,-1.565384766E1,-1.386521713E1,6.064937897E0,2.177316386E1
6.541836542E0,-1.769605087E1,-1.479687973E1,6.972799988E0,2.409808718E1
6.551915542E0,-1.988210495E1,-1.573423050E1,7.953111420E0,2.657284493E1
6.561993542E0,-2.120939484E1,-1.681902466E1,8.979377289E0,2.851924326E1
6.572072542E0,-2.186607925E1,-1.776281204E1,1.026131149E1,2.998228522E1
6.582150542E0,-2.264835251E1,-1.821846451E1,1.187256088E1,3.139773913E1
6.592229542E0,-2.396830765E1,-1.795950302E1,1.341300751E1,3.281664655E1
6.602307542E0,-2.502271500E1,-1.679791855E1,1.453357727E1,3.345939631E1
6.612386542E0,-2.548899536E1,-1.516212021E1,1.476858856E1,3.313140477E1
6.622464542E0,-2.609074402E1,-1.382210678E1,1.420560928E1,3.276548328E1
6.632543542E0,-2.551578964E1,-1.147034729E1,1.295615753E1,3.082995955E1
6.642621542E0,-2.502031998E1,-9.167236633E0,1.017464172E1,2.852328826E1
6.652700542E0,-2.480042725E1,-6.846911774E0,7.046895905E0,2.667583428E1
6.662779542E0,-2.447036362E1,-4.827910309E0,4.813689880E0,2.540234288E1
6.672857542E0,-2.380978729E1,-3.002007294E0,4.193679199E0,2.436195731E1
6.682936542E0,-2.242995667E1,-1.254391479E0,4.699477386E0,2.295128628E1
6.693014542E0,-2.139186539E1,1.773811340E-1,5.563630371E0,2.210423832E1
6.703093542E0,-2.052142548E1,1.486109619E0,5.928122406E0,2.141214750E1
6.713171542E0,-2.004691223E1,2.336940308E0,5.935606842E0,2.103738122E1
6.723250542E0,-1.966924759E1,2.552192688E0,5.498964844E0,2.058231286E1
6.733328542E0,-1.839839035E1,2.143093414E0,4.302502899E0,1.901591828E1
6.743407542E0,-1.709564941E1,1.135838013E0,3.201242981E0,1.742983974E1
6.753485542E0,-1.605621094E1,9.325607300E-2,2.549049225E0,1.625756004E1
6.763564542E0,-1.515882706E1,-1.163680115E0,2.036814423E0,1.533925690E1
6.773642542E0,-1.445543976E1,-2.313439178E0,2.605481873E0,1.486944099E1
6.783721542E0,-1.395488068E1,-3.032992859E0,3.820654907E0,1.478293422E1
6.793800542E0,-1.354757767E1,-3.462449799E0,5.068160706E0,1.487318635E1
6.803878542E0,-1.310045746E1,-3.327430573E0,6.606960754E0,1.504479014E1
6.813957542E0,-1.274180328E1,-2.534679108E0,8.303532715E0,1.541839177E1
6.824035542E0,-1.277862671E1,-1.114133148E0,1.035112473E1,1.648272964E1
6.834114542E0,-1.300615356E1,8.424481201E-1,1.271845184E1,1.821067727E1
6.844192542E0,-1.415606232E1,2.766097870E0,1.506212814E1,2.085457029E1
6.854271542E0,-1.596999023E1,3.957769775E0,1.636965912E1,2.320927119E1
6.864349542E0,-1.708187805E1,4.438420258E0,1.629137192E1,2.401872043E1
6.874429042E0,-1.706002350E1,4.440515900E0,1.447265396E1,2.280833830E1
6.884507042E0,-1.599468887E1,4.246818695E0,1.184861069E1,2.035325813E1
6.894586042E0,-1.524983780E1,4.391118622E0,9.579629059E0,1.853668710E1
6.904664042E0,-1.483130814E1,4.287534027E0,7.754624176E0,1.727671396E1
6.914743042E0,-1.461845078E1,4.240531769E0,6.705156555E0,1.663250845E1
6.924821042E0,-1.464554443E1,4.059707794E0,5.998176727E0,1.633864508E1
6.934900042E0,-1.495629822E1,3.751947784E0,4.984335022E0,1.620529433E1
6.944979042E0,-1.610096786E1,3.425626373E0,4.023483124E0,1.694592868E1
6.955057042E0,-1.767524414E1,2.831511841E0,3.113076324E0,1.816928614E1
6.965136042E0,-1.915761154E1,1.684147797E0,2.126178589E0,1.934867099E1
6.975214042E0,-2.081451599E1,2.935395813E-1,1.849254456E0,2.089856415E1
6.985293042E0,-2.236319550E1,-1.373693390E0,2.469414825E0,2.254101941E1
6.995371042E0,-2.368419846E1,-3.134332123E0,3.853436737E0,2.419946836E1
7.005450042E0,-2.488395355E1,-4.972808990E0,5.721402283E0,2.601296634E1
7.015528042E0,-2.629132690E1,-6.881938934E0,7.590265961E0,2.821714180E1
7.025607042E0,-2.730157608E1,-8.742420044E0,8.843010864E0,3.000008010E1
7.035685042E0,-2.717553818E1,-1.022867935E1,9.260492706E0,3.047773748E1
7.045764042E0,-2.722957581E1,-1.230381409E1,8.975335693E0,3.119920336E1
7.055842042E0,-2.583402786E1,-1.306483154E1,8.845106506E0,3.027082305E1
7.065921042E0,-2.498634064E1,-1.388796982E1,8.628955994E0,2.986053927E1
7.076000042E0,-2.428430054E1,-1.441277847E1,8.419391785E0,2.946763638E1
7.086078042E0,-2.282812866E1,-1.451037552E1,7.862549744E0,2.816902811E1
7.096157042E0,-2.155068512E1,-1.490211090E1,7.098987579E0,2.714591246E1
7.106235042E0,-2.004062531E1,-1.453522385E1,6.268963623E0,2.553819296E1
7.116314042E0,-1.832025284E1,-1.388796982E1,5.165907440E0,2.356255439E1
7.126392042E0,-1.658341461E1,-1.367092117E1,3.765419769E0,2.181930595E1
7.136471042E0,-1.476709167E1,-1.331795517E1,2.693648529E0,2.006715398E1
7.146549042E0,-1.322335190E1,-1.284164566E1,2.036215668E0,1.854483952E1
7.156628042E0,-1.182960022E1,-1.223690323E1,1.252146149E0,1.706602215E1
7.166706042E0,-1.038510406E1,-1.178678925E1,2.731819153E-1,1.571156948E1
7.176785042E0,-8.915460205E0,-1.123982666E1,-5.483097839E-1,1.435687214E1
7.186864042E0,-7.680378571E0,-1.065199905E1,-9.376501465E-1,1.316557962E1
7.196942042E0,-6.680008850E0,-1.032567764E1,-8.348139954E-1,1.232635597E1
7.207021042E0,-5.770949249E0,-1.014575180E1,-6.692582703E-1,1.169136611E1
7.217099042E0,-4.788991241E0,-9.755064240E0,-8.328680420E-1,1.089905430E1
7.227178042E0,-3.895499268E0,-9.105564880E0,-1.230890350E0,9.980045961E0
7.237256042E0,-3.164269867E0,-8.673862610E0,-1.974094849E0,9.441691948E0
7.247335042E0,-2.415676575E0,-8.115373993E0,-2.644850006E0,8.870739536E0
7.257413042E0,-2.219584351E0,-7.710466003E0,-3.357368317E0,8.697687204E0
7.267492042E0,-2.387086029E0,-7.437134399E0,-3.551514587E0,8.580349856E0
7.277570042E0,-2.459235992E0,-7.119494934E0,-3.411705322E0,8.268904582E0
7.287649042E0,-2.443967743E0,-6.826404419E0,-3.296744385E0,7.965004655E0
7.297727042E0,-2.258353729E0,-6.468498688E0,-3.146007843E0,7.539164555E0
7.307806042E0,-1.950743408E0,-6.136339417E0,-2.876418457E0,7.052222658E0
7.317884042E0,-1.869013367E0,-5.808970184E0,-2.436632996E0,6.570732526E0
7.327963042E0,-2.005230103E0,-5.319937134E0,-2.104473724E0,6.062300597E0
7.338042042E0,-2.354753265E0,-4.850213928E0,-1.922152863E0,5.723994210E0
7.348120042E0,-2.799179077E0,-4.385729828E0,-1.741777954E0,5.486694822E0
7.358199042E0,-3.244952087E0,-4.280049591E0,-1.662891998E0,5.622610457E0
7.368277042E0,-3.690575409E0,-4.350852356E0,-1.295256500E0,5.850466005E0
7.378356042E0,-4.119583282E0,-4.514312439E0,-4.640350342E-1,6.129054718E0
7.388434042E0,-4.342170410E0,-4.751269684E0,8.122109985E-1,6.487579995E0
7.398513042E0,-4.810995483E0,-4.992268524E0,2.586172028E0,7.399777586E0
7.408591042E0,-5.418132935E0,-5.115761719E0,4.309388580E0,8.608020237E0
7.418670042E0,-5.896089020E0,-4.984784088E0,5.751639404E0,9.627735662E0
7.428748042E0,-6.936425629E0,-4.560117188E0,6.899153137E0,1.079384006E1
7.438827042E0,-8.300538940E0,-3.807631989E0,7.107669525E0,1.157220697E1
7.448905042E0,-9.535171509E0,-3.459156647E0,6.644382935E0,1.212571998E1
7.458984042E0,-1.052012329E1,-3.475173340E0,6.783593445E0,1.299103398E1
7.469063042E0,-1.114013397E1,-3.891607361E0,7.749534760E0,1.411745309E1
7.479141042E0,-1.169952072E1,-4.754862213E0,9.405690765E0,1.574657164E1
7.489220042E0,-1.199306030E1,-5.645510101E0,1.131407227E1,1.742737820E1
7.499298042E0,-1.169473068E1,-6.397845612E0,1.274449768E1,1.844237987E1
7.509377042E0,-1.083776276E1,-6.901697845E0,1.390009460E1,1.892889761E1
7.519455042E0,-1.049287994E1,-6.771468658E0,1.474269241E1,1.932098074E1
7.529534042E0,-1.084674408E1,-5.983956299E0,1.536614594E1,1.973773115E1
7.539612042E0,-1.116617981E1,-5.017865295E0,1.570249649E1,1.991057357E1
7.549691042E0,-1.146780258E1,-3.958218842E0,1.593945374E1,2.003108030E1
7.559769042E0,-1.137858810E1,-2.393073578E0,1.622416168E1,1.996052331E1
7.569848042E0,-1.099493591E1,-8.086184692E-1,1.669134018E1,2.000358259E1
7.579926042E0,-1.060140427E1,6.132746887E-1,1.772524017E1,2.066276887E1
7.590005042E0,-9.950108643E0,2.061363373E0,1.879326920E1,2.136447631E1
7.600084042E0,-9.419013062E0,3.087479553E0,1.950833221E1,2.188207858E1
7.610162042E0,-9.092691650E0,4.011807404E0,1.970652008E1,2.207076287E1
7.620241042E0,-8.679999847E0,4.889881439E0,1.911524963E1,2.155565138E1
7.630319042E0,-8.009244690E0,5.726042633E0,1.764096542E1,2.020245594E1
7.640398042E0,-7.568860474E0,6.265670471E0,1.581087112E1,1.861531415E1
7.650476042E0,-7.278314667E0,6.813830566E0,1.427506485E1,1.741205410E1
7.660555042E0,-6.980134735E0,6.986122284E0,1.332274521E1,1.658383928E1
7.670633042E0,-6.551725616E0,6.804100800E0,1.316871552E1,1.620604716E1
7.680712042E0,-5.895639954E0,6.506070557E0,1.320029984E1,1.585356238E1
7.690790042E0,-4.969366150E0,5.924529877E0,1.301139267E1,1.513575216E1
7.700869042E0,-4.177063751E0,5.299579468E0,1.280362473E1,1.447294753E1
7.710947042E0,-3.340902557E0,4.744833069E0,1.243060043E1,1.371841455E1
7.721026042E0,-2.654130707E0,4.346062317E0,1.203003342E1,1.306347471E1
7.731104042E0,-2.631527710E0,4.040248260E0,1.196432007E1,1.289936040E1
7.741183042E0,-2.738704834E0,4.162993011E0,1.214229996E1,1.312503193E1
7.751262042E0,-2.835254059E0,4.014651489E0,1.190968369E1,1.288396902E1
7.761340042E0,-2.651885376E0,3.879033508E0,1.129281647E1,1.223139815E1
7.771419042E0,-3.079246674E0,3.755091248E0,1.069855225E1,1.174910595E1
7.781497042E0,-3.814667358E0,3.172053680E0,1.075678116E1,1.184575673E1
7.791576042E0,-3.727249146E0,3.323688354E0,1.121258331E1,1.227441709E1
7.801654042E0,-3.966302032E0,3.115171967E0,1.159399017E1,1.264343531E1
7.811733042E0,-4.064048767E0,2.686463470E0,1.164668060E1,1.262452959E1
7.821811042E0,-3.933969269E0,2.484084320E0,1.157318344E1,1.247338623E1
7.831890042E0,-4.440964966E0,1.693727875E0,1.186926773E1,1.278555436E1
7.841968042E0,-3.992048492E0,1.765728149E0,1.230650848E1,1.305773327E1
7.852047042E0,-3.537743225E0,2.017953644E0,1.216684891E1,1.283043165E1
7.862125042E0,-4.058210907E0,1.709145813E0,1.176433594E1,1.256144320E1
7.872203958E0,-4.273762665E0,1.394799500E0,1.187974594E1,1.270192413E1
7.882282958E0,-3.809727631E0,1.110690308E0,1.233824249E1,1.296070544E1
7.892360958E0,-2.822680206E0,1.391656036E0,1.327783859E1,1.364570364E1
7.902439958E0,-2.708168335E0,1.329086151E0,1.428509399E1,1.460015603E1
7.912517958E0,-2.982697449E0,1.365909576E0,1.533545975E1,1.568242707E1
7.922596958E0,-3.534599762E0,8.310717773E-1,1.542227921E1,1.584395063E1
7.932674958E0,-4.319567413E0,1.707948303E-1,1.451486618E1,1.514493888E1
7.942753958E0,-4.392615509E0,-4.924758911E-1,1.305360489E1,1.378166188E1
7.952831958E0,-4.842430115E0,-1.688638458E0,1.077968353E1,1.193742880E1
7.962910958E0,-6.229146423E0,1.408570862E-1,8.817264404E0,1.079658545E1
7.972988958E0,-5.071453857E0,6.167175293E-1,7.083270264E0,8.733424435E0
7.983067958E0,-4.756508789E0,5.113366699E-1,6.340963898E0,7.943152032E0
7.993145958E0,-4.798122253E0,2.543211365E-1,7.015161896E0,8.502890851E0
8.003224958E0,-5.160518646E0,-9.174421692E-1,8.771759033E0,1.021843478E1
8.013302958E0,-4.656666412E0,-1.997595978E0,1.061412781E1,1.176157476E1
8.023381958E0,-3.951333160E0,-2.039059753E0,1.199979630E1,1.279710551E1
8.033460958E0,-3.651656342E0,-1.560205536E0,1.162332916E1,1.228294005E1
8.043538958E0,-3.248993683E0,-1.444945221E0,1.095556778E1,1.151817225E1
8.053617958E0,-3.286864929E0,-2.580633545E-1,9.240733795E0,9.811281202E0
8.063695958E0,-4.163891144E0,6.494993591E-1,7.559130707E0,8.654495706E0
8.073774958E0,-4.095782776E0,1.261576538E0,6.542594604E0,7.821288645E0
8.083852958E0,-4.802463226E0,1.842967529E0,5.969885559E0,7.880337299E0
8.093931958E0,-4.987927551E0,2.735261993E0,5.945635986E0,8.228709906E0
8.104009958E0,-4.887336731E0,3.550915833E0,5.714067535E0,8.315385221E0
8.114088958E0,-4.674030304E0,3.827091522E0,5.486390991E0,8.160494771E0
8.124166958E0,-4.254303131E0,3.930526428E0,5.289250946E0,7.843743284E0
8.134245958E0,-3.820654907E0,3.984264679E0,4.968917084E0,7.427106162E0
8.144323958E0,-3.467389526E0,4.075574799E0,4.520150299E0,7.004631239E0
8.154402958E0,-3.489693146E0,4.472698975E0,4.327201538E0,7.134960933E0
8.164480958E0,-3.859274597E0,4.740791473E0,4.480632477E0,7.579259304E0
8.174559958E0,-3.809128876E0,4.898862762E0,4.790637817E0,7.839549085E0
8.184637958E0,-3.730841675E0,5.033881989E0,5.018314362E0,8.027616490E0
8.194716958E0,-3.924688568E0,5.222789154E0,5.163662109E0,8.327311288E0
8.204795958E0,-4.137246552E0,5.132526855E0,5.244943085E0,8.424314151E0
8.214873958E0,-4.466262360E0,4.881498871E0,5.666316833E0,8.711123759E0
8.224952958E0,-6.721772003E0,4.237238617E0,8.431366882E0,1.158552362E1
8.235030958E0,-4.630770264E0,4.084107056E0,6.381379852E0,8.879525466E0
8.245109958E0,-4.470753021E0,4.102967834E0,5.476661224E0,8.174092965E0
8.255187958E0,-5.382357330E0,3.682492218E0,4.706063690E0,8.042235686E0
8.265266958E0,-4.455335083E0,4.223317566E0,4.721032562E0,7.744325046E0
8.275344958E0,-3.577560425E0,4.029620361E0,5.459896088E0,7.671195744E0
8.285423958E0,-2.265239410E0,3.849993896E0,6.195466461E0,7.637903329E0
8.295501958E0,-1.639390869E0,3.287463684E0,6.718029785E0,7.656823368E0
8.305580958E0,-1.876348114E0,3.114423523E0,7.219187622E0,8.083129719E0
8.315658958E0,-2.284399567E0,3.966451721E0,7.425159302E0,8.722626399E0
8.325737958E0,-2.163600769E0,5.245841217E0,7.367379456E0,9.299370861E0
8.335816958E0,-2.080673218E0,6.187233582E0,6.965016174E0,9.545811162E0
8.345894958E0,-2.161804504E0,6.462660828E0,6.614594879E0,9.496959993E0
8.355973958E0,-1.817819824E0,6.304290161E0,5.596711578E0,8.623904211E0
8.366051958E0,-9.961784363E-1,5.509592743E0,5.417983246E0,7.791182588E0
8.376130958E0,-1.075214081E0,4.473148041E0,5.503305817E0,7.172971046E0
8.386208958E0,-9.160949707E-1,3.521277466E0,5.831423492E0,6.873436181E0
8.396287958E0,-9.050180054E-1,4.727469177E0,6.208938446E0,7.856140213E0
8.406365958E0,-7.234455872E-1,6.484216003E0,6.333329773E0,9.092826662E0
8.416444958E0,-1.324296112E0,7.000043335E0,6.119574280E0,9.391674837E0
8.426522958E0,-1.603016510E0,7.117998047E0,5.806425476E0,9.324705622E0
8.436601958E0,-1.049317932E0,7.567064209E0,5.895340576E0,9.649692709E0
8.446679958E0,-8.349636841E-1,7.798333282E0,6.027066650E0,9.891243539E0
8.456758958E0,-9.225315857E-1,7.112908630E0,5.990243225E0,9.344920952E0
8.466836958E0,-9.391470337E-1,6.400090942E0,6.115682373E0,8.901951028E0
8.476915958E0,-6.953041077E-1,6.130800934E0,6.576124878E0,9.017515528E0
8.486993958E0,-6.405180359E-1,6.351292419E0,7.273524628E0,9.677465539E0
8.497072958E0,-4.448748779E-1,6.871909790E0,7.238647156E0,9.990949428E0
8.507150958E0,-1.788780212E-1,7.009623413E0,7.106771393E0,9.983637482E0
8.517229958E0,-2.580633545E-1,6.700665894E0,6.926695862E0,9.640779827E0
8.527308958E0,-7.200027466E-1,6.833140411E0,6.942113800E0,9.767453908E0
8.537386958E0,-9.419911194E-1,7.696395264E0,7.118147736E0,1.052567691E1
8.547465958E0,-1.646575928E0,7.633076935E0,7.152426453E0,1.058925304E1
8.557543958E0,-2.411335602E0,7.079078979E0,6.880741425E0,1.016230786E1
8.567622958E0,-2.670297089E0,6.752757568E0,6.453230438E0,9.714648960E0
8.577700958E0,-2.766996002E0,6.490353241E0,5.981860657E0,9.250059945E0
8.587779958E0,-2.254012756E0,6.177354126E0,5.688770142E0,8.694963095E0
8.597857958E0,-1.026415558E0,5.950276337E0,5.419031067E0,8.113274005E0
8.607936958E0,-7.164102173E-1,5.351970520E0,5.137915649E0,7.453523279E0
8.618014958E0,-7.828720093E-1,4.923262024E0,5.539979553E0,7.452702261E0
8.628093958E0,-7.114704895E-1,5.411846008E0,6.726262665E0,8.662382866E0
8.638171958E0,-7.743397522E-1,6.154751129E0,7.826624451E0,9.986822007E0
8.648250958E0,-1.106948090E0,6.313720551E0,8.127798157E0,1.035130447E1
8.658328958E0,-1.382225647E0,6.408623199E0,7.866142273E0,1.023998014E1
8.668407958E0,-1.215921478E0,6.536457367E0,7.436535645E0,9.975259513E0
8.678486958E0,-1.050365753E0,6.544390869E0,7.102879486E0,9.715102524E0
8.688564958E0,-9.822573853E-1,6.487060089E0,6.738387451E0,9.404926561E0
8.698643958E0,-9.696835327E-1,6.446195068E0,6.405928802E0,9.139455172E0
8.708721958E0,-9.877958679E-1,6.453380127E0,6.215375061E0,9.014030335E0
8.718800958E0,-8.081694031E-1,6.698869629E0,6.203250275E0,9.165604511E0
8.728878958E0,-4.670288086E-1,6.717431030E0,6.408174133E0,9.295519957E0
8.738957958E0,-2.441423035E-1,6.312073975E0,6.996001740E0,9.425811565E0
8.749035958E0,-1.591191101E-1,5.870641937E0,7.679630127E0,9.667806087E0
8.759114958E0,-3.109034729E-1,5.693260803E0,8.385711823E0,1.014051489E1
8.769192958E0,-7.264393616E-1,5.579796753E0,8.853489075E0,1.049028669E1
8.779271958E0,-1.058748322E0,5.507497101E0,8.752299500E0,1.039500932E1
8.789349958E0,-1.082848206E0,5.654491425E0,8.261320496E0,1.006952083E1
8.799428958E0,-1.019978943E0,5.976621552E0,7.702382813E0,9.802400890E0
8.809506958E0,-8.991801453E-1,6.257886658E0,7.459587708E0,9.778298376E0
8.819585958E0,-7.634124756E-1,6.369853821E0,7.900720367E0,1.017738761E1
8.829663958E0,-7.643106079E-1,6.156248016E0,8.602461090E0,1.060593688E1
8.839742958E0,-7.529342651E-1,5.600753174E0,8.950187988E0,1.058495211E1
8.849821958E0,-5.751040649E-1,5.036726074E0,8.800050201E0,1.015579823E1
8.859899958E0,-3.614982605E-1,4.753215637E0,8.548273773E0,9.787580109E0
8.869978958E0,-1.170565796E-1,4.657564545E0,8.177494812E0,9.411590255E0
8.880056417E0,-7.379653931E-2,4.809947662E0,8.068222046E0,9.393468445E0
8.890135417E0,-2.023791504E-1,5.014422455E0,8.093369751E0,9.523025979E0
8.900213417E0,-1.335223389E-1,4.970114594E0,8.030650177E0,9.445168583E0
8.910292417E0,-1.173559570E-1,4.948409729E0,7.963290253E0,9.376274469E0
8.920370417E0,-1.544787598E-1,4.838238831E0,8.114026794E0,9.448272302E0
8.930449417E0,-2.484832764E-1,4.641697540E0,8.710686035E0,9.873355620E0
8.940527417E0,-2.859054565E-1,4.355792084E0,9.288334808E0,1.026293477E1
8.950606417E0,-3.370989990E-1,4.093537445E0,9.467063141E0,1.031968842E1
8.960684417E0,-3.718267822E-1,3.959416351E0,9.096882935E0,9.928167612E0
8.970763417E0,-3.709286499E-1,4.026027832E0,8.653504944E0,9.551420626E0
8.980841417E0,-3.186872864E-1,4.170477448E0,8.479716339E0,9.455159064E0
8.990920417E0,-5.272036743E-1,4.376748505E0,8.268804932E0,9.370539269E0
9.000999417E0,-6.987469482E-1,4.708009644E0,8.137527924E0,9.427245770E0
9.011077417E0,-7.126679993E-1,4.951104126E0,8.258775787E0,9.655501295E0
9.021156417E0,-8.167016602E-1,4.928950195E0,8.676706696E0,1.001233193E1
9.031234417E0,-8.322692871E-1,4.523443451E0,9.203610992E0,1.028886136E1
9.041313417E0,-9.204359436E-1,3.913761292E0,9.563013611E0,1.037381121E1
9.051391417E0,-1.091530151E0,3.542832642E0,9.554032288E0,1.024805514E1
9.061470417E0,-1.196162567E0,3.375031586E0,9.196725311E0,9.869214738E0
9.071548417E0,-1.283580780E0,3.438200226E0,8.825646973E0,9.558286714E0
9.081627417E0,-1.404080200E0,3.902235260E0,8.485703888E0,9.444895537E0
9.091705417E0,-1.533710632E0,4.521347809E0,8.013136597E0,9.327658464E0
9.101784417E0,-1.960473175E0,4.661306763E0,7.688461761E0,9.202373610E0
9.111862417E0,-2.395318909E0,4.622836761E0,7.722890167E0,9.314032689E0
9.121941417E0,-2.469414825E0,4.661007385E0,8.126450958E0,9.688250854E0
9.132019417E0,-2.360890503E0,4.501888275E0,8.481512604E0,9.888218144E0
9.142098417E0,-1.920955353E0,4.210294647E0,8.582552490E0,9.750736266E0
9.152177417E0,-1.673220520E0,3.952979736E0,8.660390625E0,9.665820269E0
9.162255417E0,-1.676663361E0,3.792363739E0,8.540489960E0,9.493850194E0
9.172334417E0,-1.855242004E0,3.844156036E0,8.454119568E0,9.470564724E0
9.182412417E0,-2.178869019E0,4.138144684E0,8.503217468E0,9.704453562E0
9.192491417E0,-2.408042450E0,4.383035431E0,8.439599762E0,9.810021008E0
9.202569417E0,-2.622247009E0,4.490062866E0,8.132737885E0,9.652889175E0
9.212648417E0,-2.765648804E0,4.519850922E0,7.863747253E0,9.482425139E0
9.222726417E0,-2.863395538E0,4.515360260E0,7.803572388E0,9.459558885E0
9.232805417E0,-2.775079193E0,4.729265442E0,7.801027679E0,9.535357833E0
9.242883417E0,-2.883902893E0,4.829556885E0,7.990982666E0,9.772272999E0
9.252962417E0,-3.154689789E0,4.468956757E0,8.444838867E0,1.006175659E1
9.263040417E0,-3.362158356E0,4.145030365E0,8.826245728E0,1.031445584E1
9.273119417E0,-3.357667694E0,3.932622070E0,9.025481415E0,1.040186346E1
9.283197417E0,-3.224744110E0,3.936663666E0,9.289083252E0,1.059166479E1
9.293276417E0,-2.932252350E0,4.218976593E0,9.613608398E0,1.090042815E1
9.303354417E0,-2.710413666E0,4.577780457E0,9.866432648E0,1.120932243E1
9.313433417E0,-2.756517792E0,4.616998901E0,9.835896149E0,1.120981366E1
9.323512417E0,-2.821482697E0,4.515509949E0,9.737550659E0,1.109822002E1
9.333590417E0,-2.991529083E0,4.491709442E0,9.827513580E0,1.121181177E1
9.343669417E0,-3.006647644E0,4.615951080E0,9.860744476E0,1.129518553E1
9.353747417E0,-2.932102661E0,4.639452209E0,9.860894165E0,1.128534344E1
9.363826417E0,-2.690355377E0,4.634512482E0,9.671388245E0,1.105678383E1
9.373904417E0,-2.634671173E0,4.549040222E0,9.461225281E0,1.082358734E1
9.383983417E0,-2.547402649E0,4.495451660E0,9.144334259E0,1.050319927E1
9.394061417E0,-2.445464630E0,4.462220764E0,8.855584717E0,1.021337809E1
9.404140417E0,-2.364782410E0,4.509821777E0,8.676706696E0,1.006061267E1
9.414218417E0,-2.399210815E0,4.558171234E0,8.501720581E0,9.940442162E0
9.424297417E0,-2.428998871E0,4.643942871E0,8.399632874E0,9.900508740E0
9.434375417E0,-2.508483582E0,4.768783264E0,8.365354156E0,9.950524301E0
9.444454417E0,-2.461481323E0,4.866829376E0,8.394992523E0,1.001103481E1
9.454532417E0,-2.640059967E0,5.061574402E0,8.403524780E0,1.015916733E1
9.464611417E0,-2.434387665E0,5.123994598E0,8.475674744E0,1.019895222E1
9.474690417E0,-2.219734039E0,5.033732300E0,8.472830658E0,1.010220468E1
9.484768417E0,-2.076631622E0,5.044809265E0,8.421637115E0,1.003426485E1
9.494847417E0,-1.948498077E0,5.141358490E0,8.356372833E0,1.000295850E1
9.504925417E0,-1.729503479E0,5.184319153E0,8.199349365E0,9.853815371E0
9.515004417E0,-1.525178375E0,5.120102692E0,8.082143097E0,9.688274237E0
9.525082417E0,-1.506766663E0,5.166805573E0,8.238268433E0,9.840492486E0
9.535161417E0,-1.516496429E0,5.241200867E0,8.553363190E0,1.014544084E1
9.545239417E0,-1.351389771E0,5.167104950E0,8.664282532E0,1.017816387E1
9.555318417E0,-1.084345093E0,5.029990082E0,8.509803772E0,9.944514304E0
9.565396417E0,-9.975256348E-1,5.021607513E0,8.386609955E0,9.825824441E0
9.575475417E0,-9.324110413E-1,5.108876038E0,8.271050262E0,9.766282669E0
9.585553417E0,-8.653504944E-1,5.233716431E0,8.024063873E0,9.619055057E0
9.595632417E0,-8.252339172E-1,5.436544647E0,7.687863007E0,9.451998007E0
9.605710417E0,-8.190966797E-1,5.665867767E0,7.316784668E0,9.290226844E0
9.615789417E0,-7.937992859E-1,5.895939331E0,6.958579559E0,9.155001223E0
9.625867417E0,-9.107061768E-1,6.078559570E0,6.895560608E0,9.237263030E0
9.635946417E0,-8.879534912E-1,6.056854706E0,7.237599335E0,9.479282381E0
9.646024417E0,-8.186476135E-1,5.771548004E0,8.027806091E0,9.921019147E0
9.656103417E0,-8.080197144E-1,5.509143677E0,8.942254486E0,1.053411008E1
9.666182417E0,-6.827302551E-1,5.378166046E0,9.620045013E0,1.104246606E1
9.676260417E0,-5.318440247E-1,5.251679077E0,9.915979614E0,1.123341635E1
9.686339417E0,-3.926335144E-1,5.182672577E0,9.981094208E0,1.125328831E1
9.696417417E0,-3.556604004E-1,5.096900940E0,9.531429291E0,1.081448278E1
9.706496417E0,-4.400848389E-1,5.101840668E0,8.722062378E0,1.011418929E1
9.716574417E0,-6.610253906E-1,5.197042694E0,8.011639709E0,9.572490698E0
9.726653417E0,-8.250842285E-1,5.260061646E0,7.542365570E0,9.232350237E0
9.736731417E0,-8.583151245E-1,5.257666626E0,7.299869843E0,9.037027328E0
9.746810417E0,-8.402027893E-1,5.193899231E0,7.140601044E0,8.869651245E0
9.756888417E0,-8.249345398E-1,5.169649658E0,7.083569641E0,8.808107257E0
9.766967417E0,-6.598278809E-1,5.119503937E0,7.189698944E0,8.850788908E0
9.777045417E0,-6.277944946E-1,5.029990082E0,7.346722412E0,8.925763628E0
9.787124417E0,-5.536985779E-1,5.004093933E0,7.435338135E0,8.979520666E0
9.797202417E0,-5.462141418E-1,4.991669769E0,7.434140625E0,8.971151755E0
9.807281417E0,-6.188131714E-1,5.028493195E0,7.469916229E0,9.025980391E0
9.817359417E0,-6.565347290E-1,5.009333038E0,7.502398682E0,9.044912455E0
9.827438417E0,-7.858657837E-1,4.959187317E0,7.604486389E0,9.112592228E0
9.837516417E0,-8.574169922E-1,4.963378601E0,7.804769897E0,9.288957110E0
9.847595417E0,-9.177415466E-1,4.932542725E0,8.018375702E0,9.458677295E0
9.857674417E0,-9.243278503E-1,4.808750153E0,8.252339172E0,9.595809597E0
9.867752417E0,-9.228309631E-1,4.780458984E0,8.508905640E0,9.803360662E0
9.877831667E0,-8.809181213E-1,4.822072449E0,8.687933350E0,9.975399006E0
9.887909667E0,-8.222401428E-1,4.816384277E0,8.651109924E0,9.935559334E0
9.897988667E0,-7.972421265E-1,4.823719025E0,8.503367157E0,9.808726382E0
9.908066667E0,-7.896080017E-1,4.850962372E0,8.416248322E0,9.746207085E0
9.918145667E0,-8.402027893E-1,4.908442841E0,8.329279175E0,9.704413605E0
9.928223667E0,-8.822653198E-1,4.972359924E0,8.200546875E0,9.630769666E0
9.938302667E0,-9.232800293E-1,4.982688446E0,8.118218079E0,9.570010185E0
9.948380667E0,-9.369017029E-1,4.990322571E0,8.245603180E0,9.683546662E0
9.958459667E0,-8.303233337E-1,4.980892181E0,8.401279449E0,9.802051834E0
9.968537667E0,-7.890092468E-1,4.934488678E0,8.511150970E0,9.869721625E0
9.978616667E0,-7.209008789E-1,4.957391052E0,8.607251129E0,9.958925450E0
9.988694667E0,-6.800358582E-1,4.957690430E0,8.484805756E0,9.850536629E0
9.998773667E0,-6.565347290E-1,4.991370392E0,8.281977539E0,9.692056964E0