"Time (s)","Acceleration x (m/s^2)","Acceleration y (m/s^2)","Acceleration z (m/s^2)","Absolute acceleration (m/s^2)"
2.449166641E-4,1.049198181E1,3.099005585E0,-2.500101013E0,1.122212204E1
1.025391666E-2,7.690707092E0,2.733316040E-1,-8.746461639E0,1.164999043E1
2.026191667E-2,4.922363892E0,4.423301697E-1,-9.208251343E0,1.045070405E1
3.027091666E-2,3.215014343E0,1.438059540E0,-6.364465027E0,7.273977423E0
4.027991666E-2,2.311193848E0,2.614463196E0,-2.681224365E0,4.400681640E0
5.028891666E-2,1.435814209E0,2.808759155E0,4.903802490E-1,3.192360134E0
6.029791667E-2,6.173162842E-1,2.265538788E0,2.591111755E0,3.496799325E0
7.030691666E-2,-7.484436035E-2,1.430425415E0,2.170785828E0,2.600774818E0
8.031591666E-2,-3.802093506E-1,4.781057739E-1,1.533411255E0,1.650604240E0
9.032491667E-2,-1.010698242E0,-5.710624695E-1,8.801696777E-1,1.456819118E0
1.003339167E-1,-1.707050171E0,-1.444645844E0,6.611750793E-1,2.331989362E0
1.103429167E-1,-2.149679718E0,-1.493893433E0,3.451821899E-1,2.640452844E0
1.203519167E-1,-2.778222656E0,-1.711091766E0,2.098635864E-1,3.269617544E0
1.303599167E-1,-3.523822174E0,-2.094893646E0,4.119433594E-1,4.120145560E0
1.403689167E-1,-4.055815887E0,-2.324965210E0,4.574487305E-1,4.697272089E0
1.503779167E-1,-4.153862000E0,-2.453098755E0,6.487509155E-1,4.867560042E0
1.603869167E-1,-4.259242859E0,-2.574945374E0,6.797364807E-1,5.023299224E0
1.703959167E-1,-4.355343018E0,-2.750230865E0,4.114942932E-1,5.167408458E0
1.804049167E-1,-4.292174377E0,-2.792892151E0,-8.831634521E-3,5.120848118E0
1.904139167E-1,-4.132456512E0,-2.476001129E0,-5.595364380E-1,4.849830868E0
2.004229167E-1,-3.624562683E0,-1.894011383E0,-8.077203369E-1,4.168590398E0
2.104319167E-1,-2.610870667E0,-1.417103119E0,-5.101391602E-1,3.014144796E0
2.204409167E-1,-1.655108185E0,-9.283694458E-1,-6.780899048E-2,1.898907842E0
2.304499167E-1,-6.715036011E-1,-5.063969421E-1,2.567161560E-1,8.793509732E-1
2.404579167E-1,3.367996216E-2,-2.155517578E-1,4.685256958E-1,5.168299796E-1
2.504669167E-1,5.303471375E-1,1.225950623E-1,1.733545074E0,1.816996467E0
2.604759167E-1,1.164578247E0,1.108444977E0,6.320007477E0,6.521302574E0
2.704849167E-1,2.590513000E0,3.240461426E0,1.277129196E1,1.342822573E1
2.804939167E-1,4.724026337E0,1.364607285E1,1.712109650E1,2.239784977E1
2.905029167E-1,8.489895172E0,3.083228394E1,2.056558365E1,3.802172121E1
3.005119167E-1,1.571761505E1,4.989289719E1,2.411739761E1,5.760202670E1
3.105209167E-1,2.414299438E1,6.234804657E1,4.709207153E0,6.702491866E1
3.205299167E-1,3.688090576E1,5.435062729E1,-4.077685410E1,7.731069607E1
3.305389167E-1,3.282733521E1,3.931334747E1,-1.361718292E1,5.299623474E1
3.405479167E-1,2.539005112E1,2.469998611E1,3.930526428E0,3.563976779E1
3.505569167E-1,1.865630402E1,1.549532730E1,6.634653168E0,2.514321917E1
3.605649167E-1,1.376268036E1,1.014500336E1,4.453987885E0,1.766834661E1
3.705739167E-1,1.089808731E1,6.123166809E0,2.499801636E-2,1.250048414E1
3.805829167E-1,8.551566925E0,3.869752808E0,-1.857637024E0,9.568442871E0
3.905919167E-1,6.552174683E0,2.919528809E0,-1.993704071E0,7.445098888E0
4.006009167E-1,4.932842102E0,2.452799377E0,-1.103804626E0,5.618499857E0
4.106099167E-1,3.523373108E0,2.139201508E0,-3.167413330E-1,4.134085899E0
4.206189167E-1,2.046394501E0,1.859732666E0,2.029779053E-1,2.772640632E0
4.306279167E-1,8.524772644E-1,1.262474670E0,7.036866760E-1,1.678015112E0
4.406369167E-1,-7.379653931E-2,4.610412598E-1,9.505233765E-1,1.059008811E0
4.506459167E-1,-7.961943054E-1,-3.920347595E-1,8.765771484E-1,1.247398943E0
4.606549167E-1,-1.319206696E0,-1.259630585E0,1.203497314E-1,1.827965966E0
4.706629167E-1,-1.419498138E0,-1.497485962E0,6.526428223E-2,2.064388190E0
4.806719167E-1,-1.569186859E0,-1.362766113E0,3.198847961E-1,2.102808874E0
4.906809167E-1,-1.942660217E0,-1.404828644E0,2.311193848E-1,2.408503354E0
5.006899167E-1,-2.322270813E0,-1.588646393E0,3.905378723E-1,2.840644103E0
5.106989167E-1,-2.634222107E0,-1.737886047E0,6.042933655E-1,3.213182923E0
5.207079167E-1,-2.890938263E0,-1.915716248E0,5.754034424E-1,3.515477479E0
5.307169167E-1,-3.300336914E0,-2.071093140E0,4.058061218E-1,3.917439106E0
5.407259167E-1,-3.739673309E0,-1.945504303E0,3.712280273E-2,4.215628252E0
5.507349167E-1,-4.022584991E0,-1.874701538E0,-1.651066589E-1,4.441053488E0
5.607439167E-1,-4.192631378E0,-1.567689972E0,-2.091151428E-1,4.481019846E0
5.707529167E-1,-3.597169647E0,-5.364843750E-1,-2.460882568E-1,3.645271511E0
5.807619167E-1,-2.317181396E0,7.424560547E-2,-4.448748779E-1,2.360668484E0
5.907699167E-1,-1.241368561E0,2.326162720E-1,-4.592449951E-1,1.343879533E0
6.007789167E-1,-5.875282288E-1,3.712280273E-1,-3.564088440E-1,7.810422088E-1
6.107879167E-1,-1.065783691E-1,4.158352661E-1,1.112187195E-1,4.434495697E-1
6.207969167E-1,2.650987244E-1,6.237528992E-1,8.738827515E-1,1.105900572E0
6.308059167E-1,4.668791199E-1,1.340163116E0,2.984793091E0,3.304996685E0
6.408149167E-1,3.438349915E-1,2.583178253E0,6.278094635E0,6.797463103E0
6.508239167E-1,1.314716034E0,6.801556091E0,9.013057251E0,1.136771061E1
6.608329167E-1,6.833439789E0,1.949785400E1,1.431817520E1,2.513707125E1
6.708419167E-1,1.712094681E1,3.904061462E1,2.148616928E1,4.773836906E1
6.808509167E-1,2.887944489E1,5.691958511E1,1.971026230E1,6.680086786E1
6.908599167E-1,3.845697830E1,5.130491089E1,-8.668623505E0,6.470145358E1
7.008689167E-1,4.453179565E1,3.244443146E1,-3.289933548E1,6.417233229E1
7.108769167E-1,4.593153488E1,6.257736969E0,-1.369816452E1,4.833740663E1
7.208859167E-1,4.366015823E1,-9.300908661E0,-1.104702759E-1,4.463998793E1
7.308949167E-1,2.682421875E1,-1.044752426E1,5.978118439E0,2.940114581E1
7.409039167E-1,1.434751419E1,-5.958209839E0,4.481829987E0,1.616905155E1
7.509129167E-1,1.026939468E1,-9.753717041E-1,-5.046006775E-1,1.032794457E1
7.609219167E-1,7.756420441E0,9.683363342E-1,-3.399730225E0,8.523960283E0
7.709309167E-1,5.734874268E0,1.446142731E0,-4.219126282E0,7.265062852E0
7.809399167E-1,4.022584991E0,1.553170166E0,-2.130519562E0,4.809640442E0
7.909489167E-1,2.307301941E0,1.374142456E0,2.079176331E-1,2.693536612E0
8.009579167E-1,7.702981567E-1,1.101110229E0,1.654958496E0,2.131827998E0
8.109669167E-1,-4.348457336E-1,9.298663330E-1,2.349813538E0,2.564247623E0
8.209749167E-1,-1.489253082E0,7.246430969E-1,2.500999146E0,2.999663162E0
8.309839167E-1,-2.121987305E0,5.203179932E-1,2.213447113E0,3.110130071E0
8.409929167E-1,-2.499352570E0,2.918930054E-1,1.820065155E0,3.105575947E0
8.510010417E-1,-2.492317200E0,5.987548828E-4,1.629661102E0,2.977824825E0
8.610100417E-1,-2.596949615E0,-2.619552612E-2,1.452729034E0,2.975778076E0
8.710190417E-1,-2.676434326E0,-5.089416504E-3,1.418899384E0,3.029290687E0
8.810280417E-1,-2.820734253E0,-1.630110168E-1,1.698817291E0,3.296830979E0
8.910370417E-1,-3.281775513E0,-1.848655701E-1,1.794318695E0,3.744837163E0
9.010460417E-1,-3.594475250E0,-4.282594299E-1,1.935175781E0,4.104700204E0
9.110550417E-1,-3.646566925E0,-5.071453857E-1,2.096839600E0,4.236907255E0
9.210640417E-1,-3.805536346E0,-3.577560425E-1,2.078278198E0,4.350785738E0
9.310730417E-1,-3.888014832E0,-2.294728088E-1,1.845362549E0,4.309835268E0
9.410810417E-1,-3.899690552E0,-1.091230774E-1,1.551224213E0,4.198308088E0
9.510900417E-1,-3.613485718E0,2.104623413E-1,8.979826355E-1,3.729335898E0
9.610990417E-1,-3.066373444E0,9.425898743E-1,1.460961914E-1,3.211302830E0
9.711080417E-1,-2.386487274E0,1.585652618E0,-3.546125793E-1,2.887103361E0
9.811170417E-1,-1.626817017E0,1.858834534E0,-5.956114197E-1,2.540974693E0
9.911260417E-1,-7.039860535E-1,1.677112427E0,-3.523672485E-1,1.852691322E0
1.001135042E0,9.580078125E-2,1.490899658E0,1.960922241E-1,1.506788552E0
1.011144042E0,5.174739075E-1,1.694925385E0,5.887257385E-1,1.867391041E0
1.021153042E0,1.150956573E0,2.194436646E0,1.644480286E0,2.973981949E0
1.031162042E0,2.904859314E0,3.686683502E0,4.481081543E0,6.489216800E0
1.041171042E0,7.305258636E0,9.560768280E0,6.874155121E0,1.385745657E1
1.051180042E0,2.324830490E1,2.578058899E1,9.955347748E0,3.611414402E1
1.061188042E0,5.001893509E1,3.329137024E1,6.200705566E0,6.040412196E1
1.071197042E0,7.499853973E1,8.413703613E0,-4.783452759E0,7.562045220E1
1.081206042E0,7.844257782E1,-1.892813873E1,-1.144534927E1,8.150158570E1
1.091215042E0,6.540049896E1,-1.585981934E1,-1.276096344E1,6.849526496E1
1.101224042E0,4.107518372E1,1.536405029E0,-8.888216858E0,4.205391369E1
1.111233042E0,2.070195007E1,1.956730957E0,-4.417314148E-1,2.079891006E1
1.121242042E0,1.461306198E1,-1.723515930E0,8.980125732E0,1.723817699E1
1.131251042E0,1.262579453E1,-2.451751556E0,5.756429443E0,1.409106997E1
1.141260042E0,8.635691986E0,-3.671564941E0,-3.929628296E0,1.017337426E1
1.151269042E0,3.503464508E0,-4.341122589E0,-1.044557831E1,1.184186282E1
1.161278042E0,8.355624390E-1,-2.426603851E0,-7.726632385E0,8.141708596E0
1.171287042E0,-1.924996948E-1,-4.372407532E-1,-4.259691925E0,4.286398361E0
1.181295042E0,-9.361532593E-1,8.849597168E-1,-6.363267517E-1,1.436818833E0
1.191304042E0,-1.573078766E0,1.396296387E0,1.737137604E0,2.727978640E0
1.201313042E0,-2.041454773E0,1.489253082E0,2.665357361E0,3.672811211E0
1.211322042E0,-2.142195282E0,1.280886383E0,2.368374939E0,3.440765962E0
1.221331042E0,-2.236798553E0,9.806108093E-1,1.256187744E0,2.746429132E0
1.231340042E0,-2.428998871E0,7.357200623E-1,1.695973206E-1,2.543635740E0
1.241349042E0,-2.574645996E0,6.039939880E-1,-3.906875610E-1,2.673246624E0
1.251358042E0,-2.764451294E0,4.610412598E-1,-5.584886169E-1,2.857736785E0
1.261367042E0,-2.887944489E0,1.960922241E-1,-5.089416504E-1,2.938995940E0
1.271376042E0,-3.121758270E0,-3.038681030E-2,-2.101629639E-1,3.128972120E0
1.281385042E0,-3.418291626E0,-2.460882568E-1,1.438508606E-1,3.430155994E0
1.291393042E0,-3.510649567E0,-5.176235962E-1,5.652246094E-1,3.593337366E0
1.301402042E0,-3.509302368E0,-6.668632507E-1,9.192384338E-1,3.688483293E0
1.311411042E0,-3.429368591E0,-7.207511902E-1,1.311422882E0,3.741641510E0
1.321420042E0,-3.287763062E0,-7.497908020E-1,1.508113861E0,3.694046509E0
1.331429042E0,-3.003653870E0,-7.086264038E-1,1.491947479E0,3.427826604E0
1.341438042E0,-2.519261169E0,-5.604345703E-1,1.204096069E0,2.847913463E0
1.351447042E0,-1.918560333E0,-4.013154602E-1,8.634045410E-1,2.141820546E0
1.361456042E0,-1.150806885E0,-3.094065857E-1,9.026229858E-1,1.494930492E0
1.371465042E0,-3.683839417E-1,-2.004331970E-1,1.473386078E0,1.531909504E0
1.381474042E0,1.219963074E-1,-5.403762817E-2,1.991159363E0,1.995624908E0
1.391483042E0,4.987628174E-1,1.213975525E-1,2.379152527E0,2.433899846E0
1.401491042E0,1.119521942E0,3.293151855E-2,3.360811157E0,3.542522477E0
1.411500042E0,2.906206512E0,-1.404080200E-1,4.587061157E0,5.432023634E0
1.421509042E0,1.028062134E1,4.253404999E0,5.972579956E0,1.262752313E1
1.431518042E0,3.103705811E1,1.386446869E1,8.627459106E0,3.507072167E1
1.441527042E0,6.521638184E1,1.765144363E1,5.943390656E0,6.782384400E1
1.451536042E0,7.909252625E1,1.125359802E0,-5.642067261E0,7.930149472E1
1.461545042E0,6.980583801E1,-9.264833679E0,-8.362659760E0,7.091280732E1
1.471554042E0,5.467365555E1,-9.168434143E-1,-5.262456665E0,5.493398459E1
1.481563042E0,3.669394455E1,4.405638428E0,-1.335073700E0,3.698158512E1
1.491572042E0,2.251438110E1,2.459086304E0,-3.094664612E0,2.285872724E1
1.501581042E0,8.140970764E0,6.451583862E-1,-1.108265350E1,1.376651165E1
1.511590042E0,7.240892487E0,-2.839894409E0,-4.930746460E-1,7.793500296E0
1.521598042E0,7.364235992E0,-5.165009308E0,-5.661377106E0,1.062828696E1
1.531607042E0,3.491938477E0,-5.567222900E0,-1.013257919E1,1.207711746E1
1.541616042E0,1.617386627E0,-3.839815063E0,-6.379284210E0,7.619408524E0
1.551625042E0,2.281256104E-1,-1.667382660E0,-2.548600159E0,3.054106907E0
1.561634042E0,-8.316705322E-1,-1.234931946E-1,5.224136353E-1,9.898699155E-1
1.571643042E0,-1.616937561E0,9.833052063E-1,2.756966858E0,3.343986014E0
1.581652042E0,-2.316133575E0,1.659449158E0,3.579506378E0,4.575053241E0
1.591661042E0,-2.584226074E0,1.859433289E0,3.775149536E0,4.938367198E0
1.601670042E0,-2.581381989E0,1.735191650E0,2.986589355E0,4.312092185E0
1.611679042E0,-2.562521210E0,1.532213745E0,1.774260406E0,3.473066930E0
1.621688042E0,-2.600392456E0,1.477427673E0,8.536747742E-1,3.110240196E0
1.631697042E0,-3.271297302E0,2.102378082E0,-3.308120728E-2,3.888762529E0
1.641705042E0,-4.809498596E0,3.472628632E0,-3.546125793E-1,5.942741492E0
1.651714042E0,-5.485043793E0,3.817661133E0,-6.988966370E-1,6.719278119E0
1.661723042E0,-5.380112000E0,3.591182098E0,-1.344953156E0,6.606897379E0
1.671732042E0,-5.157375183E0,3.165916443E0,-1.205592957E0,6.170494314E0
1.681741042E0,-4.691693573E0,2.026036835E0,-4.065545654E-1,5.126607109E0
1.691750042E0,-4.368066559E0,1.376537476E0,2.206411743E-1,4.585143772E0
1.701759042E0,-3.978726196E0,1.032403107E0,5.239105225E-2,4.110822684E0
1.711768042E0,-2.986739044E0,6.529421997E-1,-2.544708252E-3,3.057278219E0
1.721777042E0,-2.207010498E0,5.129832458E-1,4.095483398E-1,2.302558792E0
1.731786042E0,-1.614542542E0,6.246510315E-1,9.470805359E-1,1.973296245E0
1.741795042E0,-8.894503784E-1,7.185058594E-1,1.699865112E0,2.048637119E0
1.751803042E0,-2.302212524E-1,8.512797546E-1,2.797831879E0,2.933520456E0
1.761812042E0,3.619473267E-1,1.271455994E0,4.477489014E0,4.668566598E0
1.771821042E0,1.436862030E0,2.420765991E0,6.920259247E0,7.470921531E0
1.781830042E0,4.260739746E0,4.558470612E0,9.551038513E0,1.140858861E1
1.791839042E0,1.411789169E1,8.984466705E0,1.288954605E1,2.112287635E1
1.801848042E0,3.708148865E1,8.568781128E0,1.458162735E1,4.075640645E1
1.811857042E0,6.681640457E1,-1.239422607E0,9.355395355E0,6.747956365E1
1.821866042E0,7.717860626E1,-8.922046509E0,-2.437082062E0,7.773081466E1
1.831875042E0,6.200061905E1,-4.131259003E0,-5.287454681E0,6.236265902E1
1.841884042E0,4.792748428E1,2.990032196E0,-6.951544189E-1,4.802569398E1
1.851893042E0,3.466147110E1,1.082698517E0,3.231330414E0,3.482859904E1
1.861901042E0,2.445704132E1,-2.502346344E0,-1.083746338E-1,2.458496192E1
1.871910042E0,1.473520798E1,-9.036109314E0,-1.095212494E1,2.046281179E1
1.881919042E0,1.381177826E1,-8.508157196E0,-2.686164093E0,1.644291443E1
1.891928042E0,1.211775101E1,-6.603517914E0,-1.294058990E0,1.386076935E1
1.901937042E0,9.291777649E0,-5.543721771E0,-2.085912323E0,1.101912034E1
1.911946042E0,5.648054810E0,-6.361321564E0,-8.654552765E0,1.213541177E1
1.921955042E0,1.748963013E0,-6.599626007E0,-1.374801086E1,1.534997517E1
1.931964042E0,3.336561584E-1,-2.582729187E0,-5.987997894E0,6.529772987E0
1.941973042E0,-1.017434235E0,1.776805115E-1,1.146465912E0,1.543090040E0
1.951982042E0,-9.276210022E-1,8.925938416E-1,4.920867004E0,5.086466019E0
1.961991042E0,-1.390308838E0,1.292412415E0,6.695726166E0,6.959600377E0
1.971999042E0,-1.803000641E0,1.342408447E0,5.337750092E0,5.791756883E0
1.982008042E0,-2.111359406E0,9.666897583E-1,3.747906189E0,4.408982698E0
1.992017042E0,-2.208507385E0,7.111711121E-1,2.645299072E0,3.518646956E0
2.002026042E0,-2.309547272E0,6.752458191E-1,1.991608429E0,3.123534801E0
2.012035042E0,-2.312990112E0,5.361849976E-1,1.397643585E0,2.755145223E0
2.022044042E0,-2.417323151E0,2.917433167E-1,9.205856323E-1,2.603083419E0
2.032053042E0,-2.545157318E0,2.026785278E-1,2.366578674E-1,2.564158986E0
2.042062042E0,-2.745291138E0,2.724334717E-1,-6.481521606E-2,2.759536997E0
2.052071042E0,-3.308719482E0,6.108796692E-1,-9.580078125E-3,3.364653082E0
2.062080042E0,-3.922143860E0,8.972341919E-1,-1.914518738E-1,4.028013837E0
2.072089042E0,-4.019291840E0,1.092428284E0,-4.581971741E-1,4.190232821E0
2.082097042E0,-4.049678650E0,1.365011444E0,-4.222718811E-1,4.294352914E0
2.092106042E0,-3.705843658E0,1.180295563E0,-1.483415222E-1,3.892091988E0
2.102115042E0,-2.945724335E0,7.807763672E-1,-4.176315308E-2,3.047728294E0
2.112124042E0,-2.040556641E0,5.342390442E-1,2.354603577E-1,2.122433589E0
2.122133042E0,-1.214274902E0,4.617897034E-1,9.276210022E-1,1.596306359E0
2.132142042E0,-4.382885742E-1,4.611909485E-1,1.739382935E0,1.852092589E0
2.142151042E0,1.781295776E-1,6.331832886E-1,2.560874634E0,2.643998887E0
2.152160042E0,7.216493225E-1,9.011260986E-1,4.312981110E0,4.464819374E0
2.162169042E0,1.822759552E0,1.869612122E0,7.854466553E0,8.277109803E0
2.172178042E0,7.838150482E0,5.998326416E0,1.238943604E1,1.584028560E1
2.182187042E0,2.544708252E1,1.205847427E1,1.703996521E1,3.291384549E1
2.192195042E0,5.200680130E1,1.120884109E1,1.589260117E1,5.552405129E1
2.202204042E0,7.470859268E1,-2.353855133E0,2.959645386E0,7.480423755E1
2.212213042E0,7.244769424E1,-1.378124176E1,-9.577683105E0,7.436614175E1
2.222222042E0,5.364529404E1,-6.213279419E0,-1.425815002E1,5.585442915E1
2.232231042E0,3.469305542E1,6.044430542E-1,-7.960296478E0,3.559971581E1
2.242240042E0,2.032458481E1,9.054670715E-1,-7.286248169E0,2.161013722E1
2.252249042E0,8.220904541E0,-3.567082214E-1,-1.514700165E0,8.366888837E0
2.262258042E0,9.013206940E0,-3.528462524E0,5.952671356E0,1.136319688E1
2.272267042E0,9.234596558E0,-4.352199554E0,2.776875458E0,1.057971889E1
2.282276042E0,6.679709473E0,-3.915407867E0,1.325792999E0,7.855358966E0
2.292285042E0,3.707939301E0,-3.556304626E0,-1.781894531E0,5.437946724E0
2.302293042E0,6.301895142E-1,-2.920726318E0,-5.646707611E0,6.388512182E0
2.312302042E0,-7.470964050E-1,-1.399140472E0,-4.848417664E0,5.101264641E0
2.322311042E0,-1.100810852E0,-1.121168518E-1,-1.922302551E0,2.218017543E0
2.332320042E0,-1.139430542E0,7.484436035E-1,1.031954041E0,1.709794996E0
2.342329042E0,-1.231189728E0,1.223705292E0,2.642155609E0,3.161371388E0
2.352338042E0,-1.526525574E0,1.494043121E0,2.744542694E0,3.477780869E0
2.362347042E0,-1.768871613E0,1.435963898E0,2.392325134E0,3.303652319E0
2.372356042E0,-1.863474884E0,1.372046814E0,1.916165314E0,3.004453463E0
2.382365042E0,-1.798659668E0,1.300495605E0,1.486109619E0,2.671139686E0
2.392374042E0,-1.779499512E0,1.339264984E0,1.199006653E0,2.529400356E0
2.402383042E0,-1.892065430E0,1.384920044E0,9.401948547E-1,2.526238604E0
2.412391042E0,-2.036964111E0,1.359173584E0,8.110134888E-1,2.579596577E0
2.422400042E0,-2.327360229E0,1.140927429E0,7.391629028E-1,2.695307558E0
2.432409042E0,-2.575693817E0,8.529263306E-1,3.122506714E-1,2.731150389E0
2.442418042E0,-2.727777557E0,7.815248108E-1,-3.432362366E-1,2.858209675E0
2.452427042E0,-2.713856506E0,5.927673340E-1,-5.114863586E-1,2.824536873E0
2.462436042E0,-2.663561096E0,2.293231201E-1,-2.665956116E-1,2.686674529E0
2.472445042E0,-2.379152527E0,9.819580078E-2,2.700384521E-1,2.396441096E0
2.482454042E0,-1.838177490E0,1.866618347E-1,1.226250000E0,2.217527494E0
2.492463042E0,-1.239572296E0,3.047662354E-1,1.865271149E0,2.260234146E0
2.502472042E0,-7.005432129E-1,4.186793518E-1,2.373314667E0,2.509716259E0
2.512481042E0,-1.682501221E-1,5.248086548E-1,3.133134613E0,3.181236353E0
2.522489042E0,3.005749512E-1,6.429130554E-1,4.139342194E0,4.199742408E0
2.532498042E0,9.289682007E-1,9.467811584E-1,5.663023682E0,5.816288653E0
2.542507042E0,2.779869232E0,1.977537689E0,8.259224854E0,8.936057489E0
2.552516042E0,1.028047165E1,4.867128754E0,1.049377808E1,1.547567181E1
2.562525042E0,2.992082932E1,8.165519714E0,1.130613876E1,3.301152091E1
2.572534042E0,5.919515305E1,7.336543579E0,6.184988251E0,5.996786719E1
2.582543042E0,7.799126633E1,-3.645968170E0,-6.608457642E0,7.835561511E1
2.592552042E0,6.782725250E1,-1.012314880E1,-1.104223755E1,6.946182645E1
2.602561042E0,4.845229294E1,-2.733166351E0,-6.722370758E0,4.899270515E1
2.612570042E0,3.019401123E1,9.087602234E-1,-1.960922241E-1,3.020832024E1
2.622579042E0,1.965442841E1,1.272354126E-1,2.160457306E0,1.977322231E1
2.632587042E0,8.161029053E0,-1.982327728E0,-2.598296814E0,8.791084390E0
2.642596042E0,7.029082947E0,-5.083878021E0,-1.432970123E0,8.792452797E0
2.652605042E0,8.905431061E0,-5.525459747E0,-1.389710083E0,1.057207179E1
2.662614042E0,7.009623413E0,-4.830455017E0,-1.553020477E0,8.653322406E0
2.672623042E0,4.845723267E0,-4.018543396E0,-2.255509644E0,6.687080735E0
2.682632042E0,1.985171814E0,-4.234993286E0,-5.985752563E0,7.596401057E0
2.692641042E0,-5.415737915E-1,-4.290078735E0,-7.538024597E0,8.690218211E0
2.702650042E0,-1.235680389E0,-2.644400940E0,-4.547992401E0,5.404072283E0
2.712659042E0,-1.218316498E0,-1.083746338E0,-1.850601654E0,2.466480832E0
2.722668042E0,-1.125958557E0,-1.276844788E-1,8.113128662E-1,1.393669461E0
2.732677042E0,-1.188528442E0,3.659889221E-1,2.588417358E0,2.871663659E0
2.742685042E0,-1.469494171E0,5.595364380E-1,3.112926636E0,3.487521525E0
2.752694042E0,-1.847757568E0,5.032534790E-1,3.251239014E0,3.773331051E0
2.762703042E0,-2.046244812E0,3.131488037E-1,3.143014069E0,3.763471461E0
2.772712042E0,-2.142045593E0,5.448669434E-2,2.982248383E0,3.672210988E0
2.782721042E0,-2.182910614E0,-2.252815247E-1,2.835254059E0,3.585319524E0
2.792730042E0,-2.127376099E0,-5.430706787E-1,2.554587708E0,3.368467483E0
2.802739042E0,-2.044598236E0,-8.689430237E-1,2.172731781E0,3.107443856E0
2.812748042E0,-1.930535431E0,-1.064885559E0,1.813628540E0,2.854854950E0
2.822757042E0,-1.858984222E0,-1.047371979E0,1.442849579E0,2.575776642E0
2.832766042E0,-1.741179199E0,-8.734336853E-1,1.055754547E0,2.215673503E0
2.842775042E0,-1.578916626E0,-6.628216553E-1,6.301895142E-1,1.824677802E0
2.852779292E0,-1.293310547E0,-5.679190063E-1,5.186714172E-1,1.504727287E0
2.862788292E0,-6.846762085E-1,-5.448669434E-1,8.851094055E-1,1.244620487E0
2.872797292E0,5.837860107E-2,-5.002597046E-1,1.563947754E0,1.643046077E0
2.882806292E0,9.327104187E-1,-4.897814941E-1,2.261646881E0,2.494971193E0
2.892815292E0,2.173180847E0,-5.093907166E-1,3.044967957E0,3.775450139E0
2.902824292E0,4.536017303E0,-7.714956665E-1,4.643044739E0,6.536705821E0
2.912833292E0,1.036818924E1,-1.385967865E0,7.300318909E0,1.275597551E1
2.922842292E0,2.150547913E1,-1.001118164E0,8.842561798E0,2.327399341E1
2.932851292E0,3.768024353E1,-1.142124939E-1,8.139922943E0,3.854960626E1
2.942860292E0,5.534246475E1,5.457650757E-1,3.186872864E0,5.543683273E1
2.952868292E0,6.388340378E1,1.320254517E-1,-3.459456024E0,6.397714080E1
2.962877292E0,5.369005096E1,-7.914042664E-1,-4.594844971E0,5.389211903E1
2.972886292E0,3.559043930E1,7.039860535E-1,-2.028431854E0,3.565514692E1
2.982895292E0,2.455388992E1,7.720944214E-1,-1.076860657E0,2.458961710E1
2.992904292E0,1.536464905E1,8.966354370E-1,-1.058972855E1,1.868204341E1
3.002913292E0,7.766449585E0,-2.975811768E-1,-6.423891449E0,1.008328692E1
3.012922292E0,9.513167267E0,-3.318449249E0,7.199728088E0,1.238339781E1
3.022931292E0,1.044393173E1,-3.617976379E0,6.333778839E0,1.273900379E1
3.032940292E0,8.484955444E0,-2.275268555E0,3.881578217E0,9.604059836E0
3.042949292E0,6.532715149E0,-9.984237671E-1,1.785187683E0,6.845444639E0
3.052958292E0,4.533622284E0,1.152603149E-1,-6.021977234E-1,4.574894321E0
3.062966292E0,1.806144104E0,5.017565918E-1,-4.636608124E0,5.001204964E0
3.072975292E0,-1.481918335E-2,4.522096252E-1,-5.301375732E0,5.320648251E0
3.082984292E0,-7.698490906E-1,6.342311096E-1,-3.623664551E0,3.758438705E0
3.092993292E0,-1.323098602E0,8.993298340E-1,-8.490344238E-1,1.811144256E0
3.103002292E0,-1.844464417E0,1.047970734E0,1.349443817E0,2.514217623E0
3.113011292E0,-1.938319244E0,9.834548950E-1,2.066153412E0,2.998875613E0
3.123020292E0,-1.778152313E0,8.668473816E-1,1.699116669E0,2.607728415E0
3.133029292E0,-1.169517975E0,5.677693176E-1,7.538323975E-1,1.502796585E0
3.143038292E0,-1.124611359E0,4.698728943E-1,3.755690002E-1,1.275375756E0
3.153047292E0,-1.102906494E0,3.861968994E-1,4.686753845E-1,1.259050196E0
3.163056292E0,-1.045575714E0,2.430944824E-1,6.318360901E-1,1.245608424E0
3.173064292E0,-1.073118439E0,1.327738953E-1,6.572831726E-1,1.265398459E0
3.183073292E0,-1.119671631E0,-1.321751404E-1,4.580474854E-1,1.216939739E0
3.193082292E0,-1.097368011E0,-5.548960876E-1,2.998265076E-1,1.265710139E0
3.203091292E0,-8.990304565E-1,-8.991801453E-1,2.306703186E-1,1.292280732E0
3.213100292E0,-5.941145325E-1,-1.152004395E0,4.107458496E-1,1.359705246E0
3.223109292E0,-2.505789185E-1,-1.425485687E0,7.490423584E-1,1.629682084E0
3.233118292E0,2.192939758E-1,-1.807491302E0,1.287472687E0,2.229955286E0
3.243127292E0,1.007255402E0,-1.911674652E0,2.005230103E0,2.947882491E0
3.253136292E0,2.051034851E0,-1.644031219E0,2.768941956E0,3.817934280E0
3.263145292E0,3.332070923E0,-1.262923737E0,3.620521088E0,5.079945467E0
3.273153292E0,5.866750031E0,-1.023122406E0,5.216202850E0,7.916710652E0
3.283162292E0,1.154369476E1,-8.732839966E-1,7.358996887E0,1.371766558E1
3.293171292E0,2.193852859E1,1.040336609E-1,8.997639313E0,2.371217774E1
3.303180292E0,3.759626816E1,1.833836517E0,8.749605103E0,3.864450705E1
3.313189292E0,5.564678192E1,3.456162872E0,3.985761566E0,5.589629411E1
3.323198292E0,6.480234283E1,2.774330750E0,-4.146527252E0,6.499410924E1
3.333207292E0,5.147840012E1,-2.847079468E-1,-6.108197937E0,5.184030111E1
3.343216292E0,3.193803452E1,-1.350791016E0,-2.585273895E0,3.207095767E1
3.353225292E0,2.207878693E1,-1.153201904E0,-4.421804810E-1,2.211330437E1
3.363234292E0,1.572480011E1,-1.097817078E0,-4.399351501E-1,1.576921316E1
3.373243292E0,8.081694031E0,-2.282752991E-1,-5.976621552E0,1.005414806E1
3.383251292E0,5.126239929E0,-1.231489105E0,-1.480421448E-1,5.274165119E0
3.393260292E0,7.767946472E0,-3.179538116E0,2.586471405E0,8.782954478E0
3.403269292E0,8.202043762E0,-3.316203918E0,1.326541443E0,8.945973536E0
3.413278292E0,6.756948853E0,-2.368973694E0,-3.376977539E-1,7.168154151E0
3.423287292E0,4.224814453E0,-1.815724182E0,-3.323239288E0,5.673608273E0
3.433296292E0,1.861528931E0,-1.347198486E0,-4.492457886E0,5.046029288E0
3.443305292E0,4.555027771E-1,-5.222639465E-1,-3.082988892E0,3.159915017E0
3.453314292E0,-3.936813354E-1,1.901046753E-1,-1.402583313E0,1.469137411E0
3.463323292E0,-9.096583557E-1,6.942562866E-1,5.604345703E-1,1.274188771E0
3.473332292E0,-1.160836029E0,9.150471497E-1,1.731000366E0,2.276227985E0
3.483340292E0,-1.315165100E0,1.006656647E0,2.055375824E0,2.639618651E0
3.493349292E0,-1.683399353E0,1.077160034E0,1.867666168E0,2.735376398E0
3.503358292E0,-1.972148895E0,1.017434235E0,1.559756470E0,2.712449803E0
3.513367292E0,-2.107467499E0,1.104403381E0,9.851014709E-1,2.575179799E0
3.523376292E0,-2.312840424E0,1.206341400E0,5.081932068E-1,2.657583627E0
3.533385292E0,-2.610122223E0,1.544039154E0,5.544470215E-1,3.082889299E0
3.543394292E0,-3.154839478E0,1.567540283E0,2.903961182E-1,3.534759479E0
3.553403292E0,-3.740721130E0,1.779798889E0,-8.918453979E-1,4.237459956E0
3.563412292E0,-3.983216858E0,2.004930725E0,-1.817969513E0,4.815680315E0
3.573421292E0,-3.545676727E0,1.651815033E0,-1.150208130E0,4.077167534E0
3.583430292E0,-2.675236816E0,9.003776550E-1,-1.038839722E-1,2.824599764E0
3.593438292E0,-1.630259857E0,2.860551453E-1,8.872050476E-1,1.877953020E0
3.603447292E0,-8.370593262E-1,-8.831634521E-2,1.779050446E0,1.968118030E0
3.613456292E0,-3.574566650E-1,-6.810836792E-2,2.482886810E0,2.509410475E0
3.623465292E0,3.068618774E-2,2.154020691E-1,3.076103210E0,3.083788361E0
3.633474292E0,4.234693909E-1,6.782395935E-1,3.879332886E0,3.960878553E0
3.643483292E0,1.154998169E0,1.361269226E0,5.445226593E0,5.730407257E0
3.653492292E0,3.908971252E0,2.320324860E0,8.149203644E0,9.331317363E0
3.663501292E0,1.308054886E1,4.997507629E0,1.194620773E1,1.840618701E1
3.673510292E0,3.166395447E1,5.100792847E0,1.531555115E1,3.554138724E1
3.683519292E0,5.637651443E1,-1.441203003E0,1.098954712E1,5.745570983E1
3.693527292E0,7.287939651E1,-8.610993347E0,1.107546844E0,7.339470214E1
3.703536292E0,6.539376297E1,-3.869603119E0,-6.300997009E0,6.581049025E1
3.713545292E0,4.846681274E1,3.242706757E0,-3.951931915E0,4.873566303E1
3.723554292E0,3.498345154E1,1.700613556E0,6.357279968E-1,3.503053123E1
3.733563292E0,2.570828934E1,-1.529519348E0,2.751877441E0,2.590035520E1
3.743572292E0,1.867486542E1,-2.549947357E0,2.663710785E0,1.903544549E1
3.753581292E0,9.728269958E0,-3.249592438E0,-1.210382996E0,1.032783203E1
3.763590292E0,7.333849182E0,-4.725822601E0,-8.846603394E-1,8.769342450E0
3.773599292E0,8.724457397E0,-4.124672699E0,-6.827302551E-1,9.674461347E0
3.783608292E0,7.518265686E0,-2.803370361E0,-3.811972961E0,8.883374481E0
3.793616292E0,5.267995148E0,-6.126759338E-1,-1.222732315E1,1.332796219E1
3.803625292E0,2.728076935E0,1.024918671E0,-9.035660248E0,9.493999060E0
3.813634292E0,1.531165924E0,1.023122406E0,-1.382075958E0,2.302473127E0
3.823643292E0,1.307231598E0,1.215472412E0,2.304757233E0,2.915155834E0
3.833652292E0,8.626560974E-1,1.411564636E0,4.168232117E0,4.484512152E0
3.843661292E0,4.294569397E-1,1.268013153E0,4.867128754E0,5.047893910E0
3.853674167E0,-1.128652954E-1,9.984237671E-1,4.269272003E0,4.385917467E0
3.863683167E0,-8.734336853E-1,8.155041504E-1,3.085832977E0,3.309123537E0
3.873692167E0,-1.280587006E0,5.533992004E-1,1.997446289E0,2.436379575E0
3.883701167E0,-1.370250549E0,3.468287659E-1,1.282832336E0,1.908804748E0
3.893709167E0,-1.397793274E0,2.929408264E-1,8.391549683E-1,1.656448437E0
3.903718167E0,-1.486858063E0,4.571493530E-1,5.806425476E-1,1.660384955E0
3.913727167E0,-1.816921692E0,4.209246826E-1,7.520361328E-1,2.010955089E0
3.923736167E0,-2.184856567E0,4.414320374E-1,9.843530273E-1,2.436680395E0
3.933745167E0,-2.653382263E0,7.445516968E-1,1.032403107E0,2.942898374E0
3.943754167E0,-3.180885315E0,1.239123230E0,1.035845947E0,3.567412871E0
3.953763167E0,-3.561394043E0,1.483415222E0,9.912387085E-1,3.983290402E0
3.963772167E0,-3.516188049E0,1.713187408E0,9.913883972E-1,4.035026697E0
3.973781167E0,-3.110980682E0,1.893412628E0,1.191073151E0,3.831692503E0
3.983790167E0,-2.526895294E0,1.619781647E0,1.660047913E0,3.429963773E0
3.993798167E0,-1.772314453E0,1.157542877E0,2.175575867E0,3.035479268E0
4.003807167E0,-9.219328308E-1,8.032296753E-1,2.738704834E0,2.999273616E0
4.013816167E0,-1.713935852E-1,6.313870239E-1,3.424578552E0,3.486511666E0
4.023825167E0,6.324348450E-1,5.563929749E-1,4.270469513E0,4.352752788E0
4.033834167E0,1.466500397E0,4.998106384E-1,4.711153107E0,4.959374727E0
4.043843167E0,2.645149384E0,2.061213684E-1,5.026397552E0,5.683658473E0
4.053852167E0,6.174210663E0,6.969506836E-1,5.581443329E0,8.352192957E0
4.063861167E0,1.435380112E1,4.327949982E0,6.893464966E0,1.650098836E1
4.073870167E0,2.905473038E1,7.743397522E0,8.317753143E0,3.119811821E1
4.083879167E0,4.976865555E1,6.965165863E0,6.576873322E0,5.068222443E1
4.093887167E0,6.583519501E1,-8.448431396E-1,1.780397644E0,6.586468308E1
4.103896167E0,6.564823380E1,-7.869136047E0,-4.165837097E-1,6.611949368E1
4.113905167E0,4.919504837E1,-3.249742126E-1,-1.246607666E0,4.921191343E1
4.123914167E0,3.352189087E1,4.988376617E0,9.954299927E-2,3.389116371E1
4.133923167E0,2.366054764E1,3.946094055E0,1.184935913E0,2.401660355E1
4.143932167E0,1.452773941E1,1.390608215E0,-1.400218231E1,2.022498734E1
4.153941167E0,8.142168274E0,-3.182831268E0,-9.740095367E0,1.308796305E1
4.163950167E0,1.147992737E1,-4.891378326E0,6.976841583E0,1.429652520E1
4.173959167E0,1.083896027E1,-4.327351227E0,5.647156677E0,1.296531553E1
4.183968167E0,8.190667419E0,-2.945874023E0,3.714226227E0,9.463650617E0
4.193976167E0,6.157146149E0,-1.465901642E0,1.075363770E0,6.419947317E0
4.203985167E0,3.482657776E0,-6.947053528E-1,-6.365213470E0,7.288858843E0
4.213994167E0,8.506809998E-1,-3.061134338E-1,-6.919061737E0,6.977877823E0
4.224003167E0,-6.529421997E-1,1.402583313E-1,-2.577340393E0,2.662459280E0
4.234012167E0,-1.274749146E0,6.918612671E-1,2.788700867E-1,1.476965105E0
4.244021167E0,-1.362167358E0,1.079255676E0,1.561253357E0,2.336194506E0
4.254030167E0,-8.758287048E-1,1.077309723E0,1.585802307E0,2.107709922E0
4.264039167E0,-5.917195129E-1,8.346643066E-1,1.438957672E0,1.765614813E0
4.274048167E0,-5.644761658E-1,5.944139099E-1,1.481768646E0,1.693398819E0
4.284057167E0,-8.809181213E-1,5.255570984E-1,1.531165924E0,1.843012775E0
4.294065167E0,-1.062640228E0,3.606001282E-1,1.197659454E0,1.641226638E0
4.304074167E0,-1.097517700E0,1.296304321E-1,9.636959839E-1,1.466307983E0
4.314083167E0,-1.090632019E0,-5.134323120E-2,8.315208435E-1,1.372421670E0
4.324092167E0,-1.069076843E0,-2.165995789E-1,7.773335266E-1,1.339435734E0
4.334101167E0,-1.092278595E0,-3.367996216E-1,8.837622070E-1,1.444832915E0
4.344110167E0,-1.127605133E0,-3.748205566E-1,1.037193146E0,1.577261363E0
4.354119167E0,-1.156045990E0,-4.908293152E-1,1.123114471E0,1.684856630E0
4.364128167E0,-1.130149841E0,-5.888754272E-1,1.249451752E0,1.784696784E0
4.374137167E0,-9.633966064E-1,-6.465055847E-1,1.373244324E0,1.797749278E0
4.384145167E0,-3.513194275E-1,-6.954537964E-1,1.548679504E0,1.733634774E0
4.394154167E0,5.301974487E-1,-4.846920776E-1,1.880689087E0,2.013213150E0
4.404163167E0,1.262774048E0,-1.676513672E-2,2.214794312E0,2.549547648E0
4.414172167E0,2.191742249E0,5.679190063E-1,2.666704559E0,3.498225163E0
4.424181167E0,3.595672760E0,9.611512756E-1,3.205583954E0,4.912071137E0
4.434190167E0,6.974296875E0,8.900491333E-1,4.354145508E0,8.269920644E0
4.444199167E0,1.429257843E1,7.542814636E-1,6.531966705E0,1.573255630E1
4.454208167E0,2.633638321E1,4.038601685E-1,8.505612488E0,2.767875769E1
4.464217167E0,4.220817764E1,8.622070312E-2,8.444090424E0,4.304463215E1
4.474226167E0,5.645480164E1,1.225950623E0,5.232967987E0,5.671006557E1
4.484234167E0,5.820990189E1,3.121758270E0,-9.026229858E-2,5.829362057E1
4.494243167E0,4.376688629E1,1.519789581E0,-2.364333344E0,4.385704240E1
4.504252167E0,2.978850449E1,-6.988966370E-1,-1.337169342E0,2.982669070E1
4.514261167E0,2.214674561E1,-1.189725952E0,1.591191101E-1,2.217924948E1
4.524270167E0,1.673864182E1,-1.417851562E0,1.230441284E0,1.684358687E1
4.534279167E0,1.227193039E1,-1.500928802E0,1.217268677E0,1.242315603E1
4.544288167E0,6.425987091E0,-1.897903290E0,-8.732839966E-1,6.757068294E0
4.554297167E0,4.532724152E0,-3.400328979E0,-1.336271210E0,5.821807808E0
4.564306167E0,6.460116119E0,-3.992048492E0,-1.319805450E0,7.707881542E0
4.574314167E0,6.247408447E0,-4.359384613E0,-4.421804810E0,8.808331527E0
4.584323167E0,4.753664703E0,-3.589385834E0,-5.799090729E0,8.313270840E0
4.594332167E0,3.714974670E0,-1.959125977E0,-3.806584167E0,5.668270849E0
4.604341167E0,3.222349091E0,-8.402027893E-1,-1.435514832E0,3.626317308E0
4.614350167E0,2.774480438E0,-1.435514832E-1,9.113049316E-1,2.923837446E0
4.624359167E0,2.313738556E0,2.525248718E-1,2.518662415E0,3.429404507E0
4.634368167E0,1.634002075E0,4.312532043E-1,3.279829559E0,3.689610284E0
4.644377167E0,6.740483093E-1,5.306465149E-1,3.618126068E0,3.718435570E0
4.654386167E0,-1.709445190E-1,5.074447632E-1,3.380719757E0,3.422862587E0
4.664395167E0,-7.232958984E-1,3.306623840E-1,2.298619995E0,2.432313395E0
4.674403167E0,-8.888516235E-1,9.131011963E-3,4.766088867E-1,1.008611231E0
4.684412167E0,-1.003363495E0,-1.872605896E-1,-1.623823242E0,1.917969435E0
4.694421167E0,-1.302142181E0,-3.570075989E-1,-3.611689453E0,3.855817604E0
4.704430167E0,-1.481020203E0,-7.370672607E-1,-4.433181152E0,4.731784454E0
4.714439167E0,-1.325493622E0,-1.094523926E0,-3.673361206E0,4.055674853E0
4.724448167E0,-1.054257660E0,-1.269360352E0,-1.974843292E0,2.573468660E0
4.734457167E0,-7.511380005E-1,-1.355581055E0,-1.941462708E-1,1.561890222E0
4.744466167E0,-4.993615723E-1,-1.491199036E0,1.109941864E0,1.924839600E0
4.754475167E0,-2.091151428E-1,-1.777703247E0,1.713187408E0,2.477694306E0
4.764483167E0,1.827699280E-1,-2.111958160E0,2.143841858E0,3.014934498E0
4.774492167E0,7.469467163E-1,-2.223176880E0,2.759361877E0,3.621397908E0
4.784501167E0,1.387614441E0,-2.075883179E0,3.480262756E0,4.283339079E0
4.794510167E0,2.127825165E0,-1.927691345E0,4.286486206E0,5.159224540E0
4.804519167E0,3.399730225E0,-1.967807922E0,5.339995422E0,6.629176776E0
4.814528167E0,6.202202454E0,-2.295027466E0,6.874903564E0,9.539327301E0
4.824537167E0,1.205009171E1,-2.636317749E0,8.476722565E0,1.496695383E1
4.834546167E0,2.261078064E1,-2.092798004E0,8.562344513E0,2.426810557E1
4.844551792E0,3.701442810E1,5.879772949E-1,5.900280304E0,3.748635635E1
4.854559792E0,4.969905029E1,3.996239777E0,-3.109034729E-1,4.986042713E1
4.864568792E0,5.191698807E1,3.431763611E0,-5.234315186E0,5.229291259E1
4.874577792E0,4.124702637E1,6.801855469E-1,-3.104993134E0,4.136932219E1
4.884586792E0,3.027993256E1,1.981579285E0,1.076411591E0,3.036378820E1
4.894595792E0,2.306493622E1,2.697241058E0,3.631148987E0,2.350428972E1
4.904604792E0,1.767045410E1,2.028431854E0,4.866080933E0,1.844012548E1
4.914613792E0,1.349623444E1,1.151405640E0,4.849465485E0,1.438719550E1
4.924622792E0,1.039767792E1,2.743794250E-1,4.128414917E0,1.119065681E1
4.934631792E0,6.846911774E0,-3.023712158E-1,3.540138245E0,7.713897068E0
4.944640792E0,5.314398651E0,-1.414408722E0,2.785557404E0,6.164634223E0
4.954648792E0,6.510710907E0,-2.198777618E0,1.422042847E0,7.017562639E0
4.964657792E0,6.278094635E0,-2.283202057E0,7.858657837E-2,6.680842741E0
4.974666792E0,5.231171722E0,-1.944007416E0,-2.274819489E0,6.026535168E0
4.984675792E0,4.106260986E0,-1.129850464E0,-3.268004150E0,5.368220607E0
4.994684792E0,3.413351898E0,-3.776646423E-1,-2.170785828E0,4.062746961E0
5.004693792E0,2.914439392E0,2.739303589E-2,-6.819818115E-1,2.993293594E0
5.014702792E0,2.373913422E0,2.588117981E-1,5.361849976E-1,2.447435971E0
5.024711792E0,1.685195618E0,3.589535522E-1,1.087488556E0,2.037489456E0
5.034720792E0,9.732760620E-1,3.444337463E-1,1.325343933E0,1.680011143E0
5.044728792E0,3.571572876E-1,2.877017212E-1,1.505120087E0,1.573442113E0
5.054737792E0,-1.086740112E-1,2.288740540E-1,1.541494446E0,1.562177487E0
5.064746792E0,-4.510121155E-1,1.986369324E-1,1.480720825E0,1.560577688E0
5.074755792E0,-6.453080750E-1,1.871109009E-1,1.425485687E0,1.575894173E0
5.084764792E0,-7.613168335E-1,2.490820312E-1,1.368753662E0,1.585916696E0
5.094773792E0,-8.728349304E-1,3.629951477E-1,1.294657745E0,1.603042411E0
5.104782792E0,-9.440867615E-1,5.285508728E-1,1.232836304E0,1.640289971E0
5.114791792E0,-9.425898743E-1,7.108717346E-1,1.149010620E0,1.647434278E0
5.124800792E0,-8.898994446E-1,8.970845032E-1,1.067729645E0,1.654305964E0
5.134808792E0,-7.686515808E-1,1.130898285E0,9.633966064E-1,1.672689213E0
5.144817792E0,-5.053491211E-1,1.416204987E0,9.419911194E-1,1.774362299E0
5.154826792E0,1.922003174E-1,1.511856079E0,1.258283386E0,1.976341784E0
5.164835792E0,1.112636261E0,1.514101410E0,1.894310760E0,2.668122146E0
5.174844792E0,2.215842133E0,1.630409546E0,2.757116547E0,3.894853437E0
5.184853792E0,4.048930206E0,1.853146362E0,3.886368256E0,5.910316867E0
5.194862792E0,7.480843506E0,1.978136444E0,5.248385925E0,9.349951774E0
5.204871792E0,1.354233856E1,1.714833984E0,6.182892609E0,1.498545129E1
5.214880792E0,2.347298767E1,4.032614136E-1,5.959856415E0,2.422114073E1
5.224888792E0,3.643573151E1,-2.604284363E0,3.964356079E0,3.674317551E1
5.234897792E0,4.664255630E1,-6.095324707E0,-5.842350769E-1,4.704277174E1
5.244906792E0,4.628330338E1,-6.924749908E0,-4.165388031E0,4.698347358E1
5.254915792E0,3.403547287E1,-4.425547028E0,-2.517165527E0,3.441416863E1
5.264924792E0,2.473965363E1,-3.222798157E0,9.174421692E-1,2.496554805E1
5.274933792E0,1.998793488E1,-3.126847687E0,3.482208710E0,2.052852880E1
5.284942792E0,1.662951874E1,-3.381917267E0,5.092260590E0,1.771748785E1
5.294951792E0,1.415082321E1,-3.733536072E0,5.574557648E0,1.566080401E1
5.304960792E0,1.244646744E1,-3.968697052E0,5.309309235E0,1.410155568E1
5.314968792E0,1.129266678E1,-3.988755341E0,4.718338165E0,1.287234272E1
5.324977792E0,1.053389465E1,-3.811972961E0,3.980522461E0,1.188859258E1
5.334986792E0,1.003692810E1,-3.477418671E0,3.112028503E0,1.106874373E1
5.344995792E0,9.548344116E0,-3.084785156E0,1.995650024E0,1.023080612E1
5.355004792E0,8.826096039E0,-2.755320282E0,4.053570557E-1,9.255056752E0
5.365013792E0,7.688162384E0,-2.600093079E0,-1.851350098E0,8.324411213E0
5.375022792E0,6.468049622E0,-2.430645447E0,-2.205513611E0,7.253136803E0
5.385031792E0,5.481151886E0,-2.162253571E0,-1.132544861E0,6.000085363E0
5.395040792E0,4.572691040E0,-1.813478851E0,1.396595764E-1,4.921149631E0
5.405048792E0,3.695215759E0,-1.410965881E0,1.052012329E0,4.092941994E0
5.415057792E0,2.712359619E0,-1.026864624E0,1.366059265E0,3.205848339E0
5.425066792E0,1.708846436E0,-5.932164001E-1,1.339714050E0,2.250976582E0
5.435075792E0,8.226892090E-1,-1.654060364E-1,1.194066925E0,1.459442535E0
5.445084792E0,1.190025330E-1,1.990859985E-1,9.183403015E-1,9.471777801E-1
5.455093792E0,-3.031196594E-1,4.891827393E-1,6.333329773E-1,8.557405801E-1
5.465102792E0,-4.894821167E-1,6.620732117E-1,4.960684204E-1,9.612583201E-1
5.475111792E0,-6.370751953E-1,7.291337585E-1,4.776567078E-1,1.079655859E0
5.485119792E0,-7.194039917E-1,8.240364075E-1,4.026626587E-1,1.165639447E0
5.495128792E0,-8.333171082E-1,1.203647003E0,3.017724609E-1,1.494740823E0
5.505137792E0,-1.140628052E0,1.649869080E0,1.546284485E-1,2.011718243E0
5.515146792E0,-1.352736969E0,2.030078430E0,7.753875732E-2,2.440722844E0
5.525155792E0,-1.576671295E0,2.464026031E0,1.496887207E-2,2.925327456E0
5.535164792E0,-1.783391418E0,2.888094177E0,1.067280579E-1,3.396021762E0
5.545173792E0,-1.915566559E0,3.083288269E0,7.985893250E-1,3.716692979E0
5.555182792E0,-1.914369049E0,3.282673645E0,1.331032104E0,4.026462663E0
5.565191792E0,-1.533261566E0,3.589685211E0,1.942510529E0,4.360054828E0
5.575199792E0,-5.489085388E-1,3.849095764E0,3.032843170E0,4.931021850E0
5.585208792E0,5.427713013E-1,4.307742004E0,4.559368744E0,6.295957846E0
5.595217792E0,1.713935852E0,5.170098724E0,6.200855255E0,8.253369180E0
5.605226792E0,3.779640198E0,6.646029510E0,8.176596680E0,1.119428968E1
5.615235792E0,9.850565643E0,8.690028992E0,1.012180161E1,1.658315757E1
5.625244792E0,2.472932510E1,8.622818756E0,1.168874313E1,2.867959622E1
5.635253792E0,4.784156296E1,7.732919312E-1,8.988358612E0,4.868473803E1
5.645262792E0,6.879424164E1,-1.296049850E1,-1.022373962E0,7.001190936E1
5.655271792E0,6.588773575E1,-1.497905090E1,-9.376202087E0,6.821641191E1
5.665279792E0,4.525778595E1,-4.394411774E0,-7.775730286E0,4.613068421E1
5.675288792E0,3.012934570E1,-9.096583557E-1,-2.731669464E0,3.026659824E1
5.685297792E0,2.151446045E1,-1.697769470E0,6.489006042E-1,2.159109774E1
5.695306792E0,1.524325150E1,-2.513872375E0,2.641107788E0,1.567328047E1
5.705315792E0,1.039109161E1,-2.983296204E0,3.606300659E0,1.139650146E1
5.715324792E0,4.149670715E0,-4.121229858E0,6.844217377E0,9.002644839E0
5.725333792E0,2.497556305E0,-5.102289734E0,4.677173767E0,7.358471477E0
5.735342792E0,2.860252075E0,-7.013814697E0,-8.483608246E0,1.137304917E1
5.745351792E0,2.040257263E0,-9.006770325E0,-1.535372177E1,1.791706822E1
5.755359792E0,1.594184875E0,-6.861281891E0,-8.506211243E0,1.104419505E1
5.765368792E0,2.092648315E0,-3.907174988E0,-2.677332458E0,5.178156279E0
5.775377792E0,2.594554596E0,-1.952839050E0,1.918710022E0,3.771835370E0
5.785386792E0,2.170486450E0,-1.088985443E0,3.920347595E0,4.611510164E0
5.795395792E0,1.207089844E0,-4.321513367E-1,4.278852081E0,4.466810473E0
5.805404792E0,3.025209045E-1,8.412506104E-2,4.589156799E0,4.599886526E0
5.815413792E0,-4.629872131E-1,5.140310669E-1,4.479285278E0,4.532392492E0
5.825422792E0,-1.099463654E0,9.192384338E-1,4.190236359E0,4.428532530E0
5.835430792E0,-1.443747711E0,1.123713226E0,3.724255371E0,4.149363438E0
5.845439792E0,-1.622026978E0,1.165326691E0,3.074306946E0,3.666104337E0
5.855449042E0,-1.735491028E0,1.083446960E0,2.458487549E0,3.198428904E0
5.865458042E0,-1.718576202E0,9.361532593E-1,1.887874146E0,2.719182943E0
5.875467042E0,-1.587448883E0,7.702981567E-1,1.310075684E0,2.197646810E0
5.885476042E0,-1.395997009E0,6.842271423E-1,8.406518555E-1,1.767390725E0
5.895485042E0,-1.243763580E0,6.174659729E-1,5.209167480E-1,1.483093500E0
5.905494042E0,-1.095122681E0,6.806346130E-1,2.698887634E-1,1.317344718E0
5.915502042E0,-9.562115479E-1,1.079555054E0,2.956352234E-1,1.472134445E0
5.925511042E0,-6.044430542E-1,1.425635376E0,8.443940735E-1,1.763742890E0
5.935520042E0,8.502319336E-2,1.836081848E0,1.781445465E0,2.559682293E0
5.945529042E0,8.087681580E-1,2.750679932E0,2.433190155E0,3.760420236E0
5.955538042E0,2.080822906E0,4.247866516E0,3.232827301E0,5.729342568E0
5.965547042E0,4.435576172E0,5.797294464E0,4.022135925E0,8.334298800E0
5.975556042E0,8.654552765E0,6.343059540E0,4.907095642E0,1.179895231E1
5.985565042E0,1.504910522E1,5.360053711E0,6.095474396E0,1.709855409E1
5.995574042E0,2.396875671E1,2.723586273E0,6.706204376E0,2.503781935E1
6.005582042E0,3.457869324E1,-1.440753937E0,6.830745392E0,3.527635016E1
6.015591042E0,4.367827057E1,-5.510191498E0,5.080135803E0,4.431660310E1
6.025600042E0,4.541286346E1,-5.129832458E0,1.017434235E0,4.571300167E1
6.035609042E0,3.802871887E1,-1.728755035E0,-1.244362335E0,3.808832486E1
6.045618042E0,2.845597549E1,-2.577190704E0,5.809419250E-1,2.857834752E1
6.055627042E0,2.238460098E1,-4.116888885E0,2.639461212E0,2.291257058E1
6.065636042E0,1.828537537E1,-4.631219330E0,3.719315643E0,1.922593180E1
6.075645042E0,1.532108963E1,-4.749623108E0,4.161795502E0,1.657151921E1
6.085653042E0,1.346270416E1,-4.779411163E0,4.124822388E0,1.486947659E1
6.095662042E0,1.229288681E1,-4.875661011E0,3.789819031E0,1.375681157E1
6.105671042E0,1.149474655E1,-4.976251831E0,3.337160339E0,1.296259695E1
6.115680042E0,1.076471466E1,-5.076692963E0,2.721041565E0,1.220884763E1
6.125689042E0,9.623338165E0,-5.331313477E0,1.870360565E0,1.115929162E1
6.135698042E0,8.140521698E0,-5.340893555E0,5.625302124E-1,9.752419070E0
6.145707042E0,6.928941193E0,-4.595144348E0,-2.880010986E-1,8.319165960E0
6.155716042E0,6.217321014E0,-3.551215210E0,-1.688488770E-1,7.162033231E0
6.165724042E0,5.632936249E0,-2.729274445E0,7.926017761E-1,6.309288974E0
6.175733042E0,4.870122528E0,-2.088606720E0,1.827399902E0,5.605333342E0
6.185742042E0,3.890260162E0,-1.452729034E0,2.159708862E0,4.680693127E0
6.195751042E0,2.833757172E0,-8.156538391E-1,2.051783295E0,3.592392738E0
6.205760042E0,1.870210876E0,-2.770738220E-1,1.853445740E0,2.647587531E0
6.215769042E0,1.042132874E0,1.142124939E-1,1.626218262E0,1.934856908E0
6.225778042E0,3.469784546E-1,4.394860840E-1,1.384770355E0,1.493697092E0
6.235787042E0,-2.603086853E-1,7.860154724E-1,1.207688599E0,1.464272067E0
6.245795042E0,-5.897735596E-1,1.031954041E0,1.061442719E0,1.593556600E0
6.255804042E0,-7.819738770E-1,1.323847046E0,9.235794067E-1,1.793614525E0
6.265813042E0,-9.333091736E-1,1.687890015E0,8.416996765E-1,2.104399454E0
6.275822042E0,-1.059347076E0,1.980381775E0,8.250842285E-1,2.392674693E0
6.285831042E0,-1.168021088E0,2.208357697E0,9.614506531E-1,2.676845968E0
6.295840042E0,-1.218166809E0,2.411634979E0,1.226100311E0,2.967024709E0
6.305849042E0,-1.323697357E0,2.706671448E0,1.478026428E0,3.356010599E0
6.315858042E0,-1.423539734E0,2.857258301E0,1.873953094E0,3.701633500E0
6.325866042E0,-1.286125488E0,3.077001343E0,2.408641205E0,4.113831364E0
6.335875042E0,-9.066645813E-1,3.385360107E0,2.813249817E0,4.494115959E0
6.345884042E0,-3.691323853E-1,3.741469574E0,3.100652161E0,4.873284017E0
6.355893042E0,6.836283875E-1,4.169579315E0,3.661535797E0,5.591027082E0
6.365902042E0,1.937271423E0,4.643793182E0,4.278253326E0,6.604641339E0
6.375911042E0,3.367397461E0,5.282065887E0,4.844825134E0,7.919085571E0
6.385920042E0,6.283932495E0,5.952821045E0,5.460943909E0,1.023453928E1
6.395929042E0,1.281455200E1,6.065237274E0,6.374943237E0,1.554476592E1
6.405938042E0,2.484069351E1,4.070335693E0,7.032974854E0,2.613599859E1
6.415946042E0,4.213348297E1,-2.009571075E0,5.370382233E0,4.252187400E1
6.425955042E0,5.594286621E1,-1.000190094E1,3.806584167E-1,5.683121680E1
6.435964042E0,5.228641983E1,-9.692344666E0,-3.534450073E0,5.329449860E1
6.445973042E0,3.656551163E1,-2.520608368E0,-1.740580444E0,3.669359246E1
6.455982042E0,2.650268738E1,7.439529419E-2,9.864486694E-1,2.652114353E1
6.465991042E0,2.037353302E1,3.981719971E-2,2.779569855E0,2.056230633E1
6.476000042E0,1.584410202E1,-7.143145752E-1,3.593277740E0,1.626214805E1
6.486009042E0,1.245544876E1,-1.172811127E0,3.762575684E0,1.306409834E1
6.496017042E0,1.005713608E1,-1.401385803E0,3.739224243E0,1.082089027E1
6.506026042E0,8.165519714E0,-1.772913208E0,3.688180389E0,9.133543016E0
6.516035042E0,6.139931946E0,-2.699336700E0,4.266577606E0,7.949142557E0
6.526044042E0,6.349496155E0,-3.498375092E0,2.763253784E0,7.758240856E0
6.536053042E0,7.485334167E0,-3.899540863E0,-9.886940002E-1,8.497891642E0
6.546062042E0,7.751929779E0,-4.368964691E0,-6.638994141E0,1.110209489E1
6.556071042E0,6.496640167E0,-3.363655243E0,-5.653293915E0,9.245552560E0
6.566080042E0,5.696254578E0,-1.712888031E0,-1.782044220E0,6.209426964E0
6.576088042E0,5.353317719E0,-8.890013123E-1,8.913963318E-1,5.499356449E0
6.586097042E0,4.738097076E0,-5.611830139E-1,2.473306732E0,5.374173097E0
6.596106042E0,3.845652924E0,-2.779719543E-1,2.756218414E0,4.739520520E0
6.606115042E0,2.858605499E0,-6.556365967E-2,2.576891327E0,3.849193799E0
6.616124042E0,1.897603912E0,7.469467163E-2,2.229463806E0,2.928649649E0
6.626133042E0,1.049018555E0,1.745370483E-1,1.825753326E0,2.112883887E0
6.636142042E0,3.131488037E-1,3.189866638E-1,1.387764130E0,1.457979405E0
6.646151042E0,-2.404000854E-1,4.999603271E-1,1.005309448E0,1.148215841E0
6.656159042E0,-5.158273315E-1,6.682104492E-1,7.610174561E-1,1.136543272E0
6.666168042E0,-6.927593994E-1,7.093748474E-1,6.667135620E-1,1.194836907E0
6.676177042E0,-8.445437622E-1,7.719447327E-1,6.999444580E-1,1.341296045E0
6.686186042E0,-1.034648438E0,9.048683167E-1,7.108717346E-1,1.547456844E0
6.696195042E0,-1.277443542E0,1.030307465E0,6.855743408E-1,1.778597102E0
6.706204042E0,-1.426084442E0,1.269809418E0,7.876620483E-1,2.065561497E0
6.716213042E0,-1.440005493E0,1.837129669E0,9.638456726E-1,2.525402883E0
6.726221042E0,-1.375639343E0,2.435285797E0,1.230141907E0,3.055527717E0
6.736230042E0,-1.242865448E0,2.876568146E0,1.948198700E0,3.689828857E0
6.746239042E0,-4.553530884E-1,3.091521149E0,3.187471619E0,4.463723196E0
6.756248042E0,7.982899475E-1,3.362008667E0,4.910837860E0,6.004722942E0
6.766257042E0,2.304906921E0,4.240232391E0,6.895859985E0,8.416950254E0
6.776266042E0,4.857099609E0,5.701343994E0,8.426277466E0,1.127381443E1
6.786275042E0,1.142349472E1,6.938221893E0,9.832752686E0,1.659271467E1
6.796284042E0,2.457784012E1,5.800587616E0,1.095511871E1,2.752692623E1
6.806292042E0,4.283896591E1,2.505789185E-1,7.762407990E0,4.353728021E1
6.816301042E0,5.903184265E1,-8.942404175E0,-8.149053955E-1,5.971087933E1
6.826310042E0,5.873590805E1,-1.303234909E1,-8.047565002E0,6.070018385E1
6.836319042E0,4.271487396E1,-6.795119476E0,-8.097561035E0,4.400346124E1
6.846328042E0,2.975766861E1,-2.342778168E0,-4.881498871E0,3.024626393E1
6.856340333E0,2.217563553E1,-2.484683075E0,-2.368973694E0,2.243979718E1
6.866349333E0,1.503473511E1,-3.676205292E0,-4.380490723E0,1.608559741E1
6.876358333E0,7.169790344E0,-5.792504425E0,-2.886896667E0,9.658839136E0
6.886366333E0,7.516020355E0,-7.683072968E0,5.605842590E-1,1.076264033E1
6.896375333E0,7.114555206E0,-9.699829102E0,-8.443192291E0,1.469663487E1
6.906384333E0,4.421804810E0,-9.257498932E0,-9.614356842E0,1.406020988E1
6.916393333E0,3.406765594E0,-5.621410217E0,-3.102897491E0,7.268719109E0
6.926402333E0,3.434757385E0,-2.706222382E0,1.326242065E0,4.569476544E0
6.936411333E0,3.184627533E0,-9.578581238E-1,4.646786957E0,5.714190558E0
6.946420333E0,2.373614044E0,-6.631210327E-2,6.192023621E0,6.631711502E0
6.956428333E0,1.214424591E0,4.863386536E-1,5.747597809E0,5.894593535E0
6.966437333E0,1.646575928E-1,6.833290100E-1,4.906047821E0,4.956143247E0
6.976446333E0,-7.089257812E-1,7.086264038E-1,4.032614136E0,4.155322359E0
6.986455333E0,-1.358574829E0,7.810757446E-1,3.270698547E0,3.626744252E0
6.996464333E0,-1.607956238E0,8.255332947E-1,2.635120239E0,3.195447881E0
7.006473333E0,-1.813778229E0,8.529263306E-1,2.066303101E0,2.878694720E0
7.016482333E0,-1.916764069E0,9.075627136E-1,1.676064606E0,2.703118040E0
7.026491333E0,-1.919308777E0,1.000070343E0,1.486708374E0,2.625678705E0
7.036499333E0,-1.902843018E0,1.218915253E0,1.426832886E0,2.672530267E0
7.046508333E0,-1.910028076E0,1.615141296E0,1.450334015E0,2.891428265E0
7.056517333E0,-1.912572784E0,2.144889679E0,1.534908142E0,3.257979342E0
7.066526333E0,-1.906435547E0,2.878663788E0,1.632056122E0,3.819006269E0
7.076535333E0,-1.950294342E0,3.705544281E0,1.779649200E0,4.549929419E0
7.086544333E0,-1.725910950E0,4.562811584E0,1.963167572E0,5.258521187E0
7.096553333E0,-1.038690033E0,5.401816864E0,2.009271698E0,5.856250949E0
7.106561333E0,-1.408570862E-1,5.893095245E0,2.319277039E0,6.334623767E0
7.116570333E0,8.211923218E-1,6.059399414E0,2.887944489E0,6.762462677E0
7.126579333E0,1.966460724E0,6.244564362E0,3.596720581E0,7.469802593E0
7.136588333E0,3.154839478E0,6.173312531E0,4.018094330E0,8.012982077E0
7.146597333E0,4.997657318E0,5.768554230E0,4.048630829E0,8.639687967E0
7.156606333E0,9.148824921E0,4.301754456E0,4.073179779E0,1.089939826E1
7.166615333E0,1.661230453E1,1.480271759E0,4.326453094E0,1.723014982E1
7.176624333E0,2.833427856E1,-3.369493103E0,4.087400208E0,2.882519152E1
7.186632333E0,4.260245773E1,-1.012973511E1,2.363584900E0,4.385393337E1
7.196641333E0,5.140250793E1,-1.379321686E1,-5.060975647E-1,5.322336694E1
7.206650333E0,4.701767624E1,-8.790919189E0,-3.129991150E0,4.793473671E1
7.216659333E0,3.609234558E1,-4.930147705E0,-5.060975647E-1,3.643102937E1
7.226668333E0,2.740366379E1,-5.505102081E0,2.494113464E0,2.806220839E1
7.236677333E0,2.162508041E1,-5.645809479E0,3.856879578E0,2.268027309E1
7.246686333E0,1.715762054E1,-5.331313477E0,4.271367645E0,1.846757774E1
7.256695333E0,1.367181931E1,-4.817132721E0,3.952380981E0,1.502480370E1
7.266703333E0,1.100930603E1,-4.250411224E0,3.354224854E0,1.226872606E1
7.276712333E0,8.494834900E0,-3.877686310E0,3.408112793E0,9.940518291E0
7.286721333E0,6.889123993E0,-3.496728516E0,2.875819702E0,8.243632613E0
7.296730333E0,6.832391968E0,-2.904559937E0,3.679348755E-1,7.433264727E0
7.306739333E0,6.917415161E0,-2.449805603E0,-2.771336975E0,7.844264697E0
7.316748333E0,6.663393402E0,-2.319875793E0,-2.059417419E0,7.350090845E0
7.326757333E0,6.430477753E0,-2.198777618E0,1.104702759E-1,6.796901561E0
7.336765333E0,6.060147858E0,-1.785487061E0,1.562600555E0,6.508077796E0
7.346774333E0,5.308111725E0,-1.200204163E0,1.956730957E0,5.783194286E0
7.356783333E0,4.375550995E0,-6.149212646E-1,2.016456757E0,4.856920065E0
7.366792333E0,3.376678162E0,-1.281335449E-1,2.041903839E0,3.948131824E0
7.376801333E0,2.372715912E0,3.094065857E-1,1.995200958E0,3.115499976E0
7.386810333E0,1.431323547E0,6.954537964E-1,1.836680603E0,2.430172570E0
7.396819333E0,5.924679565E-1,1.104852448E0,1.624421997E0,2.051941528E0
7.406827333E0,-1.077758789E-1,1.538051605E0,1.363963623E0,2.058546853E0
7.416836333E0,-4.622387695E-1,2.061513062E0,1.126257935E0,2.394150730E0
7.426845333E0,-6.313870239E-1,2.605631561E0,1.120270386E0,2.905679119E0
7.436854333E0,-8.928932190E-1,3.114423523E0,1.407523041E0,3.532423147E0
7.446863333E0,-1.126856689E0,3.402723999E0,1.808090057E0,4.014663905E0
7.456872333E0,-1.250349884E0,3.598217468E0,2.033072205E0,4.317861319E0
7.466881333E0,-1.292113037E0,3.738475800E0,2.184706879E0,4.518705738E0
7.476890333E0,-1.292412415E0,3.783981171E0,2.528541870E0,4.731000670E0
7.486898333E0,-1.112486572E0,3.683090973E0,2.954705658E0,4.851089673E0
7.496907333E0,-5.188211060E-1,3.321143646E0,3.511398010E0,4.860975874E0
7.506916333E0,3.044668579E-1,3.064876556E0,4.140390015E0,5.160329238E0
7.516925333E0,1.278790741E0,3.054548035E0,4.854405212E0,5.876293000E0
7.526934333E0,2.555485840E0,3.117716675E0,5.654192047E0,6.944102019E0
7.536943333E0,4.534819794E0,3.087030487E0,6.487209778E0,8.495777686E0
7.546952333E0,7.927664337E0,2.963986359E0,7.340285797E0,1.120325277E1
7.556960333E0,1.342064163E1,2.862048340E0,7.514523468E0,1.564522309E1
7.566969333E0,2.209914459E1,2.259102173E0,6.239624634E0,2.307398210E1
7.576978333E0,3.401212143E1,7.590715027E-1,2.531685333E0,3.411465996E1
7.586987333E0,4.582106461E1,-1.857786713E0,-4.123924255E0,4.604376271E1
7.596996333E0,5.095793243E1,-5.530549164E0,-8.929980011E0,5.202924557E1
7.607005333E0,4.301035950E1,-7.119644623E0,-6.375691681E0,4.405938956E1
7.617014333E0,3.078812576E1,-5.024152222E0,-4.635859680E-1,3.119880936E1
7.627023333E0,2.363839371E1,-3.572920074E0,3.114273834E0,2.410888045E1
7.637031333E0,1.812595688E1,-3.583697662E0,3.829785919E0,1.886956443E1
7.647040333E0,1.203123093E1,-4.667893066E0,2.841990051E0,1.321425937E1
7.657049333E0,1.068238586E1,-5.435945892E0,2.484383698E0,1.224071231E1
7.667058333E0,1.087144272E1,-4.929698639E0,5.102888489E-1,1.194782784E1
7.677067333E0,9.926757202E0,-3.984564056E0,-1.088087311E0,1.075179954E1
7.687076333E0,8.857380981E0,-2.797382812E0,-1.731898499E0,9.448704719E0
7.697085333E0,7.828271027E0,-1.997895355E0,-1.700463867E0,8.256209208E0
7.707093333E0,6.607110443E0,-1.499581604E0,-1.122066650E0,6.867436710E0
7.717102333E0,5.408403168E0,-1.162632294E0,8.322692871E-2,5.532582164E0
7.727111333E0,4.080364838E0,-8.952882385E-1,9.392967224E-1,4.281728222E0
7.737120333E0,2.746039581E0,-6.493496704E-1,1.317859497E0,3.114344559E0
7.747129333E0,1.496587830E0,-4.420307922E-1,1.538350983E0,2.191275907E0
7.757138333E0,3.842509460E-1,-1.926493835E-1,1.462758179E0,1.524606200E0
7.767147333E0,-3.845503235E-1,1.187031555E-1,1.192120972E0,1.258221682E0
7.777156333E0,-7.857160950E-1,3.950285339E-1,8.533753967E-1,1.225417028E0
7.787164333E0,-1.033151550E0,4.727169800E-1,6.491999817E-1,1.308558018E0
7.797173333E0,-1.198258209E0,4.593946838E-1,5.399272156E-1,1.392259893E0
7.807182333E0,-1.388512573E0,5.409750366E-1,4.950205994E-1,1.570244105E0
7.817191333E0,-1.716630249E0,5.827381897E-1,4.556524658E-1,1.869230424E0
7.827200333E0,-2.152523804E0,7.921527100E-1,3.751199341E-1,2.324129860E0
7.837209333E0,-2.626737671E0,1.071471863E0,3.731739807E-1,2.861304172E0
7.847218333E0,-3.025059357E0,1.408121796E0,4.761598206E-1,3.370536942E0
7.857226042E0,-3.323538666E0,1.847308502E0,4.526586914E-1,3.829276414E0
7.867235042E0,-3.311862946E0,2.311642914E0,5.590873718E-1,4.077340778E0
7.877244042E0,-2.992726593E0,2.638563080E0,1.119372253E0,4.143841434E0
7.887253042E0,-1.749262390E0,2.241738281E0,1.720522156E0,3.323477985E0
7.897262042E0,-6.508465576E-1,2.033820648E0,2.369422760E0,3.189700909E0
7.907271042E0,-1.787283325E-1,2.306254120E0,3.588936768E0,4.269803158E0
7.917280042E0,2.926414490E-1,2.869682465E0,5.855074310E0,6.527067615E0
7.927288042E0,1.132395172E0,3.820056152E0,8.682544556E0,9.553100428E0
7.937297042E0,4.043242035E0,6.290219421E0,1.039303757E1,1.280351110E1
7.947306042E0,1.569471268E1,9.326206055E0,1.187360870E1,2.177807864E1
7.957315042E0,4.100677597E1,8.449479218E0,1.092323502E1,4.326969422E1
7.967324042E0,7.135242188E1,-1.313518524E0,-2.563419342E0,7.141053534E1
7.977333042E0,7.715495544E1,-1.506227783E1,-1.705792786E1,8.044086192E1
7.987342042E0,5.623969894E1,-9.733958130E0,-1.809467194E1,5.987546101E1
7.997350042E0,3.215553223E1,-1.101259918E0,-1.562944839E1,3.576968945E1
8.007359042E0,1.743858627E1,-1.717378693E0,-1.176822784E1,2.110793375E1
8.017368042E0,8.857979736E0,-4.741390228E0,5.865702209E0,1.163404696E1
8.027377042E0,1.045545776E1,-5.882766724E0,1.153531219E1,1.664292549E1
8.037386042E0,9.448202362E0,-4.718637543E0,5.241799622E0,1.179027275E1
8.047395042E0,6.680906982E0,-3.479214935E0,1.799557800E0,7.744537620E0
8.057404042E0,3.059936829E0,-2.902464294E0,-3.364852753E0,5.395344885E0
8.067413042E0,-1.540746002E0,-3.030148773E0,-1.012314880E1,1.067866291E1
8.077421042E0,-2.811303864E0,-1.318158875E0,-7.286846924E0,7.920802379E0
8.087430042E0,-2.800825653E0,1.787283325E-1,-3.510050812E0,4.494110018E0
8.097439042E0,-2.546803894E0,9.442364502E-1,-5.789959717E-1,2.777234035E0
8.107448042E0,-2.439028015E0,1.307381287E0,1.887275391E0,3.349613692E0
8.117457042E0,-2.330354004E0,1.486708374E0,3.015928345E0,4.091048197E0
8.127466042E0,-2.357597351E0,1.545985107E0,3.035836945E0,4.143023193E0
8.137475042E0,-2.540067902E0,1.513203278E0,2.456541595E0,3.843998662E0
8.147483042E0,-2.526895294E0,1.497336273E0,1.750459900E0,3.419258049E0
8.157492042E0,-2.548001404E0,1.323098602E0,1.092577972E0,3.071909454E0
8.167501042E0,-2.900218964E0,1.234482880E0,7.809260559E-1,3.247316357E0
8.177510042E0,-3.514990540E0,1.590442657E0,9.056167603E-2,3.859127849E0
8.187519042E0,-4.147874451E0,1.891616364E0,-1.207089844E0,4.715945379E0
8.197528042E0,-4.387077026E0,1.616638184E0,-2.058519287E0,5.108567853E0
8.207537042E0,-4.056564331E0,5.337899780E-1,-2.189347229E0,4.640461960E0
8.217545042E0,-3.036585388E0,-5.539979553E-1,-1.158141632E0,3.296825230E0
8.227554042E0,-2.207908630E0,-9.750723267E-1,4.927752686E-1,2.463423234E0
8.237563042E0,-1.449735260E0,-7.458988953E-1,2.029030609E0,2.602895061E0
8.247572042E0,-6.035449219E-1,-3.908372498E-1,3.356170807E0,3.432331964E0
8.257581042E0,2.550695801E-1,-5.882766724E-2,5.339097290E0,5.345510365E0
8.267590042E0,1.027463379E0,4.700225830E-1,8.407266998E0,8.482849793E0
8.277599042E0,2.772833862E0,2.821183319E0,1.257714569E1,1.318454689E1
8.287607042E0,1.166000290E1,8.134384460E0,1.720043152E1,2.231543687E1
8.297616042E0,3.373519730E1,1.178319672E1,1.777733185E1,3.991166232E1
8.307625042E0,6.392217316E1,6.820566559E0,5.653293915E0,6.453312391E1
8.317634042E0,7.902217255E1,-7.300468597E0,-1.309312271E1,8.043152652E1
8.327643042E0,6.570182236E1,-1.032328262E1,-1.746388367E1,6.876253964E1
8.337652042E0,4.055037506E1,-7.120692444E-1,-1.061203217E1,4.192201315E1
8.347661042E0,2.457604385E1,1.517544250E0,-7.390281830E0,2.570799754E1
8.357670042E0,1.073268127E1,4.303550720E-1,-8.438252563E0,1.365942016E1
8.367678042E0,6.274651794E0,-3.047063599E0,5.382656708E0,8.810723293E0
8.377687042E0,8.234077148E0,-4.337230682E0,6.211183777E0,1.118885161E1
8.387696042E0,6.553821259E0,-3.849844208E0,2.686014404E0,8.061547425E0
8.397705042E0,3.526965637E0,-4.180356903E0,-4.482129364E0,7.071375685E0
8.407714042E0,-1.554966431E0,-4.896318054E0,-1.499431915E1,1.584996713E1
8.417723042E0,-3.332070923E0,-2.262844391E0,-8.192014618E0,9.128650770E0
8.427732042E0,-3.941603394E0,-2.591111755E-1,-2.320025482E0,4.581036362E0
8.437740042E0,-4.315825195E0,8.116122437E-1,1.363664246E0,4.598330319E0
8.447749042E0,-3.690575409E0,1.462009735E0,3.064726868E0,5.015014465E0
8.457758042E0,-2.713557129E0,1.486558685E0,3.148702240E0,4.414473334E0
8.467767042E0,-2.437231750E0,1.227896576E0,3.428620148E0,4.382152978E0
8.477776042E0,-2.196681976E0,9.369017029E-1,2.861748962E0,3.727305143E0
8.487785042E0,-2.175426178E0,7.009922791E-1,1.846560059E0,2.938307894E0
8.497794042E0,-1.987566833E0,3.992198181E-1,8.936416626E-1,2.215489517E0
8.507803042E0,-1.876048737E0,3.502716064E-2,1.423539734E-1,1.881767897E0
8.517811042E0,-2.005978546E0,-1.889071655E-1,-2.921923828E-1,2.035930312E0
8.527820042E0,-2.042203217E0,-2.634521484E-1,-5.598358154E-1,2.133873743E0
8.537829042E0,-2.173330536E0,-4.501139832E-1,-7.000941467E-1,2.327251604E0
8.547838042E0,-2.206711121E0,-5.689668274E-1,-6.462062073E-1,2.368729550E0
8.557847042E0,-2.061662750E0,-5.034031677E-1,-3.833528137E-1,2.156577711E0
8.567856042E0,-1.614243164E0,-1.606159973E-1,1.061293030E-1,1.625681986E0
8.577865042E0,-1.013991394E0,1.196012878E-1,8.071215820E-1,1.301509994E0
8.587873042E0,-4.839436340E-1,2.323168945E-1,1.616787872E0,1.703577296E0
8.597882042E0,1.326242065E-1,3.707789612E-1,2.613265686E0,2.642768201E0
8.607891042E0,7.602690125E-1,7.128176880E-1,3.629951477E0,3.776594465E0
8.617900042E0,1.837279358E0,1.453327789E0,5.026846619E0,5.545894340E0
8.627909042E0,5.153782654E0,2.901266785E0,8.150251465E0,1.007002599E1
8.637918042E0,1.667472473E1,5.623655548E0,1.253208939E1,2.160382399E1
8.647927042E0,3.825459915E1,4.797373810E0,1.522843231E1,4.145279607E1
8.657935042E0,6.307388718E1,-1.082848206E0,1.042117905E1,6.393816369E1
8.667944042E0,7.381764542E1,-4.369264069E0,-4.884342957E-1,7.394845375E1
8.677953042E0,5.904127304E1,1.676962738E0,-6.209537201E0,5.939059251E1
8.687962042E0,3.939358063E1,4.301455078E0,-3.861070862E0,3.981538118E1
8.697971042E0,2.670551559E1,2.131268005E0,-1.352587280E0,2.682454769E1
8.707980042E0,1.891855865E1,1.558259583E-1,8.038284302E-2,1.891937115E1
8.717989042E0,1.117037109E1,-1.481768646E0,-5.545368347E0,1.255881916E1
8.727998042E0,4.123175812E0,-4.230652313E0,-5.206473083E0,7.874411708E0
8.738006042E0,5.483696594E0,-4.549189911E0,2.402204590E0,7.519085322E0
8.748015042E0,5.281167755E0,-3.859424286E0,1.688488770E0,6.755507605E0
8.758024042E0,3.946842499E0,-3.558400269E0,-7.149133301E-1,5.361984637E0
8.768033042E0,1.170715485E0,-5.125042419E0,-8.877139893E0,1.031698828E1
8.778042042E0,-1.218765564E0,-4.626279602E0,-1.187345901E1,1.280105001E1
8.788051042E0,-2.240690460E0,-1.619033203E0,-6.030060425E0,6.633520255E0
8.798060042E0,-2.824326782E0,4.638853455E-1,-1.140178986E0,3.080912122E0
8.808068042E0,-2.913990326E0,1.696571960E0,2.462978210E0,4.175638598E0
8.818077042E0,-2.075883179E0,2.041754150E0,3.235821075E0,4.352997704E0
8.828086042E0,-1.830393677E0,1.936972046E0,3.455863495E0,4.364079996E0
8.838095042E0,-1.933229828E0,1.571881256E0,3.325634308E0,4.155482138E0
8.848100583E0,-1.808838501E0,9.978250122E-1,2.464175720E0,3.215542483E0
8.858109583E0,-1.693578186E0,5.462141418E-1,1.560654602E0,2.366896649E0
8.868118583E0,-1.649719391E0,2.170486450E-1,9.223818970E-1,1.902491142E0
8.878126583E0,-1.713786163E0,-4.550537109E-2,6.617738342E-1,1.837682878E0
8.888135583E0,-1.830243988E0,-3.442840576E-1,6.881190491E-1,1.985404844E0
8.898144583E0,-1.998943176E0,-5.679190063E-1,7.836204529E-1,2.220893251E0
8.908153583E0,-2.079475708E0,-7.590715027E-1,8.644523621E-1,2.376486199E0
8.918162583E0,-1.918710022E0,-8.009843445E-1,9.437873840E-1,2.283365651E0
8.928171583E0,-1.389410706E0,-5.894741821E-1,1.303040314E0,1.993954859E0
8.938180583E0,-4.890330505E-1,-3.189866638E-1,1.973945160E0,2.058486170E0
8.948188583E0,9.909393311E-2,1.649569702E-1,2.421963501E0,2.429596182E0
8.958197583E0,7.460485840E-1,1.216669922E0,2.885699158E0,3.219337481E0
8.968206583E0,1.766626282E0,2.642904053E0,3.297343140E0,4.580216374E0
8.978215583E0,4.209695892E0,4.221221924E0,3.851640472E0,7.097562142E0
8.988224583E0,1.277189072E1,6.668333130E0,5.926475830E0,1.557918403E1
8.998233583E0,2.883483765E1,7.799530792E0,7.979606323E0,3.091851645E1
9.008242583E0,4.911466553E1,3.249143372E0,7.968229980E0,4.986281171E1
9.018251583E0,6.668303192E1,-6.161786499E0,5.653443604E0,6.720532556E1
9.028259583E0,6.444997559E1,-6.738537140E0,1.685195618E0,6.482319893E1
9.038268583E0,4.669629456E1,2.049238586E0,-1.960922241E-1,4.674164905E1
9.048277583E0,3.224953674E1,3.567082214E0,1.437011719E-1,3.244653056E1
9.058286583E0,2.305056610E1,1.329385529E0,9.994715881E-1,2.311049127E1
9.068295583E0,1.678040497E1,-3.314108276E-1,1.136137390E0,1.682208763E1
9.078304583E0,1.144819336E1,-1.276395721E0,-4.903802490E-1,1.152956157E1
9.088313583E0,4.778962097E0,-3.734434204E0,-5.579497375E0,8.241072049E0
9.098321583E0,4.023782501E0,-4.197870483E0,-1.907483368E0,6.119757758E0
9.108330583E0,4.223916321E0,-3.912264404E0,-2.648891602E0,6.337500183E0
9.118339583E0,2.331401825E0,-6.139033813E0,-1.035471725E1,1.226145750E1
9.128348583E0,9.147477722E-1,-5.461542664E0,-8.350235596E0,1.001956318E1
9.138357583E0,6.592291260E-1,-3.115920410E0,-3.184926910E0,4.504142812E0
9.148366583E0,7.098239136E-1,-1.359173584E0,5.909710693E-1,1.643304483E0
9.158375583E0,3.553610229E-1,-2.201921082E-1,3.593876495E0,3.618109214E0
9.168384583E0,-5.688171387E-2,3.929328918E-1,4.938530273E0,4.954463952E0
9.178392583E0,-3.701802063E-1,6.128256226E-1,4.564158783E0,4.619971215E0
9.188401583E0,-7.375163269E-1,7.180567932E-1,3.166814575E0,3.329902468E0
9.198410583E0,-1.079255676E0,6.677613831E-1,2.076032867E0,2.433230475E0
9.208419583E0,-1.231938171E0,4.962181091E-1,1.415755920E0,1.941202951E0
9.218428583E0,-1.340612183E0,2.712359619E-1,8.710386658E-1,1.621578962E0
9.228437583E0,-1.419947205E0,6.526428223E-2,6.004014587E-1,1.543046144E0
9.238446583E0,-1.578018494E0,-3.906875610E-2,6.435118103E-1,1.704633739E0
9.248454583E0,-1.817520447E0,-1.004411316E-1,8.731343079E-1,2.018869118E0
9.258463583E0,-2.091899872E0,-2.276765442E-1,1.081201630E0,2.365772315E0
9.268472583E0,-2.378404083E0,-4.577481079E-1,1.297651520E0,2.747769783E0
9.278481583E0,-2.417772217E0,-6.164181519E-1,1.582060089E0,2.954404840E0
9.288490583E0,-2.093097382E0,-6.944059753E-1,1.780098267E0,2.834079418E0
9.298499583E0,-1.474284210E0,-5.062472534E-1,1.892963562E0,2.452164607E0
9.308508583E0,-8.955876160E-1,-1.832189941E-1,2.233056335E0,2.412920839E0
9.318517583E0,-2.918930054E-2,2.673440552E-1,2.947819977E0,2.960062073E0
9.328525583E0,1.279090118E0,9.653425598E-1,3.816763000E0,4.139521420E0
9.338534583E0,2.403851166E0,1.652413788E0,4.493206329E0,5.357039749E0
9.348543583E0,4.135599976E0,1.648821259E0,5.010680237E0,6.702888567E0
9.358552583E0,9.434431000E0,2.885399780E0,5.731281738E0,1.140971562E1
9.368561583E0,2.129396896E1,4.768034821E0,8.280330963E0,2.333947624E1
9.378570583E0,3.766228088E1,3.796704712E0,8.244255981E0,3.874054884E1
9.388579583E0,5.636379089E1,-1.197509766E-3,3.415896606E0,5.646720530E1
9.398587583E0,6.486386490E1,-4.459825745E0,-2.491718445E0,6.506473450E1
9.408596583E0,5.382357330E1,-3.524271240E0,-4.833299103E0,5.415494725E1
9.418605583E0,3.625505722E1,3.107537842E-1,-2.842139740E0,3.636761609E1
9.428614583E0,2.549213882E1,6.900650024E-1,-8.262817383E-1,2.551485985E1
9.438623583E0,1.829570389E1,-2.745291138E-1,-3.996688843E-2,1.829780709E1
9.448632583E0,9.425599365E0,-9.864486694E-1,-7.588469696E0,1.214083509E1
9.458641583E0,6.119274902E0,-3.260220337E0,-1.674567719E0,7.132933409E0
9.468650583E0,8.647816772E0,-4.612657928E0,2.319875793E0,1.007190011E1
9.478658583E0,7.975564728E0,-4.706363068E0,7.203021240E-1,9.288612448E0
9.488667583E0,6.033652954E0,-4.635260925E0,-2.479144592E0,8.002297778E0
9.498676583E0,3.885170746E0,-4.242178345E0,-5.804030457E0,8.171743900E0
9.508685583E0,2.533331909E0,-2.503244476E0,-3.964206390E0,5.329065188E0
9.518694583E0,1.975591736E0,-9.714797974E-1,-9.672885132E-1,2.404658556E0
9.528703583E0,1.552571411E0,-1.408570862E-1,1.525328064E0,2.181042046E0
9.538712583E0,9.490264893E-1,2.883004761E-1,3.110681305E0,3.264981872E0
9.548720583E0,2.288740540E-1,4.911286926E-1,3.585044861E0,3.625760248E0
9.558729583E0,-3.031196594E-1,5.152285767E-1,2.822979584E0,2.885577194E0
9.568738583E0,-6.731501770E-1,4.270619202E-1,1.709744568E0,1.886462173E0
9.578747583E0,-9.798623657E-1,3.323089600E-1,1.105002136E0,1.513799598E0
9.588756583E0,-1.204245758E0,2.210902405E-1,8.220904541E-1,1.474761491E0
9.598765583E0,-1.310225372E0,1.303788757E-1,6.465055847E-1,1.466853315E0
9.608774583E0,-1.383872223E0,1.588197327E-1,4.052073669E-1,1.450696056E0
9.618783583E0,-1.613943787E0,1.933978271E-1,7.723937988E-2,1.627323934E0
9.628791583E0,-1.832788696E0,8.307723999E-2,-1.026864624E-1,1.837542038E0
9.638800583E0,-2.008972321E0,-4.775070190E-2,-5.996530151E-1,2.097101250E0
9.648809583E0,-2.055974579E0,-2.517764282E-1,-1.135388947E0,2.362103067E0
9.658818583E0,-1.828597412E0,-6.744973755E-1,-1.243314514E0,2.311827456E0
9.668827583E0,-1.071022797E0,-1.236728210E0,-4.454736328E-1,1.695592302E0
9.678836583E0,-3.790118408E-1,-1.376836853E0,9.328601074E-1,1.705742558E0
9.688845583E0,1.326242065E-1,-1.369352417E0,1.862576752E0,2.315579275E0
9.698853583E0,6.014492798E-1,-1.461111603E0,2.780917053E0,3.198450876E0
9.708862583E0,1.207838287E0,-1.815724182E0,3.864513702E0,4.437363383E0
9.718871583E0,2.497705994E0,-2.618355103E0,5.146747284E0,6.291528135E0
9.728880583E0,5.762267303E0,-3.612437897E0,6.643335114E0,9.507225329E0
9.738889583E0,1.549667450E1,-2.855162659E0,9.314829712E0,1.830477880E1
9.748898583E0,3.124692169E1,-6.765930176E-1,1.078177917E1,3.306167956E1
9.758907583E0,4.933111542E1,2.057471466E0,7.488926697E0,4.993872405E1
9.768916583E0,5.849910049E1,1.378034363E0,-1.730551300E0,5.854091343E1
9.778924583E0,5.098188263E1,-3.588038635E0,-6.016887817E0,5.146094943E1
9.788933583E0,3.692251923E1,-1.068627777E0,-3.451971588E0,3.709892854E1
9.798942583E0,2.718826172E1,1.680405579E0,1.481918335E-1,2.724054513E1
9.808951583E0,2.025902115E1,1.841320953E0,2.744243317E0,2.052679401E1
9.818960583E0,1.480092133E1,1.381477203E0,3.731590118E0,1.532646457E1
9.828969583E0,1.050874695E1,9.216334534E-1,3.544329529E0,1.112858672E1
9.838978583E0,6.930737457E0,8.440946960E-1,2.912792816E0,7.565182056E0
9.848991583E0,3.373385010E0,1.577569427E0,2.420915680E0,4.441765916E0
9.858999583E0,2.484982452E0,1.357377319E0,2.101180573E0,3.525985079E0
9.869008583E0,3.165766754E0,5.519023132E-1,1.558558960E0,3.571523672E0
9.879017583E0,3.158581696E0,3.089575195E-1,8.699908447E-1,3.290741124E0
9.889026583E0,2.776127014E0,4.953199768E-1,1.821711731E-1,2.825846672E0
9.899035583E0,2.120490417E0,8.089178467E-1,-7.092251587E-1,2.377777958E0
9.909044583E0,8.208929443E-1,1.239572296E0,-3.379372559E0,3.691959316E0
9.919053583E0,-6.825805664E-2,1.174457703E0,-3.834126892E0,4.010553463E0
9.929061583E0,-3.872447205E-1,1.032253418E0,-2.460882568E0,2.696562369E0
9.939070583E0,-7.482939148E-1,1.018931122E0,-8.833131409E-1,1.542208325E0
9.949079583E0,-1.138682098E0,1.075962524E0,2.348616028E-1,1.584125073E0
9.959088583E0,-1.349443817E0,1.058748322E0,5.351371765E-1,1.796752187E0
9.969097583E0,-1.397344208E0,9.455836487E-1,2.996768188E-1,1.713623491E0
9.979106583E0,-1.443747711E0,7.487429810E-1,-2.905458069E-1,1.652101804E0
9.989115583E0,-1.506916351E0,4.984634399E-1,-1.169667664E0,1.971645286E0
9.999124583E0,-1.675166473E0,5.119354248E-2,-1.928589478E0,2.555046157E0
1.000913258E1,-1.354982300E0,-6.372248840E-1,-1.487606506E0,2.110688443E0
1.001914158E1,-6.703060913E-1,-1.085392914E0,3.312611389E-1,1.317999232E0
1.002915058E1,-8.981323242E-3,-1.199455719E0,2.558329926E0,2.825566615E0
1.003915958E1,5.776487732E-1,-1.305585022E0,3.922143860E0,4.173900192E0
1.004916858E1,1.318607941E0,-1.416803741E0,4.562212830E0,4.955789104E0
1.005917758E1,2.252815247E0,-1.323847046E0,5.294490051E0,5.904182622E0
1.006918658E1,3.891008606E0,-9.086105347E-1,6.433920593E0,7.573694955E0
1.007919558E1,7.065756683E0,-6.227050781E-2,8.216413879E0,1.083689310E1
1.008920358E1,1.325089462E1,1.389261017E0,1.013392639E1,1.673955551E1
1.009921258E1,2.388642792E1,3.274291077E0,1.092518097E1,2.646964299E1
1.010922158E1,3.801868973E1,4.039050751E0,9.112001495E0,3.930347657E1
1.011923058E1,5.114998306E1,2.869832153E0,3.587888947E0,5.135591155E1
1.012923958E1,5.520834366E1,-1.095571747E0,-3.996988220E0,5.536368306E1
1.013924858E1,4.500256668E1,-4.303550720E0,-6.097420349E0,4.561721267E1
1.014925758E1,3.083542740E1,-2.551144867E0,-3.069367218E0,3.109265087E1
1.015926658E1,2.254596542E1,-1.416803741E0,-2.031275940E-1,2.259135123E1
1.016927458E1,1.643926437E1,-1.403780823E0,-2.592608643E-1,1.650112814E1
1.017928358E1,9.819580078E0,-2.204465790E0,-7.003935242E-1,1.008832857E1
1.018929258E1,8.750652924E0,-3.777245178E0,3.568878479E0,1.017734746E1
1.019930158E1,9.353299713E0,-4.256249084E0,3.084336090E0,1.072907270E1
1.020931058E1,8.325087891E0,-3.739373932E0,1.549727325E0,9.256979020E0
1.021931958E1,6.774312744E0,-2.869233398E0,2.230361938E-1,7.360268921E0
1.022932858E1,5.268294525E0,-2.073488159E0,-1.296903076E0,5.808290449E0
1.023933758E1,3.055446167E0,-1.632804565E0,-4.814288635E0,5.931203680E0
1.024934558E1,9.336085510E-1,-1.095122681E0,-6.217620392E0,6.381984170E0
1.025935458E1,-4.999603271E-2,-3.817062378E-1,-3.804189148E0,3.823617963E0
1.026936358E1,-5.652246094E-1,1.669029236E-1,-1.118174744E0,1.263981884E0
1.027937258E1,-1.093027039E0,5.144801331E-1,9.184899902E-1,1.517571012E0
1.028938158E1,-1.247655487E0,6.962022400E-1,1.665586395E0,2.194429268E0
1.029939058E1,-1.393452301E0,8.123606873E-1,1.830842743E0,2.440004990E0
1.030939958E1,-1.717079315E0,8.286767578E-1,1.812431030E0,2.630584114E0
1.031940758E1,-1.908231812E0,7.900570679E-1,1.537901917E0,2.575010897E0
1.032941658E1,-2.170187073E0,9.226812744E-1,1.230141907E0,2.659755962E0
1.033942558E1,-2.433938599E0,8.205935669E-1,6.592291260E-1,2.651794476E0
1.034943458E1,-2.579136658E0,7.426057434E-1,-5.628295898E-2,2.684506838E0
1.035944358E1,-2.771037598E0,6.533912659E-1,-5.334906006E-1,2.896581042E0
1.036945258E1,-2.960842896E0,4.324507141E-1,-5.351371765E-1,3.039732894E0
1.037946158E1,-2.952610016E0,2.730322266E-1,-2.064207458E-1,2.972383223E0
1.038947058E1,-2.126028900E0,-1.047821045E-3,3.498225403E-1,2.154617319E0
1.039947858E1,-1.235979767E0,-2.716850281E-1,1.161285095E0,1.717568575E0
1.040948758E1,-7.542814636E-1,-3.553610229E-1,2.201322327E0,2.353941794E0
1.041949658E1,-2.276765442E-1,-4.198768616E-1,3.607947235E0,3.639425290E0
1.042950558E1,2.293231201E-1,-4.317022705E-1,5.253924408E0,5.276616115E0
1.043951458E1,9.415420532E-1,-3.222798157E-1,6.890471191E0,6.961965165E0
1.044952358E1,4.020788727E0,8.443940735E-1,8.069269867E0,9.054990863E0
1.045953258E1,1.291454407E1,2.684068451E0,1.114672028E1,1.726959886E1
1.046954158E1,2.893497940E1,2.486928406E0,1.153875504E1,3.124997142E1
1.047954958E1,5.341402496E1,-4.803511047E-1,6.641688538E0,5.382750994E1
1.048955858E1,7.177708878E1,-5.694158936E0,-4.420307922E0,7.213815247E1
1.049956758E1,6.463154800E1,-6.199807434E0,-1.122156464E1,6.589080454E1
1.050957658E1,4.317890900E1,-7.502398682E-1,-6.574478302E0,4.368300364E1
1.051958558E1,2.709425720E1,1.486408997E-1,-4.068838806E0,2.739847289E1
1.052959458E1,1.640229126E1,-1.141975250E0,-1.460812225E0,1.650676341E1
1.053960358E1,1.081560883E1,-2.610571289E0,6.209387512E0,1.274162352E1
1.054961258E1,1.028975235E1,-3.672612762E0,7.334447937E0,1.315907347E1
1.055962058E1,8.452772369E0,-3.297492828E0,4.882097626E0,1.030328573E1
1.056962958E1,6.066135406E0,-2.437082062E0,3.104244690E0,7.236967793E0
1.057963858E1,4.050576782E0,-1.619482269E0,1.837578735E0,4.733560045E0
1.058964758E1,2.547702026E0,-9.457333374E-1,9.415420532E-1,2.876056084E0
1.059965658E1,1.433419189E0,-4.150868225E-1,2.549198914E-1,1.513925954E0
1.060966558E1,5.429209900E-1,-1.901046753E-2,-2.851570129E-1,6.135463481E-1
1.061967458E1,-7.411088562E-1,-9.535171509E-2,-2.176923065E0,2.301592561E0
1.062968358E1,-2.240989838E0,-3.323089600E-1,-4.692741394E0,5.210977498E0
1.063969158E1,-2.654579773E0,3.278182983E-2,-4.478536835E0,5.206261672E0
1.064970058E1,-2.492915955E0,4.052073669E-1,-3.107986908E0,4.004797821E0
1.065970958E1,-2.301464081E0,6.114784241E-1,-1.630259857E0,2.885895005E0
1.066971858E1,-2.427052917E0,8.442443848E-1,-2.369572449E-1,2.580597447E0
1.067972758E1,-2.682870941E0,9.859996033E-1,7.423063660E-1,2.953135697E0
1.068973658E1,-2.742447052E0,9.975256348E-1,7.996371460E-1,3.025804486E0
1.069974558E1,-2.834056549E0,9.624984741E-1,5.713618469E-1,3.047086181E0
1.070975358E1,-3.207978973E0,8.940907288E-1,5.728587341E-1,3.379155879E0
1.071976258E1,-3.688030701E0,7.768844604E-1,9.136999512E-1,3.878139698E0
1.072977158E1,-3.813469849E0,6.456074524E-1,7.780819702E-1,3.945221517E0
1.073978058E1,-3.468137970E0,2.644999695E-1,3.656895447E-1,3.497380456E0
1.074978958E1,-2.617906036E0,-2.743794250E-1,2.877017212E-1,2.647921518E0
1.075979858E1,-1.574875031E0,-4.918771362E-1,5.957611084E-1,1.754168115E0
1.076980758E1,-8.792715454E-1,-5.222639465E-1,1.099463654E0,1.501565319E0
1.077981658E1,-3.001258850E-1,-5.381309509E-1,1.736987915E0,1.843037570E0
1.078982458E1,1.245410156E-1,-1.841171265E-1,2.427951050E0,2.438104977E0
1.079983358E1,4.514611816E-1,1.698966980E-1,3.683839417E0,3.715286656E0
1.080984258E1,1.181792450E0,6.349795532E-1,5.634732513E0,5.792239888E0
1.081985158E1,4.957540741E0,4.179159393E0,8.144413605E0,1.041028609E1
1.082986058E1,1.667023407E1,1.219903198E1,1.267818558E1,2.423735701E1
1.083986958E1,4.154161377E1,1.615290985E1,1.614737137E1,4.740632630E1
1.084987467E1,7.092356369E1,4.572691040E0,7.757917328E0,7.149298337E1
1.085988367E1,7.875213409E1,-1.416878586E1,-4.703818359E0,8.015471929E1
1.086989167E1,6.293497604E1,-8.986712036E0,-7.723039856E0,6.404074912E1
1.087990067E1,3.825908981E1,3.283272400E0,-4.385280762E0,3.864930165E1
1.088990967E1,2.412817520E1,4.008813629E0,-3.188519440E0,2.466588903E1
1.089991867E1,1.257804382E1,2.143841858E0,-1.022269180E1,1.634951596E1
1.090992767E1,7.667056274E0,-1.789828033E0,1.510359192E0,8.016758771E0
1.091993667E1,8.677006073E0,-4.239933014E0,7.577392731E0,1.227535527E1
1.092994567E1,7.397616577E0,-4.424349518E0,5.420378265E0,1.018234257E1
1.093995467E1,5.582491150E0,-4.004921722E0,3.431763611E0,7.679883262E0
1.094996267E1,4.148024139E0,-3.176843719E0,1.854194183E0,5.544048733E0
1.095997167E1,2.537373505E0,-1.558558960E0,-2.534978485E0,3.910688719E0
1.096998067E1,4.385879517E-2,4.947212219E-1,-1.002046234E1,1.003276324E1
1.097998967E1,-1.657503204E0,5.595364380E-1,-7.268734589E0,7.476289214E0
1.098999867E1,-2.062111816E0,3.037184143E-1,-2.841690674E0,3.524167406E0
1.100000767E1,-2.193987579E0,4.291575623E-1,5.075944519E-1,2.292468067E0
1.101001667E1,-2.295027466E0,4.875361633E-1,2.244432678E0,3.246893997E0
1.102002467E1,-2.040856018E0,4.590953064E-1,2.380799103E0,3.169237472E0
1.103003367E1,-1.437460785E0,3.406915283E-1,1.700314178E0,2.252428141E0
1.104004267E1,-1.259630585E0,3.128494263E-1,1.177301788E0,1.752308042E0
1.105005167E1,-1.229243774E0,2.972817993E-1,8.928932190E-1,1.548119836E0
1.106006067E1,-1.282832336E0,2.041754150E-1,6.575825500E-1,1.455939976E0
1.107006967E1,-1.491199036E0,2.888992310E-2,6.466552734E-1,1.625629796E0
1.108007867E1,-1.888772278E0,-1.513352966E-1,7.896080017E-1,2.052764937E0
1.109008767E1,-2.224224701E0,-3.592529297E-1,8.066725159E-1,2.393106503E0
1.110009567E1,-2.224823456E0,-4.095483398E-1,7.982899475E-1,2.398923945E0
1.111010467E1,-1.971400452E0,-3.152444458E-1,9.419911194E-1,2.207520344E0
1.112011367E1,-1.569635925E0,-8.786727905E-2,1.057999878E0,1.894951540E0
1.113012267E1,-1.104852448E0,9.385482788E-2,1.319356384E0,1.723429409E0
1.114013167E1,-4.938230896E-1,5.613327026E-2,1.755549316E0,1.824545311E0
1.115014067E1,1.576222229E-1,5.119354248E-2,2.463427277E0,2.468995644E0
1.116014967E1,5.845344543E-1,2.032772827E-1,3.232677612E0,3.291383710E0
1.117015867E1,1.236877899E0,2.826123047E-1,3.789819031E0,3.996556635E0
1.118016667E1,3.332370300E0,2.881507874E-1,4.224664764E0,5.388461289E0
1.119017567E1,1.084419937E1,2.390528870E-1,6.516698456E0,1.265389920E1
1.120018467E1,2.595512604E1,-6.584806824E-1,8.903335419E0,2.744761458E1
1.121019367E1,5.075824768E1,-1.697470093E0,7.095095673E0,5.127983517E1
1.122020267E1,7.326304871E1,-1.607207794E0,-2.993774414E-1,7.328128717E1
1.123021167E1,6.706668411E1,3.866459656E-1,-6.625372467E0,6.739425178E1
1.124022067E1,4.413706650E1,-6.162684631E-1,-4.279750214E0,4.434835609E1
1.125022867E1,2.851136032E1,-1.041683807E0,-1.148112488E0,2.855347500E1
1.126023767E1,1.958467346E1,-1.315015411E0,5.646258545E-1,1.963689137E1
1.127024667E1,1.310854065E1,-1.588197327E0,1.152902527E0,1.325463666E1
1.128025567E1,6.766977997E0,-1.302740936E0,-5.363346863E-1,6.912074946E0
1.129026467E1,3.890409851E-1,-1.118324432E0,-1.154848480E0,1.653988342E0
1.130027367E1,1.032103729E0,-1.745370483E0,8.517288208E-2,2.029485317E0
1.131028267E1,1.711241455E0,-1.961670685E0,-1.518442383E0,3.013663296E0
1.132029167E1,-4.634362793E-1,-2.722837830E0,-7.741750946E0,8.219691402E0
1.133029967E1,-2.435285797E0,-2.457589417E0,-9.105415192E0,9.740582553E0
1.134030867E1,-2.839295654E0,-1.312919769E0,-6.497388611E0,7.211200794E0
1.135031767E1,-2.961890717E0,-3.944297791E-1,-3.364553375E0,4.499843429E0
1.136032667E1,-3.252735901E0,4.974156189E-1,2.501298523E-1,3.300042133E0
1.137033567E1,-3.317850494E0,1.211730194E0,2.312241669E0,4.221715706E0
1.138034467E1,-2.990630951E0,1.558708649E0,2.714155884E0,4.328982363E0
1.139035367E1,-2.345173187E0,1.473835144E0,2.088457031E0,3.468959510E0
1.140036267E1,-2.097588043E0,1.288370819E0,1.265318756E0,2.767816201E0
1.141037067E1,-1.992656250E0,9.918374634E-1,4.436773682E-1,2.269640961E0
1.142037967E1,-1.856140137E0,5.354365540E-1,-3.345542908E-1,1.960580293E0
1.143038867E1,-1.724563751E0,2.080673218E-2,-8.128097534E-1,1.906623389E0
1.144039767E1,-1.410217438E0,-4.375401306E-1,-4.939727783E-1,1.556972605E0
1.145040667E1,-9.539662170E-1,-6.520440674E-1,3.001258850E-1,1.193854495E0
1.146041567E1,-5.056484985E-1,-8.027806091E-1,8.487350464E-1,1.272984010E0
1.147042467E1,-7.514373779E-2,-1.058598633E0,1.258582764E0,1.646301376E0
1.148043267E1,5.513035583E-1,-1.078507233E0,2.205214233E0,2.515965675E0
1.149044167E1,1.618434448E0,-7.881111145E-1,3.588487701E0,4.014684692E0
1.150045067E1,3.459156647E0,-4.372407532E-1,5.624703369E0,6.617721071E0
1.151045967E1,7.153324585E0,8.607101440E-2,8.518934784E0,1.112428473E1
1.152046867E1,1.477337860E1,9.297166443E-1,1.112875763E1,1.851935028E1
1.153047767E1,2.875520325E1,1.889969788E0,1.181133820E1,3.114388238E1
1.154048667E1,4.882217377E1,1.695524139E0,8.385562134E0,4.956608826E1
1.155049567E1,6.551950150E1,-1.157093811E0,-1.579216003E0,6.554874419E1
1.156050367E1,6.092824905E1,-3.653901672E0,-1.004905289E1,6.185940506E1
1.157051267E1,3.791675171E1,-1.329086151E0,-5.849535828E0,3.838832634E1
1.158052167E1,2.440060867E1,-2.294728088E-1,-6.825805664E-1,2.441123261E1
1.159053067E1,1.715762054E1,-5.319937134E-1,2.366578674E0,1.732823288E1
1.160053967E1,1.207344315E1,-9.244775391E-1,3.776197357E0,1.268394081E1
1.161054867E1,7.159312134E0,-7.875123596E-1,4.256997528E0,8.366477987E0
1.162055767E1,3.333418121E0,-9.033714294E-1,4.416865082E0,5.606822047E0
1.163056667E1,3.824546814E0,-1.545685730E0,2.663411407E0,4.910199898E0
1.164057467E1,3.737427979E0,-1.698218536E0,9.062155151E-1,4.203991038E0
1.165058367E1,2.798430634E0,-1.500180359E0,-3.085084534E-1,3.190130497E0
1.166059267E1,1.229543152E0,-1.599873047E0,-3.713328094E0,4.226130105E0
1.167060167E1,-1.257534943E0,-1.644031219E0,-8.718918915E0,8.961237628E0
1.168061067E1,-2.246528320E0,-6.047424316E-1,-7.474406891E0,7.828113519E0
1.169061967E1,-2.233505402E0,2.124082947E-1,-4.350852356E0,4.895260962E0
1.170062867E1,-2.372865601E0,9.331594849E-1,-4.144880676E-1,2.583230176E0
1.171063667E1,-2.406395874E0,1.535057831E0,2.408491516E0,3.734698787E0
1.172064567E1,-2.153122559E0,1.786684570E0,3.320245514E0,4.341913032E0
1.173065467E1,-2.004182281E0,1.787283325E0,2.894081726E0,3.948016887E0
1.174066367E1,-1.771116943E0,1.562899933E0,1.763183441E0,2.947596864E0
1.175067267E1,-1.556762695E0,1.268013153E0,6.423143005E-1,2.108064303E0
1.176068167E1,-1.542093201E0,9.063652039E-1,-9.116043091E-2,1.791049845E0
1.177069067E1,-1.398691406E0,3.752696228E-1,-3.385958862E-1,1.487216230E0
1.178069867E1,-1.036893768E0,-1.565744019E-1,-2.080673218E-2,1.048855162E0
1.179070767E1,-5.849835205E-1,-4.734654236E-1,6.764433289E-1,1.011904543E0
1.180071667E1,-1.770817566E-1,-7.427554321E-1,1.185983734E0,1.410532168E0
1.181072567E1,2.980302429E-1,-1.016536102E0,1.441053314E0,1.788519591E0
1.182073467E1,1.039438477E0,-1.069076843E0,1.935475159E0,2.443240007E0
1.183074367E1,2.140099640E0,-8.488847351E-1,2.839744720E0,3.655787445E0
1.184075267E1,3.661236420E0,-4.318519592E-1,4.002826080E0,5.441853073E0
1.185076167E1,5.926775208E0,-2.544708252E-3,5.579946442E0,8.140176480E0
1.186076967E1,1.004650818E1,5.266049194E-1,7.708220673E0,1.267384335E1
1.187077867E1,1.864971771E1,1.326242065E0,9.645641785E0,2.103828164E1
1.188078767E1,3.568174942E1,1.748064880E0,1.017194733E1,3.714446776E1
1.189079667E1,5.888230362E1,1.499581604E0,4.668791199E0,5.908614081E1
1.190080567E1,7.199907715E1,6.090834045E-1,-5.452411652E0,7.220780350E1
1.191081467E1,5.484939011E1,-9.889933777E-1,-6.004763031E0,5.518596635E1
1.192082367E1,3.198847961E1,-1.447489929E0,-2.204465790E0,3.209700492E1
1.193083167E1,2.137809402E1,-1.753753052E0,-5.393284607E-1,2.145668728E1
1.194084067E1,1.478774872E1,-2.101629639E0,4.287084961E-1,1.494249478E1
1.195084967E1,7.776628418E0,-2.109563141E0,-3.198249207E0,8.669198589E0
1.196085867E1,2.333497467E0,-2.692451019E0,-1.910477142E0,4.042823992E0
1.197086767E1,4.158053284E0,-3.516337738E0,1.318907318E0,5.602995155E0
1.198087667E1,4.833748169E0,-3.437900848E0,9.280700684E-2,5.932360133E0
1.199088567E1,4.081712036E0,-3.122656403E0,-1.361867981E0,5.316581660E0
1.200089467E1,1.883832550E0,-3.329526215E0,-5.685027924E0,6.852307085E0
1.201090267E1,-2.034269714E-1,-2.534080353E0,-6.964267731E0,7.413769000E0
1.202091167E1,-1.052611084E0,-9.279203796E-1,-4.558320923E0,4.769414635E0
1.203092067E1,-1.392105103E0,2.338137817E-1,-1.469344482E0,2.037547229E0
1.204092967E1,-1.543739777E0,9.882449341E-1,1.435963898E0,2.328465775E0
1.205093867E1,-1.744322662E0,1.513352966E0,2.994822235E0,3.781779868E0
1.206094767E1,-1.682052155E0,1.579515381E0,3.435206451E0,4.138213582E0
1.207095667E1,-1.550625458E0,1.475182343E0,3.228636017E0,3.873589135E0
1.208096467E1,-1.420845337E0,1.195264435E0,2.518812103E0,3.129196854E0
1.209097367E1,-1.283580780E0,8.704399109E-1,1.784139862E0,2.363979760E0
1.210098267E1,-1.259031830E0,6.369255066E-1,1.320404205E0,1.932434349E0
1.211099167E1,-1.239272919E0,4.709207153E-1,1.009051666E0,1.666057908E0
1.212100067E1,-1.167422333E0,3.409909058E-1,8.226892090E-1,1.468321230E0
1.213100967E1,-1.100810852E0,2.165995789E-1,6.911128235E-1,1.317701349E0
1.214101867E1,-1.057101746E0,1.074765015E-1,6.560856628E-1,1.248784888E0
1.215102667E1,-9.915380859E-1,1.091230774E-1,7.551795959E-1,1.251140218E0
1.216103567E1,-8.728349304E-1,4.311035156E-2,9.237290955E-1,1.271603224E0
1.217104467E1,-4.242178345E-1,7.020401001E-2,1.185983734E0,1.261525581E0
1.218105367E1,1.986369324E-1,2.704875183E-1,1.604812775E0,1.639525593E0
1.219106267E1,7.914042664E-1,9.163943481E-1,1.933229828E0,2.281113080E0
1.220107167E1,1.879491577E0,1.887874146E0,2.568658447E0,3.700616651E0
1.221108067E1,4.080514526E0,2.700085144E0,3.612737274E0,6.082181286E0
1.222108967E1,8.455317078E0,2.740351410E0,5.499862976E0,1.045229188E1
1.223109767E1,1.615141296E1,1.704206085E0,7.871381378E0,1.804802216E1
1.224110667E1,2.793475937E1,-4.869374084E-1,1.030127838E1,2.977757924E1
1.225111567E1,4.244393738E1,-2.972668304E0,1.131721573E1,4.402730913E1
1.226112467E1,5.406936218E1,-3.256328430E0,8.546028442E0,5.483734315E1
1.227113367E1,5.493456299E1,4.583468628E-1,2.669099579E0,5.500127621E1
1.228114267E1,4.444422775E1,3.427572327E0,-5.429209900E-1,4.457950646E1
1.229115167E1,3.293032104E1,1.356628876E0,-4.013154602E-1,3.296069690E1
1.230115967E1,2.579555786E1,-8.794212341E-1,1.311273193E-1,2.581087719E1
1.231116867E1,2.055585388E1,-1.850601654E0,5.932164001E-1,2.064751222E1
1.232117767E1,1.654299866E1,-2.107168121E0,7.967930603E-1,1.669568331E1
1.233118667E1,1.351898712E1,-2.237397308E0,5.987548828E-2,1.370301224E1
1.234119567E1,9.538314972E0,-3.418890381E0,-4.147874451E0,1.094865866E1
1.235120467E1,8.866811371E0,-4.651127930E0,-4.522096252E-1,1.002286528E1
1.236121367E1,1.094823303E1,-3.739373932E0,2.841091919E-1,1.157270245E1
1.237122167E1,1.081426163E1,-2.565365295E0,-6.476132812E0,1.286350068E1
1.238123067E1,8.280031586E0,-1.885030060E0,-7.658074951E0,1.143496276E1
1.239123967E1,5.605842590E0,-9.175918579E-1,-6.261479187E-1,5.714849708E0
1.240124867E1,4.141288147E0,1.432521057E-1,3.380719757E0,5.347901902E0
1.241125767E1,3.302881622E0,5.209167480E-1,5.271138611E0,6.242217837E0
1.242126667E1,2.597398682E0,4.403842163E-1,5.075046387E0,5.718086568E0
1.243127567E1,1.536854095E0,2.433938599E-1,3.860472107E0,4.162259719E0
1.244128367E1,4.504133606E-1,6.092330933E-2,2.750380554E0,2.787683095E0
1.245129267E1,-3.592529297E-1,1.216969299E-1,1.947300568E0,1.983898261E0
1.246130167E1,-8.291258240E-1,2.088157654E-1,1.331481171E0,1.582370299E0
1.247131067E1,-9.993218994E-1,1.504371643E-1,8.840615845E-1,1.342698955E0
1.248131967E1,-1.122815094E0,4.969665527E-2,6.535409546E-1,1.300115100E0
1.249132867E1,-1.212478638E0,-6.765930176E-2,7.662565613E-1,1.435907847E0
1.250133767E1,-1.481319580E0,5.748046875E-2,9.478289795E-1,1.759542974E0
1.251134667E1,-1.821262665E0,4.287084961E-1,9.824070740E-1,2.113270529E0
1.252135467E1,-2.077679443E0,9.472302246E-1,7.444020081E-1,2.401693427E0
1.253136367E1,-2.326013031E0,1.513502655E0,2.055226135E-1,2.782672538E0
1.254137267E1,-2.669099579E0,1.955533447E0,-8.885522461E-1,3.426036882E0
1.255138167E1,-3.165018311E0,2.209405518E0,-1.738185425E0,4.233214171E0
1.256139067E1,-3.295397186E0,1.778451691E0,-7.461982727E-1,3.818290834E0
1.257139967E1,-2.941533051E0,1.246008911E0,6.342311096E-1,3.256900980E0
1.258140867E1,-2.342179413E0,8.794212341E-1,1.165027313E0,2.759796143E0
1.259141667E1,-1.472038879E0,3.742218018E-1,1.437760162E0,2.091433648E0
1.260142567E1,-7.036866760E-1,8.397537231E-2,1.665287018E0,1.809808734E0
1.261143467E1,-8.337661743E-2,2.260299683E-2,2.041005707E0,2.042833045E0
1.262144367E1,5.703140259E-1,-1.781295776E-2,2.877765656E0,2.933787749E0
1.263145267E1,1.613644409E0,-3.463796997E-1,4.275858307E0,4.583316641E0
1.264146167E1,4.816533966E0,-9.680369568E-1,5.675896912E0,7.506790309E0
1.265147067E1,1.492231888E1,3.027454376E0,7.351213074E0,1.690802810E1
1.266147867E1,3.493061142E1,9.060059509E0,9.043893127E0,3.720247701E1
1.267148767E1,6.119723969E1,7.818690948E0,4.866979065E0,6.188636004E1
1.268149667E1,7.433616714E1,-7.067702637E0,-2.472857666E0,7.471233627E1
1.269150567E1,6.271852615E1,-1.394230682E1,-4.495002594E0,6.440657180E1
1.270151467E1,4.282923615E1,-3.483406219E0,-2.526146851E0,4.304484877E1
1.271152367E1,2.820345062E1,1.654060364E0,7.183561707E-1,2.826104347E1
1.272153267E1,1.855346786E1,1.937421112E0,2.176473999E0,1.878088947E1
1.273154067E1,1.191941345E1,1.180445251E0,2.460433502E0,1.222782078E1
1.274154967E1,7.256609802E0,4.547543335E-1,2.402503967E0,7.657493888E0
1.275155867E1,9.756710815E-1,1.095122681E0,4.056564331E0,4.313576465E0
1.276156767E1,-2.027982788E0,5.593867493E-1,-9.157955933E-1,2.294408266E0
1.277157667E1,-1.397044830E0,-1.647623749E0,-1.038734940E1,1.060959121E1
1.278158567E1,-1.062789917E-1,-2.418370972E0,-8.942553864E0,9.264398684E0
1.279159467E1,7.451504517E-1,-2.079475708E0,-4.277654572E0,4.814332461E0
1.280160267E1,1.473236389E0,-1.700912933E0,3.308120728E-1,2.274415726E0
1.281161167E1,1.617686005E0,-1.109941864E0,3.473077698E0,3.988877993E0
1.282162067E1,1.087787933E0,-4.430786133E-1,4.053570557E0,4.220312252E0
1.283162967E1,3.989204407E-1,6.885681152E-2,3.481011200E0,3.504471109E0
1.284163867E1,-1.441502380E-1,4.550537109E-1,2.846630402E0,2.886374510E0
1.285164767E1,-4.866380310E-1,7.572752380E-1,2.286794586E0,2.457582519E0
1.286165704E1,-7.448510742E-1,8.807684326E-1,1.741628265E0,2.088977063E0
1.287166504E1,-8.816665649E-1,8.807684326E-1,1.304088135E0,1.803811195E0
1.288167404E1,-9.009764099E-1,9.550140381E-1,1.029409332E0,1.668380615E0
1.289168304E1,-9.734257507E-1,9.771679688E-1,9.201365662E-1,1.658030830E0
1.290169204E1,-1.103056183E0,8.336164856E-1,9.759704590E-1,1.692385218E0
1.291170104E1,-1.176403656E0,8.211923218E-1,1.139879608E0,1.832377666E0
1.292171004E1,-1.177152100E0,9.125024414E-1,1.123862915E0,1.865855199E0
1.293171904E1,-1.101708984E0,1.022823029E0,1.015188904E0,1.813984053E0
1.294172704E1,-9.877958679E-1,1.098864899E0,1.123264160E0,1.856062261E0
1.295173604E1,-7.767347717E-1,1.175655212E0,1.484013977E0,2.046406501E0
1.296174504E1,-2.019300842E-1,1.227148132E0,2.143093414E0,2.477805013E0
1.297175404E1,5.089416504E-1,1.366658020E0,3.021766205E0,3.355271486E0
1.298176304E1,1.484463043E0,1.727258148E0,4.134851532E0,4.720598313E0
1.299177204E1,2.966830444E0,2.265688477E0,5.165158997E0,6.372934537E0
1.300178104E1,6.271358643E0,3.107238464E0,6.434219971E0,9.507052999E0
1.301178904E1,1.438224197E1,4.176764374E0,8.401878204E0,1.717223929E1
1.302179804E1,3.035687256E1,3.960613861E0,9.581125946E0,3.207840626E1
1.303180704E1,5.201578262E1,1.012644196E0,6.182144165E0,5.239165961E1
1.304181604E1,6.728283463E1,-5.589676208E0,-1.623972931E0,6.753415139E1
1.305182504E1,6.089516785E1,-9.001082153E0,-6.296805725E0,6.187803091E1
1.306183404E1,4.116589508E1,-4.110152893E0,-4.683460693E0,4.163483011E1
1.307184304E1,2.806349167E1,-8.684939575E-1,-1.487606506E0,2.811630878E1
1.308185104E1,2.027668442E1,-5.730084229E-1,-4.921765137E-1,2.029074930E1
1.309186004E1,1.069121750E1,-1.803449707E0,-1.497485962E1,1.848786042E1
1.310186904E1,5.495971069E0,-4.644391937E0,-6.135890350E0,9.456491149E0
1.311187804E1,8.053552551E0,-5.718707886E0,2.129771118E0,1.010441753E1
1.312188704E1,8.763975220E0,-5.243296509E0,1.331331482E0,1.029911955E1
1.313189604E1,7.047794037E0,-4.326602783E0,-1.605860596E0,8.424350461E0
1.314190504E1,3.342399445E0,-4.421355743E0,-7.537575531E0,9.356017611E0
1.315191304E1,6.637197876E-1,-3.038082275E0,-7.358248444E0,7.988384569E0
1.316192204E1,-2.320175171E-1,-1.095122681E0,-3.795058136E0,3.956714808E0
1.317193104E1,-8.328680420E-1,1.868115234E-1,1.534309387E-1,8.672420502E-1
1.318194004E1,-1.394051056E0,9.976753235E-1,3.159779205E0,3.594848957E0
1.319194904E1,-1.586850128E0,1.378333740E0,3.816014557E0,4.356588611E0
1.320195804E1,-1.253792725E0,1.211879883E0,2.965333557E0,3.440036650E0
1.321196704E1,-1.257684631E0,9.476792908E-1,2.107617188E0,2.630953606E0
1.322197504E1,-1.591490479E0,8.077203369E-1,1.796713715E0,2.532475915E0
1.323198404E1,-1.771566010E0,6.505471802E-1,1.348395996E0,2.319445952E0
1.324199304E1,-1.978585510E0,4.884342957E-1,9.154962158E-1,2.234166960E0
1.325200204E1,-2.307451630E0,3.600013733E-1,3.803590393E-1,2.366137572E0
1.326201104E1,-2.625839539E0,2.222877502E-1,3.044668579E-1,2.652761805E0
1.327202004E1,-3.093317413E0,2.818638611E-1,3.561094666E-1,3.126479459E0
1.328202904E1,-3.427871704E0,3.436853027E-1,-4.041595459E-3,3.445060281E0
1.329203704E1,-3.234324188E0,4.005670166E-1,-9.654922485E-2,3.260464483E0
1.330204604E1,-2.668800201E0,3.408412170E-1,1.511856079E-1,2.694721570E0
1.331205504E1,-1.942360840E0,3.921844482E-2,1.254241791E0,2.312450256E0
1.332206404E1,-9.400451660E-1,1.784289551E-1,2.632126465E0,2.800644842E0
1.333207304E1,1.212478638E-2,6.499484253E-1,3.594774628E0,3.653078782E0
1.334208204E1,8.797206116E-1,1.252894592E0,5.035079498E0,5.262668408E0
1.335209004E1,2.070195007E0,2.360142059E0,7.135062561E0,7.795196961E0
1.336209904E1,4.516707458E0,4.530179443E0,8.839568024E0,1.091151387E1
1.337210804E1,1.257011032E1,8.940009155E0,1.047446823E1,1.864526540E1
1.338211704E1,3.229848495E1,1.126153152E1,1.272758286E1,3.649665174E1
1.339212604E1,5.888529739E1,6.580765228E0,7.651937714E0,5.974392748E1
1.340213504E1,7.786103714E1,-6.016139374E0,-3.281176758E0,7.816201864E1
1.341214404E1,6.631509705E1,-9.247170410E0,-9.671687622E0,6.765163559E1
1.342215304E1,4.391672470E1,-4.023632813E-1,-7.648195496E0,4.457954126E1
1.343216104E1,2.753598862E1,1.947001190E0,-3.658841400E0,2.784615958E1
1.344217004E1,1.654389679E1,1.132095795E0,-7.197482758E0,1.807722102E1
1.345217904E1,5.160518646E0,-2.093396759E0,-9.308991852E0,1.084760766E1
1.346218804E1,6.531218262E0,-4.681664429E0,1.652862854E0,8.204069077E0
1.347219704E1,6.865024109E0,-4.783153381E0,1.941313019E0,8.589284517E0
1.348220604E1,4.599485321E0,-5.303770752E0,-2.913391571E0,7.600861784E0
1.349221404E1,7.861651611E-1,-7.239694977E0,-1.133413055E1,1.347196179E1
1.350222304E1,-1.809437256E0,-5.620661774E0,-8.642727356E0,1.046721730E1
1.351223204E1,-2.483784943E0,-2.639610901E0,-3.400927734E0,4.970215569E0
1.352224104E1,-2.950813751E0,-9.069639587E-1,-1.781295776E-1,3.092186211E0
1.353225004E1,-3.202141113E0,5.583389282E-2,2.368225250E0,3.983128917E0
1.354225904E1,-2.804717560E0,6.231541443E-1,2.943029938E0,4.112929235E0
1.355226804E1,-1.977238312E0,7.069798279E-1,2.193089447E0,3.036269609E0
1.356227604E1,-1.857786713E0,6.376739502E-1,1.998643799E0,2.802244916E0
1.357228504E1,-1.872755585E0,4.794529724E-1,1.434766388E0,2.407414219E0
1.358229404E1,-1.916464691E0,2.639012146E-1,8.201445007E-1,2.101218162E0
1.359230304E1,-2.085912323E0,1.713935852E-1,2.038760376E-1,2.102848406E0
1.360231204E1,-2.492317200E0,1.056802368E-1,-1.634600830E-1,2.499906505E0
1.361232104E1,-2.999312897E0,9.580078125E-3,-4.011657715E-1,3.026037608E0
1.362232904E1,-3.517834625E0,-2.221380615E-1,-1.010099487E0,3.666716071E0
1.363233804E1,-3.446882172E0,-3.620970154E-1,-1.157991943E0,3.654183396E0
1.364234704E1,-2.921923828E0,-2.547702026E-1,-6.201603699E-1,2.997856834E0
1.365235604E1,-1.738035736E0,-2.877017212E-1,4.450245667E-1,1.817027068E0
1.366236504E1,-7.158114624E-1,-5.325924683E-1,1.487007751E0,1.734137492E0
1.367237404E1,-4.538562012E-1,-4.210743713E-1,2.273172913E0,2.355972022E0
1.368238304E1,-2.282752991E-1,-9.460327148E-2,3.629352722E0,3.637754881E0
1.369239104E1,3.823049927E-1,4.456233215E-1,5.912554779E0,5.941636245E0
1.370240004E1,1.560504913E0,7.972421265E-1,8.241262207E0,8.425507306E0
1.371240904E1,4.645439758E0,1.470541992E0,9.249864807E0,1.045478853E1
1.372241804E1,1.416204987E1,4.200864258E0,1.043839325E1,1.808786805E1
1.373242704E1,2.926743805E1,4.511019287E0,1.275258087E1,3.224221680E1
1.374243604E1,4.682323059E1,2.802023163E0,1.000923569E1,4.796301758E1
1.375244504E1,6.061614807E1,-1.306333466E0,1.797611847E0,6.065686542E1
1.376245304E1,6.200211594E1,-3.174748077E0,-4.888384552E0,6.227549847E1
1.377246204E1,5.255600922E1,6.288423157E-1,-6.604266357E0,5.297306751E1
1.378247104E1,3.711726425E1,1.533560944E0,-3.052003326E0,3.727409072E1
1.379248004E1,2.572340790E1,2.926414490E-1,-2.495310974E-1,2.572628264E1
1.380248904E1,1.804886719E1,-4.689747620E-1,8.053253174E-1,1.807291047E1
1.381249804E1,1.058134598E1,-1.275497589E0,-8.063282318E0,1.336444157E1
1.382250704E1,4.473297729E0,-3.514691162E0,-6.809489594E0,8.873138964E0
1.383251504E1,6.822961578E0,-4.320465546E0,3.218457184E0,8.693543229E0
1.384252404E1,7.673792267E0,-3.707789612E0,2.185455322E0,8.798352489E0
1.385253304E1,7.109316101E0,-2.368075562E0,-4.475692749E0,8.728229080E0
1.386254167E1,4.809348907E0,-9.487271118E-1,-1.150567383E1,1.250641636E1
1.387255067E1,2.064806213E0,-8.434959412E-1,-2.974165192E0,3.717602546E0
1.388255967E1,9.472302246E-1,-2.942880249E-1,3.087180176E0,3.242611907E0
1.389256767E1,6.647676086E-1,4.430786133E-1,5.511538696E0,5.569137584E0
1.390257667E1,3.700305176E-1,6.734495544E-1,5.238207092E0,5.294267695E0
1.391258567E1,-7.783813477E-3,6.719526672E-1,3.786376190E0,3.845546207E0
1.392259467E1,-3.817062378E-1,5.866300964E-1,2.245031433E0,2.351595343E0
1.393260367E1,-7.798782349E-1,5.942642212E-1,1.032852173E0,1.424129080E0
1.394261267E1,-9.087602234E-1,4.586462402E-1,4.270619202E-1,1.103894651E0
1.395262067E1,-1.043779449E0,3.013233948E-1,-8.547225952E-2,1.089759989E0
1.396262967E1,-1.225651245E0,2.020797729E-1,-5.981561279E-1,1.378712429E0
1.397263867E1,-1.487307129E0,1.213975525E-1,-1.198557587E0,1.913990635E0
1.398264767E1,-1.719624023E0,-4.131408691E-2,-1.540895691E0,2.309366399E0
1.399265667E1,-1.730551300E0,-1.341210938E-1,-1.035097504E0,2.020946093E0
1.400266567E1,-1.767674103E0,-1.490899658E-1,-5.508544922E-2,1.774805330E0
1.401267467E1,-1.819616089E0,-1.830693054E-1,4.590953064E-1,1.885546494E0
1.402268267E1,-1.695374451E0,-1.670526123E-1,7.265890503E-1,1.852061757E0
1.403269167E1,-1.599573669E0,6.975494385E-2,1.094374237E0,1.939370168E0
1.404270067E1,-1.187929688E0,3.607498169E-1,1.410516815E0,1.879062282E0
1.405270967E1,-3.836521912E-1,5.839356995E-1,1.925446014E0,2.048294964E0
1.406271867E1,3.065625000E-1,7.921527100E-1,2.385439453E0,2.532154787E0
1.407272767E1,8.901988220E-1,1.167122955E0,2.924468536E0,3.272177586E0
1.408273567E1,1.667682037E0,1.547931061E0,3.491190033E0,4.167212713E0
1.409274467E1,3.279679871E0,1.590143280E0,4.139192505E0,5.515230756E0
1.410275367E1,7.691006470E0,2.626438293E0,5.202581177E0,9.649694789E0
1.411276267E1,1.978869919E1,5.101241913E0,8.131240997E0,2.199391654E1
1.412277167E1,4.009906357E1,3.542982330E0,7.986791382E0,4.103993737E1
1.413278067E1,6.378790237E1,-1.538949738E0,2.121987305E0,6.384173937E1
1.414278967E1,7.186241135E1,-5.622008972E0,-2.390828247E0,7.212162789E1
1.415279767E1,5.407085907E1,-1.948797455E0,-2.577490082E0,5.416732472E1
1.416280667E1,3.522939011E1,7.152127075E-1,-1.290765839E0,3.526028266E1
1.417281567E1,2.484338791E1,5.295986938E-1,1.746867371E-1,2.484964613E1
1.418282467E1,1.743334717E1,-3.165916443E-1,1.146615601E0,1.747388197E1
1.419283367E1,9.052724762E0,-6.819818115E-1,-3.877087555E0,9.871612468E0
1.420284267E1,2.699187012E0,-1.923649750E0,-4.016896820E0,5.207830541E0
1.421285067E1,4.319417725E0,-2.966830444E0,-4.974156189E-1,5.263732009E0
1.422285967E1,4.662055206E0,-3.062631226E0,-1.116528168E0,5.688682090E0
1.423286867E1,3.003803558E0,-3.086132355E0,-3.813320160E0,5.752256894E0
1.424287767E1,6.878196716E-1,-3.019221497E0,-5.643414459E0,6.437151630E0
1.425288667E1,-9.015751648E-1,-1.969155121E0,-4.830005951E0,5.293332330E0
1.426289567E1,-1.394200745E0,-8.072712708E-1,-2.440375214E0,2.924194556E0
1.427290467E1,-1.685644684E0,2.130070496E-1,7.253915405E-1,1.847420605E0
1.428291267E1,-2.116448822E0,1.014889526E0,3.382516022E0,4.117131405E0
1.429292167E1,-2.245330811E0,1.459465027E0,4.025878143E0,4.835208727E0
1.430293067E1,-1.856888580E0,1.425635376E0,3.006048889E0,3.810092039E0
1.431293967E1,-1.414408722E0,1.049467621E0,1.639091492E0,2.405941653E0
1.432294867E1,-1.418899384E0,8.493338013E-1,6.991960144E-1,1.795415950E0
1.433295767E1,-1.428629150E0,7.225474548E-1,1.297801208E-1,1.606206386E0
1.434296567E1,-1.401236115E0,6.667135620E-1,-2.333647156E-1,1.569212769E0
1.435297467E1,-1.314865723E0,7.122189331E-1,-6.225553894E-1,1.619784828E0
1.436298367E1,-1.279239807E0,6.861730957E-1,-1.204545135E0,1.886323669E0
1.437299267E1,-1.254092102E0,4.813989258E-1,-1.378184052E0,1.924547533E0
1.438300167E1,-9.870474243E-1,1.496887207E-3,-5.394781494E-1,1.124856227E0
1.439301067E1,-5.288502502E-1,-3.400927734E-1,6.179150391E-1,8.815694398E-1
1.440301867E1,-1.160087585E-1,-6.270460510E-1,1.255139923E0,1.407842679E0
1.441302767E1,2.921923828E-1,-6.161187744E-1,2.114353180E0,2.221591345E0
1.442303667E1,8.292755127E-1,-3.427871704E-1,2.976111145E0,3.108446311E0
1.443304567E1,1.739532623E0,3.164419556E-1,3.962110748E0,4.338713040E0
1.444305467E1,3.834426270E0,1.471889191E0,5.627098389E0,6.966600238E0
1.445306367E1,8.619375916E0,2.893482971E0,8.015232239E0,1.212063665E1
1.446307267E1,1.822849365E1,4.450694733E0,9.595196686E0,2.107497245E1
1.447308067E1,3.396242477E1,3.964655457E0,8.833281097E0,3.531560058E1
1.448308967E1,5.212730072E1,3.832031250E-1,5.058880005E0,5.237360587E1
1.449309867E1,6.246540253E1,-3.562292175E0,-2.422861633E0,6.261378999E1
1.450310767E1,5.309578674E1,-1.432970123E0,-6.263275452E0,5.348312437E1
1.451311667E1,3.439158234E1,7.280859375E-1,-3.487447815E0,3.457561767E1
1.452312567E1,2.403461975E1,1.927990723E-1,-4.567002869E-1,2.403973155E1
1.453313367E1,1.779574356E1,-5.742059326E-1,1.666185150E0,1.788279548E1
1.454314267E1,1.302351746E1,-1.062340851E0,2.689307556E0,1.334065029E1
1.455315167E1,9.297166443E0,-1.340312805E0,2.865790558E0,9.820717785E0
1.456316067E1,4.548291779E0,-1.575024719E0,3.341651001E0,5.859547114E0
1.457316967E1,2.404898987E0,-2.096540222E0,2.584525452E0,4.105945914E0
1.458317867E1,3.206931152E0,-2.140099640E0,3.785627747E-1,3.873982919E0
1.459318667E1,3.333867188E0,-2.503543854E0,-2.406695251E0,4.813998783E0
1.460319567E1,1.930385742E0,-3.572620697E0,-9.269474030E0,1.011993856E1
1.461320467E1,-3.550616455E-1,-3.936214600E0,-1.183274368E1,1.247532273E1
1.462321367E1,-1.100062408E0,-2.265389099E0,-6.983727264E0,7.423918883E0
1.463322267E1,-1.178050232E0,-1.097817078E0,-2.496957550E0,2.971161674E0
1.464323167E1,-1.422641602E0,-4.179309082E-1,9.936337280E-1,1.784904299E0
1.465323967E1,-1.542841644E0,6.975494385E-2,2.828218689E0,3.222428749E0
1.466324867E1,-1.614542542E0,4.906796265E-1,3.312162323E0,3.717248091E0
1.467325767E1,-1.346749420E0,5.998027039E-1,2.761457520E0,3.130358592E0
1.468326667E1,-1.288819885E0,5.450166321E-1,1.952389984E0,2.402067126E0
1.469327567E1,-1.370250549E0,4.598437500E-1,1.241218872E0,1.905168531E0
1.470328467E1,-1.464404755E0,3.339555359E-1,8.123606873E-1,1.707611628E0
1.471329267E1,-1.511556702E0,2.113604736E-1,5.319937134E-1,1.616321201E0
1.472330167E1,-1.425186310E0,2.484832764E-2,5.535488892E-1,1.529114067E0
1.473331067E1,-1.163231049E0,-3.002755737E-1,7.378157043E-1,1.409838255E0
1.474331967E1,-5.563929749E-1,-8.574169922E-1,8.807684326E-1,1.349255377E0
1.475332867E1,2.070195007E-1,-1.405876465E0,1.128952332E0,1.814904701E0
1.476333767E1,1.071471863E0,-1.758393402E0,1.566193085E0,2.587075586E0
1.477334567E1,2.431244202E0,-1.866468658E0,2.326911163E0,3.848268336E0
1.478335467E1,4.967719574E0,-1.642983398E0,3.572920074E0,6.335881160E0
1.479336367E1,9.610165558E0,-8.762777710E-1,5.051545258E0,1.089225662E1
1.480337267E1,1.786280411E1,2.948867798E-1,6.571185150E0,1.903541970E1
1.481338167E1,2.956965958E1,1.588496704E0,7.002138977E0,3.042890138E1
1.482339067E1,4.203259277E1,2.084415436E0,5.392835541E0,4.242836690E1
1.483339967E1,5.015575058E1,5.831872559E-1,2.832859039E0,5.023907358E1
1.484340767E1,4.811818771E1,-2.431693268E0,5.445675659E-1,4.818266986E1
1.485341667E1,3.690919693E1,-1.252744904E0,-1.582209778E-1,3.693078962E1
1.486342554E1,2.756398041E1,4.391867065E-1,3.203338623E-1,2.756934012E1
1.487343454E1,2.116882919E1,-6.331832886E-2,-6.785389709E-1,2.117979589E1
1.488344354E1,1.484448074E1,-1.210981750E0,-7.408843231E0,1.663478414E1
1.489345254E1,1.073163345E1,-2.781216431E0,-3.933520203E0,1.176332022E1
1.490346054E1,9.812844086E0,-3.528312836E0,4.549040222E0,1.137693577E1
1.491346954E1,9.468110962E0,-3.158282318E0,6.160888367E0,1.172929742E1
1.492347854E1,8.450077972E0,-2.202819214E0,5.049449615E0,1.008727771E1
1.493348754E1,7.248825989E0,-1.239572296E0,3.207230530E0,8.022988556E0
1.494349654E1,5.976471863E0,-3.095562744E-1,1.775906982E0,6.242426341E0
1.495350554E1,4.617897034E0,3.746708679E-1,5.766009521E-1,4.668813546E0
1.496351354E1,3.230731659E0,7.996371460E-1,-5.400769043E-1,3.371754689E0
1.497352254E1,9.451345825E-1,9.162446594E-1,-4.778063965E0,4.956074950E0
1.498353154E1,-1.329834595E0,8.714877319E-1,-7.576644287E0,7.741672272E0
1.499354054E1,-2.129771118E0,9.511221313E-1,-4.960384827E0,5.481420979E0
1.500354954E1,-2.408341827E0,1.019380188E0,-1.494791565E0,3.012249682E0
1.501355854E1,-2.245779877E0,1.002315674E0,9.987231445E-1,2.654357151E0
1.502356654E1,-2.004032593E0,9.141490173E-1,2.017055511E0,2.986691815E0
1.503357554E1,-1.601070557E0,6.944059753E-1,1.825004883E0,2.525127602E0
1.504358454E1,-1.614692230E0,5.538482666E-1,1.632654877E0,2.362105173E0
1.505359354E1,-1.813029785E0,4.267625427E-1,1.480571136E0,2.379347423E0
1.506360254E1,-1.896256714E0,2.347119141E-1,1.094523926E0,2.202013132E0
1.507361154E1,-1.903741150E0,8.547225952E-2,6.867718506E-1,2.025633592E0
1.508361954E1,-1.968256989E0,-1.718426514E-1,4.701722717E-1,2.030917880E0
1.509362854E1,-2.069446564E0,-5.016069031E-1,3.632945251E-1,2.160139226E0
1.510363754E1,-2.018103333E0,-7.595205688E-1,4.737648010E-1,2.207728616E0
1.511364654E1,-1.687141571E0,-9.159452820E-1,8.433462524E-1,2.096815524E0
1.512365554E1,-1.104702759E0,-1.095871124E0,1.358125763E0,2.065383087E0
1.513366454E1,-5.125341797E-1,-1.250798950E0,2.126477966E0,2.519741622E0
1.514367254E1,1.507365417E-1,-1.257235565E0,3.163671112E0,3.407664549E0
1.515368154E1,8.560697937E-1,-1.106349335E0,4.443809052E0,4.658787742E0
1.516369054E1,2.011067963E0,-9.098080444E-1,5.931714935E0,6.329090543E0
1.517369954E1,5.319039001E0,-5.210664368E-1,7.857909393E0,9.503179792E0
1.518370854E1,1.388258102E1,5.792953491E-1,1.051982391E1,1.742780348E1
1.519371754E1,2.758059586E1,2.057920532E0,1.102711899E1,2.977451356E1
1.520372554E1,4.452416153E1,2.640059967E0,7.525750122E0,4.523281764E1
1.521373454E1,5.750576614E1,2.311343536E0,6.222560120E-1,5.755556143E1
1.522374354E1,5.717510376E1,-1.182540894E-1,-5.239404602E0,5.741478759E1
1.523375254E1,4.219201126E1,-1.256337433E0,-2.122735748E0,4.226405334E1
1.524376154E1,2.962100281E1,-1.318757629E-1,3.055146790E0,2.977843381E1
1.525377054E1,2.265538788E1,-1.297801208E-1,6.000871124E0,2.343701980E1
1.526377854E1,1.771101974E1,-3.866459656E-1,6.851402435E0,1.899398407E1
1.527378754E1,1.430769699E1,-6.990463257E-1,6.266119537E0,1.563531621E1
1.528379654E1,1.229588058E1,-1.187630310E0,5.108426971E0,1.336769132E1
1.529380554E1,1.117082016E1,-1.915865936E0,3.910617828E0,1.198960788E1
1.530381454E1,1.044063858E1,-3.015628967E0,2.412832489E0,1.113205788E1
1.531382354E1,1.054122940E1,-3.459156647E0,2.213896179E-1,1.109649924E1
1.532383154E1,1.047985703E1,-3.287912750E0,-1.951940918E0,1.115561952E1
1.533384054E1,9.424401855E0,-3.143313446E0,-3.941453705E0,1.068806938E1
1.534384954E1,7.289990387E0,-2.925965424E0,-4.791835327E0,9.201462889E0
1.535385854E1,4.858147430E0,-2.291884003E0,-4.400399323E0,6.943906893E0
1.536386754E1,2.612517242E0,-1.391506348E0,-2.537074127E0,3.898497324E0
1.537387654E1,6.652166748E-1,-5.436694336E-1,-3.426374817E-1,9.249270897E-1
1.538388454E1,-3.135978699E-1,-1.032852173E-1,8.193960571E-1,8.834146017E-1
1.539389354E1,-1.029409332E0,2.787203979E-1,1.368603973E0,1.735063535E0
1.540390254E1,-1.104852448E0,4.263134766E-1,1.120120697E0,1.630065179E0
1.541391154E1,-1.298699341E0,4.980143738E-1,9.128018188E-1,1.663684301E0
1.542392054E1,-1.817370758E0,4.501139832E-1,7.312294006E-1,2.010008832E0
1.543392954E1,-2.274370422E0,4.038601685E-1,1.962419128E-1,2.318269773E0
1.544393754E1,-2.820734253E0,4.987628174E-1,-6.716532898E-1,2.942180181E0
1.545394654E1,-3.773053894E0,3.510200500E-1,-1.713187408E0,4.158624996E0
1.546395554E1,-5.003794556E0,2.409988403E-1,-1.353784790E0,5.189294138E0
1.547396454E1,-5.281916199E0,-1.350192261E-1,-1.434017944E-1,5.285587290E0
1.548397354E1,-4.839885406E0,-1.669029236E-1,8.135581970E-1,4.910623614E0
1.549398254E1,-3.751648407E0,-1.457968140E-1,1.612746277E0,4.086205212E0
1.550399054E1,-2.676284637E0,-2.171983337E-1,1.673968964E0,3.164150228E0
1.551399954E1,-1.834584961E0,-3.562591553E-1,1.777553558E0,2.579209029E0
1.552400854E1,-1.097517700E0,-4.507127380E-1,2.076182556E0,2.391280218E0
1.553401754E1,-4.778063965E-1,-3.959266663E-1,2.542013855E0,2.616656515E0
1.554402654E1,1.285826111E-1,-1.721420288E-1,3.716321869E0,3.722527985E0
1.555403554E1,8.607101440E-1,4.704716492E-1,5.035977631E0,5.130617528E0
1.556404354E1,2.392624512E0,1.592987366E0,6.989116058E0,7.557116122E0
1.557405254E1,7.835755463E0,4.270768890E0,9.226513367E0,1.283616296E1
1.558406154E1,2.171728867E1,7.182663574E0,1.337783066E1,2.649901198E1
1.559407054E1,4.134013275E1,5.799240417E0,1.519744675E1,4.442521979E1
1.560407954E1,6.361007217E1,1.114432526E0,9.714498596E0,6.435724299E1
1.561408854E1,7.150136215E1,-1.911974030E0,-1.285676422E0,7.153847495E1
1.562409654E1,5.522316284E1,1.072819061E0,-6.324797516E0,5.559452957E1
1.563410554E1,3.516262894E1,1.625918884E0,-2.936743011E0,3.532249348E1
1.564411454E1,2.394151337E1,5.444178772E-1,6.884184265E-1,2.395759531E1
1.565412354E1,1.663131500E1,-5.749543762E-1,2.567161560E0,1.683809757E1
1.566413254E1,1.037851776E1,-1.946701813E0,1.653760986E0,1.068822737E1
1.567414054E1,4.757556610E0,-5.359904022E0,-9.714797974E-1,7.232336346E0
1.568414954E1,5.530249786E0,-4.851860504E0,-8.433462524E-1,7.405095945E0
1.569415854E1,5.255121918E0,-4.529580688E0,-2.052980804E0,7.235201294E0
1.570416754E1,4.567451935E0,-5.960006104E0,-7.453749847E0,1.058024937E1
1.571417654E1,3.026705933E0,-8.199499054E0,-1.463267120E1,1.704428937E1
1.572418554E1,1.641486511E0,-6.442901917E0,-8.733139343E0,1.097602778E1
1.573419354E1,1.067130890E0,-3.698059845E0,-2.325114899E0,4.496729283E0
1.574420254E1,7.671546936E-1,-2.121687927E0,1.348695374E0,2.628510071E0
1.575421154E1,-3.023712158E-2,-1.189276886E0,4.799768829E0,4.945005016E0
1.576422054E1,-8.421487427E-1,-4.831951904E-1,5.946983185E0,6.025719965E0
1.577422954E1,-1.298399963E0,-2.604583740E-2,5.034929810E0,5.199715284E0
1.578423854E1,-1.360071716E0,7.948471069E-2,3.113974457E0,3.398963049E0
1.579424654E1,-1.347946930E0,8.622070312E-2,1.410367126E0,1.952826251E0
1.580425554E1,-1.305285645E0,2.963836670E-2,3.580554199E-1,1.353828915E0
1.581426454E1,-1.447040863E0,3.158432007E-2,-5.388793945E-2,1.448388325E0
1.582427354E1,-1.513053589E0,5.688171387E-2,-2.818638611E-1,1.540134386E0
1.583428254E1,-1.490001526E0,8.442443848E-2,-2.558180237E-1,1.514158147E0
1.584429154E1,-1.356628876E0,1.210981750E-1,5.867797852E-2,1.363286389E0
1.585429954E1,-1.167272644E0,1.767823792E-1,2.583627319E-1,1.208523370E0
1.586430842E1,-1.058448944E0,2.661465454E-1,1.528321838E-1,1.102046200E0
1.587431742E1,-8.855584717E-1,3.926335144E-1,1.875599670E-1,9.866882104E-1
1.588432642E1,-4.622387695E-1,6.694079590E-1,4.364923096E-1,9.231994540E-1
1.589433542E1,3.100053406E-1,9.009764099E-1,1.044378204E0,1.413714128E0
1.590434342E1,9.889933777E-1,1.235381012E0,1.812730408E0,2.406297088E0
1.591435242E1,1.629960480E0,1.895358582E0,2.520308990E0,3.549804604E0
1.592436142E1,2.575544128E0,2.782413940E0,3.331621857E0,5.047272441E0
1.593437042E1,4.641697540E0,3.330723724E0,4.867577820E0,7.505490685E0
1.594437942E1,9.836195526E0,3.134930878E0,7.864196320E0,1.297783178E1
1.595438842E1,1.981908600E1,1.601819000E0,1.163201111E1,2.303618190E1
1.596439642E1,3.612123550E1,-1.601968689E0,1.352811813E1,3.860466213E1
1.597440542E1,5.348363022E1,-4.734354858E0,1.054931259E1,5.471929105E1
1.598441442E1,5.906896545E1,-2.944227448E0,2.216440887E0,5.918381337E1
1.599442342E1,4.809618347E1,1.595981140E0,-3.420986023E0,4.824409980E1
1.600443242E1,3.314497467E1,4.842430115E-1,-3.341800690E0,3.331653447E1
1.601444142E1,2.424238770E1,-1.442699890E0,-3.273093567E0,2.450485433E1
1.602444942E1,1.747825378E1,-3.053799591E0,-8.845405884E0,1.982564633E1
1.603445842E1,1.091096054E1,-5.125641174E0,-1.038016434E1,1.590814474E1
1.604446742E1,8.939859467E0,-6.611451416E0,1.973496094E0,1.129278814E1
1.605447642E1,9.773326263E0,-6.090085602E0,6.097570038E0,1.303024978E1
1.606448542E1,9.029373322E0,-4.589605865E0,4.399950256E0,1.104326160E1
1.607449442E1,7.599097595E0,-3.110830994E0,2.024989014E0,8.457194230E0
1.608450242E1,6.268664246E0,-2.231709137E0,-1.638343048E0,6.852798336E0
1.609451142E1,3.353925476E0,-3.098257141E0,-8.597521362E0,9.734751511E0
1.610452042E1,-3.832031250E-2,-2.738405457E0,-6.603966980E0,7.149315545E0
1.611452942E1,-1.562899933E0,-9.651928711E-1,-1.929487610E0,2.664052536E0
1.612453842E1,-1.421743469E0,3.116519165E-1,3.025209045E-1,1.486606978E0
1.613454642E1,-5.551954651E-1,8.872050476E-1,8.307723999E-1,1.336247575E0
1.614455542E1,-2.746788025E-1,1.130000153E0,1.035097504E0,1.556847980E0
1.615456442E1,-2.122586060E-1,1.013093262E0,1.317560120E0,1.675522707E0
1.616457342E1,-2.495310974E-1,8.000862122E-1,1.434616699E0,1.661483912E0
1.617458242E1,-4.507127380E-1,6.116281128E-1,1.331032104E0,1.532604771E0
1.618459142E1,-6.881190491E-1,4.704716492E-1,1.097966766E0,1.378543586E0
1.619459942E1,-8.146060181E-1,3.927832031E-1,9.069639587E-1,1.280798669E0
1.620460842E1,-8.849597168E-1,3.112028503E-1,7.777825928E-1,1.218583881E0
1.621461742E1,-8.732839966E-1,2.222877502E-1,6.465055847E-1,1.109056470E0
1.622462642E1,-8.416996765E-1,1.022373962E-1,6.188131714E-1,1.049685940E0
1.623463542E1,-6.836283875E-1,3.727249146E-2,7.135661316E-1,9.888951587E-1
1.624464342E1,-3.929328918E-1,9.101074219E-2,9.177415466E-1,1.002461350E0
1.625465242E1,1.701960754E-1,2.606080627E-1,1.353784790E0,1.389106376E0
1.626466142E1,1.125808868E0,7.252418518E-1,2.098037109E0,2.489012066E0
1.627467042E1,2.293231201E0,1.449136505E0,2.970872040E0,4.023056876E0
1.628467942E1,3.828738098E0,2.173031158E0,4.037404175E0,5.973435553E0
1.629468842E1,6.184090118E0,2.796484680E0,5.332810364E0,8.631463580E0
1.630469642E1,1.024170227E1,3.040177917E0,6.642586670E0,1.258010750E1
1.631470542E1,1.671334442E1,2.556683350E0,7.911348267E0,1.866713537E1
1.632471442E1,2.569212296E1,9.610015869E-1,8.757837982E0,2.716078850E1
1.633472342E1,3.620595932E1,-1.199156342E0,8.166118469E0,3.713482136E1
1.634473242E1,4.392750229E1,-1.722318420E0,5.040617981E0,4.424929002E1
1.635474142E1,4.438315475E1,6.665638733E-1,8.168513489E-1,4.439567523E1
1.636474942E1,3.763848038E1,2.199975128E0,-1.423390045E0,3.772957904E1
1.637475842E1,2.910712143E1,-5.785469055E-1,-5.375321960E-1,2.911783260E1
1.638476742E1,2.325489120E1,-2.369722137E0,7.438032532E-1,2.338715013E1
1.639477642E1,1.901286255E1,-2.691103821E0,1.598226471E0,1.926876514E1
1.640478542E1,1.569456299E1,-2.713557129E0,1.971999207E0,1.604903363E1
1.641479342E1,1.269869293E1,-2.777174835E0,1.301543427E0,1.306382477E1
1.642480242E1,8.239765320E0,-3.683090973E0,-2.917433167E-1,9.030171970E0
1.643481142E1,7.288792877E0,-4.550088043E0,-1.602417755E0,8.740568944E0
1.644482042E1,7.937992859E0,-4.491410065E0,-5.160668335E0,1.047936032E1
1.645482942E1,6.551276550E0,-4.521198120E0,-1.030741562E1,1.302318216E1
1.646483842E1,4.277654572E0,-3.476819916E0,-7.697143707E0,9.467450904E0
1.647484642E1,2.934347992E0,-1.790726166E0,-2.801873474E0,4.434816039E0
1.648485542E1,1.712139587E0,-6.855743408E-1,9.527687073E-1,2.075861834E0
1.649486442E1,9.364526367E-1,-3.412902832E-2,3.089724884E0,3.228700697E0
1.650487342E1,7.170089722E-1,7.409591675E-2,3.098257141E0,3.181004461E0
1.651488242E1,1.465452576E-1,1.553768921E-1,2.317630463E0,2.327451063E0
1.652489042E1,-4.210743713E-1,2.472857666E-1,1.708846436E0,1.777247877E0
1.653489942E1,-8.116122437E-1,3.606001282E-1,1.356928253E0,1.621727835E0
1.654490842E1,-1.038690033E0,3.932322693E-1,1.132544861E0,1.586242877E0
1.655491742E1,-1.197060699E0,2.860551453E-1,8.012837219E-1,1.468617536E0
1.656492642E1,-1.385069733E0,2.011816406E-1,2.830613708E-1,1.427941160E0
1.657493542E1,-1.630858612E0,1.032852173E-1,-4.640350342E-1,1.698733694E0
1.658494342E1,-1.742376709E0,-5.194198608E-2,-4.686753845E-1,1.805057113E0
1.659495242E1,-1.736838226E0,-1.703457642E-1,4.424798584E-1,1.800392493E0
1.660496142E1,-1.698817291E0,-1.758842468E-1,1.048868866E0,2.004255811E0
1.661497042E1,-1.573677521E0,7.349716187E-2,1.306333466E0,2.046550731E0
