"Time (s)","Acceleration x (m/s^2)","Acceleration y (m/s^2)","Acceleration z (m/s^2)","Absolute acceleration (m/s^2)"
7.787916111E-4,3.376528473E0,-9.332193604E0,1.113085327E0,9.986477904E0
1.085779164E-2,3.114872589E0,-9.244026947E0,1.086740112E0,9.815063398E0
2.093579166E-2,2.944526825E0,-9.204958191E0,1.028660889E0,9.719034764E0
3.101479169E-2,2.847079468E0,-9.252409515E0,9.349557495E-1,9.725589216E0
4.109379160E-2,2.789149933E0,-9.285341034E0,8.574169922E-1,9.733040602E0
5.117179162E-2,2.712060242E0,-9.308243408E0,8.520281982E-1,9.732657302E0
6.125079165E-2,2.695145416E0,-9.281149750E0,9.141490173E-1,9.707688598E0
7.132979168E-2,2.747686157E0,-9.264534302E0,1.031355286E0,9.718285279E0
8.140933327E-2,2.893632660E0,-9.281149750E0,1.143023071E0,9.788735995E0
9.148733329E-2,3.109932861E0,-9.255852356E0,1.258133698E0,9.845069103E0
1.015663333E-1,3.284020844E0,-9.228010254E0,1.310375061E0,9.882208708E0
1.116453334E-1,3.375480652E0,-9.183253326E0,1.328936462E0,9.873807949E0
1.217233333E-1,3.439098358E0,-9.150621185E0,1.269959106E0,9.857690486E0
1.318023333E-1,3.438499603E0,-9.138346710E0,1.182091827E0,9.835141138E0
1.418813333E-1,3.404520264E0,-9.144783325E0,1.073866882E0,9.816873758E0
1.519603333E-1,3.356320496E0,-9.152567139E0,9.942324829E-1,9.799126019E0
1.620383334E-1,3.265309753E0,-9.172475739E0,9.060658264E-1,9.778420846E0
1.721173333E-1,3.173550568E0,-9.184001770E0,7.985893250E-1,9.749618281E0
1.821963333E-1,3.127446442E0,-9.183552704E0,7.328759766E-1,9.729114487E0
1.922743333E-1,3.094963989E0,-9.212292938E0,6.801855469E-1,9.742063213E0
2.023533334E-1,3.053649902E0,-9.266480255E0,6.713539124E-1,9.779731598E0
2.124323333E-1,3.016377411E0,-9.297765198E0,7.294331360E-1,9.801991790E0
2.225103333E-1,2.970123596E0,-9.313482513E0,8.535250854E-1,9.812802646E0
2.325893333E-1,2.938090210E0,-9.340576172E0,9.583071899E-1,9.838551213E0
2.426683333E-1,2.898871765E0,-9.347461853E0,1.041683807E0,9.841930997E0
2.527473333E-1,2.880609741E0,-9.332343292E0,1.072220306E0,9.825487275E0
2.628253333E-1,2.846630402E0,-9.273815002E0,1.063688049E0,9.759015402E0
2.729043333E-1,2.857108612E0,-9.242080994E0,1.005159760E0,9.725712152E0
2.829833333E-1,2.880909119E0,-9.234446869E0,9.312135315E-1,9.718117357E0
2.930613334E-1,2.907553711E0,-9.258995819E0,8.316705322E-1,9.740356669E0
3.031403333E-1,2.980601807E0,-9.283844147E0,7.855664063E-1,9.782170713E0
3.132193333E-1,3.023562469E0,-9.294771423E0,7.521858215E-1,9.803085704E0
3.232973333E-1,3.052901459E0,-9.286688232E0,7.381150818E-1,9.803448348E0
3.333763334E-1,3.088527374E0,-9.296717377E0,7.379653931E-1,9.824080020E0
3.434553333E-1,3.069067841E0,-9.327403564E0,7.150630188E-1,9.845351684E0
3.535343333E-1,3.095712433E0,-9.340426483E0,7.080276489E-1,9.865510910E0
3.636123333E-1,3.143463135E0,-9.375753021E0,7.331753540E-1,9.915828321E0
3.736913333E-1,3.209625549E0,-9.373358002E0,7.441026306E-1,9.935553589E0
3.837703333E-1,3.302582245E0,-9.341623993E0,7.593708801E-1,9.937284963E0
3.938483333E-1,3.330274658E0,-9.303153992E0,7.310797119E-1,9.908273363E0
4.039273333E-1,3.328777771E0,-9.236692200E0,6.839277649E-1,9.842001901E0
4.140063333E-1,3.343447266E0,-9.181606750E0,6.339317322E-1,9.791956474E0
4.240843334E-1,3.377725983E0,-9.127120056E0,6.524931335E-1,9.753927446E0
4.341633333E-1,3.420387268E0,-9.052425385E0,7.209008789E-1,9.703873066E0
4.442423333E-1,3.453618164E0,-8.979976044E0,7.801776123E-1,9.652778112E0
4.543213333E-1,3.381318512E0,-8.956624603E0,7.605683899E-1,9.603796303E0
4.643993333E-1,3.104993134E0,-8.968749390E0,6.905140686E-1,9.516105172E0
4.744783333E-1,2.772085419E0,-8.968150635E0,6.167175293E-1,9.407046502E0
4.845573333E-1,2.528841248E0,-9.057215424E0,5.956114197E-1,9.422470071E0
4.946353333E-1,2.377505951E0,-9.265133057E0,5.984555054E-1,9.584016595E0
5.047143333E-1,2.261946259E0,-9.411977692E0,6.897656250E-1,9.704509342E0
5.147933334E-1,2.164349213E0,-9.444460144E0,8.321195984E-1,9.724950280E0
5.248713333E-1,2.133064270E0,-9.481582947E0,1.015637970E0,9.771483963E0
5.349503333E-1,2.184407501E0,-9.466165009E0,1.166673889E0,9.784735258E0
5.450293333E-1,2.439477081E0,-9.411378937E0,1.255738678E0,9.803161814E0
5.551083334E-1,2.858156433E0,-9.303153992E0,1.226848755E0,9.809326697E0
5.651863333E-1,3.212020569E0,-9.274114380E0,1.018781433E0,9.867329389E0
5.752653333E-1,3.493285675E0,-9.373208313E0,7.457492065E-1,1.003076372E1
5.853443333E-1,3.769461365E0,-9.561367035E0,5.721102905E-1,1.029348769E1
5.954223333E-1,3.943100281E0,-9.652078400E0,4.587959290E-1,1.043652964E1
6.055013334E-1,4.012406158E0,-9.555229797E0,4.528083801E-1,1.037337241E1
6.155803333E-1,4.005670166E0,-9.387877808E0,4.640350342E-1,1.021728788E1
6.256583333E-1,3.943699036E0,-9.280251617E0,4.188290405E-1,1.009213803E1
6.357373333E-1,3.861968994E0,-9.266330566E0,3.498225403E-1,1.004500187E1
6.458163334E-1,3.830384674E0,-9.343420258E0,2.894979858E-1,1.010223529E1
6.558953333E-1,3.739523621E0,-9.436975708E0,1.898052979E-1,1.015266337E1
6.659733333E-1,3.521427155E0,-9.488318939E0,4.046086121E-1,1.012878836E1
6.760523333E-1,3.388503571E0,-9.503138123E0,8.228388977E-1,1.012268020E1
6.861313334E-1,3.370540924E0,-9.397906952E0,1.179247742E0,1.005344848E1
6.962093333E-1,3.278033295E0,-9.260193329E0,1.321002960E0,9.911696706E0
7.062883333E-1,3.012934570E0,-9.177714844E0,1.272653503E0,9.743093524E0
7.163673333E-1,2.858156433E0,-9.092092896E0,1.212478638E0,9.607565553E0
7.264453333E-1,2.884501648E0,-9.052275696E0,1.200353851E0,9.576267248E0
7.365243334E-1,3.071762238E0,-9.045390015E0,1.208886108E0,9.628925661E0
7.466033333E-1,3.250041504E0,-9.055868225E0,1.264869690E0,9.704195712E0
7.566823333E-1,3.331771545E0,-9.029223633E0,1.308279419E0,9.712835635E0
7.667603333E-1,3.320544891E0,-8.929231567E0,1.404379578E0,9.629614570E0
7.768393334E-1,3.316054230E0,-8.867410126E0,1.541045380E0,9.591767244E0
7.869183333E-1,3.266357574E0,-8.803193665E0,1.687291260E0,9.540034711E0
7.969963333E-1,3.186573486E0,-8.738977203E0,1.839674377E0,9.482002687E0
8.070753333E-1,3.168461151E0,-8.628656616E0,2.102827148E0,9.429461442E0
8.171543333E-1,3.135978699E0,-8.444240112E0,2.424059143E0,9.328216132E0
8.272323334E-1,3.221151581E0,-8.242459717E0,2.718796234E0,9.257743389E0
8.373113333E-1,3.345393219E0,-8.107141113E0,2.972368927E0,9.260257548E0
8.473903333E-1,3.365750885E0,-8.015082550E0,3.122955780E0,9.237027666E0
8.574693333E-1,3.228636017E0,-7.968828735E0,3.169209595E0,9.163526144E0
8.675473334E-1,2.906505890E0,-7.914940796E0,3.047213287E0,8.965465582E0
8.776263333E-1,2.602488098E0,-7.898774414E0,2.775079193E0,8.767248489E0
8.877053333E-1,2.435734863E0,-8.085885315E0,2.440674591E0,8.790406026E0
8.977833333E-1,2.401007080E0,-8.661438446E0,1.947001190E0,9.196530030E0
9.078623333E-1,2.185305634E0,-9.572593689E0,9.087602234E-1,9.860829366E0
9.179413333E-1,1.853445740E0,-1.052476364E1,-7.054829407E-1,1.070997745E1
9.280193333E-1,1.364263000E0,-1.173754166E1,-5.098846893E0,1.286970619E1
9.380983333E-1,2.171983337E-1,-1.363394806E1,-1.274554550E1,1.866495767E1
9.481773333E-1,1.191222839E0,-1.355476273E1,-8.273594971E0,1.592491690E1
9.582563334E-1,2.836002502E0,-1.227597198E1,-4.204456787E0,1.328231363E1
9.683343333E-1,3.815266113E0,-1.130583939E1,-2.346071320E0,1.216068708E1
9.784133333E-1,4.318519592E0,-1.043045975E1,-1.388811951E0,1.137422088E1
9.884923333E-1,4.434528351E0,-9.382039948E0,-1.271455994E0,1.045487043E1
9.985703334E-1,4.389621735E0,-8.420289917E0,-1.309177551E0,9.585614593E0
1.008649333E0,4.461622009E0,-7.885302429E0,-1.048868866E0,9.120536785E0
1.018728333E0,4.708159332E0,-7.818241882E0,-6.405180359E-1,9.148876094E0
1.028807333E0,4.689747620E0,-8.001311188E0,-1.648072815E-1,9.275875964E0
1.038885333E0,4.412224731E0,-8.448880463E0,3.986210632E-1,9.539926986E0
1.048964333E0,3.929328918E0,-9.159153442E0,1.066532135E0,1.002333319E1
1.059043333E0,3.249592438E0,-9.964478760E0,1.449735260E0,1.058075708E1
1.069121333E0,2.408790894E0,-1.087024521E1,1.271006927E0,1.120624661E1
1.079199708E0,1.720671844E0,-1.088491470E1,1.087189178E0,1.107357485E1
1.089278708E0,9.963281250E-1,-1.039184006E1,1.221459961E0,1.051070759E1
1.099356708E0,3.471281433E-1,-1.004785538E1,1.324296112E0,1.014069306E1
1.109435708E0,-2.694396973E-3,-9.711055756E0,1.194515991E0,9.784246501E0
1.119514708E0,-1.782792664E-1,-9.362730103E0,1.053658905E0,9.423518216E0
1.129593708E0,1.017883301E-2,-9.020391998E0,9.723779297E-1,9.072656405E0
1.139671708E0,6.906637573E-1,-8.693621521E0,8.855584717E-1,8.765859078E0
1.149750708E0,1.489552460E0,-8.561147003E0,9.382489014E-1,8.740269764E0
1.159829708E0,1.991309052E0,-8.667126617E0,1.033750305E0,8.952822752E0
1.169907708E0,2.397863617E0,-8.939260712E0,1.060544586E0,9.315840639E0
1.179986708E0,2.697390747E0,-9.385482788E0,1.122366028E0,9.829695291E0
1.190065708E0,2.955005035E0,-9.830357666E0,1.069825287E0,1.032048995E1
1.200143708E0,3.475772095E0,-1.014679962E1,9.882449341E-1,1.077103348E1
1.210222708E0,4.203408966E0,-1.038121216E1,1.261277161E0,1.127071572E1
1.220301708E0,5.103487244E0,-1.056517960E1,1.787133636E0,1.186854871E1
1.230380708E0,6.128256226E0,-1.053973251E1,2.500250702E0,1.244559116E1
1.240458708E0,7.136409760E0,-1.007045837E1,3.194357300E0,1.274936840E1
1.250537708E0,7.623496857E0,-9.787995758E0,3.623514862E0,1.292487622E1
1.260616708E0,7.259902954E0,-9.554481354E0,3.560645599E0,1.251688867E1
1.270694708E0,6.211483154E0,-9.526938629E0,2.951113129E0,1.174964473E1
1.280773708E0,4.917873230E0,-9.655970306E0,2.061213684E0,1.103049598E1
1.290852708E0,4.377347260E0,-9.707313538E0,7.104226685E-1,1.067229148E1
1.300931708E0,4.482129364E0,-9.626481628E0,-1.026565247E0,1.066829266E1
1.311009708E0,4.882846069E0,-9.184600525E0,-3.510948944E0,1.097842589E1
1.321088708E0,4.973258057E0,-8.358468475E0,-7.064708862E0,1.202112317E1
1.331167708E0,4.354893951E0,-7.624993744E0,-1.158231445E1,1.453463584E1
1.341245708E0,2.498155060E0,-7.979756012E0,-1.568917419E1,1.777828652E1
1.351324708E0,6.771917725E-1,-9.085207214E0,-1.520059021E1,1.772166814E1
1.361403708E0,7.623646545E-1,-1.001851639E1,-1.220980957E1,1.581237870E1
1.371481708E0,2.705024872E0,-1.060499680E1,-8.680897980E0,1.396929155E1
1.381560708E0,4.717739410E0,-1.086874832E1,-4.532873840E0,1.268596470E1
1.391639708E0,5.814658356E0,-1.080842377E1,-8.120613098E-1,1.230006991E1
1.401718708E0,5.674400024E0,-1.031055908E1,8.143066406E-1,1.179701401E1
1.411796708E0,5.048551483E0,-9.660460968E0,1.178050232E0,1.096358429E1
1.421875708E0,5.040168915E0,-8.909772034E0,1.180594940E0,1.030442355E1
1.431954708E0,5.133574677E0,-7.879464569E0,1.383423157E0,9.505441099E0
1.442032708E0,4.778363342E0,-6.772815857E0,2.280807037E0,8.596852424E0
1.452111708E0,4.515509949E0,-6.048023071E0,3.155438232E0,8.180782579E0
1.462190708E0,5.038821716E0,-5.640720062E0,3.187321930E0,8.207707853E0
1.472269708E0,5.341791687E0,-4.885989532E0,2.469414825E0,7.648898072E0
1.482347708E0,5.553750916E0,-3.907773743E0,1.494791565E0,6.953362257E0
1.492426708E0,5.675747223E0,-3.237617340E0,6.876699829E-1,6.570324390E0
1.502505708E0,5.761518860E0,-2.613415375E0,1.766326904E-2,6.326559214E0
1.512583708E0,5.530399475E0,-2.100432129E0,-2.131567383E-1,5.919676450E0
1.522662708E0,5.056185608E0,-2.054926758E0,-2.559677124E-2,5.457874318E0
1.532741708E0,4.663851471E0,-2.668201447E0,1.666035461E-1,5.375738670E0
1.542819708E0,4.158053284E0,-3.874692535E0,1.821711731E-1,5.686460735E0
1.552898708E0,3.757486267E0,-5.466033325E0,1.350192261E-1,6.634338969E0
1.562977708E0,3.170257416E0,-7.091652832E0,2.095642090E-3,7.768016244E0
1.573056708E0,2.708467712E0,-8.739126892E0,3.894900513E-1,9.157501771E0
1.583134708E0,2.426603851E0,-1.043614792E1,1.639091492E0,1.083919787E1
1.593213708E0,2.303110657E0,-1.215532288E1,2.833308105E0,1.269188039E1
1.603292708E0,2.092199249E0,-1.326840820E1,2.773731995E0,1.371574071E1
1.613370708E0,2.115401001E0,-1.353545288E1,1.875300293E0,1.382751450E1
1.623449708E0,2.124082947E0,-1.294777496E1,3.740721130E-1,1.312617746E1
1.633528708E0,2.283651123E0,-1.183783310E1,-1.276096344E0,1.212343915E1
1.643607708E0,3.528163147E0,-1.121572678E1,-2.105820923E0,1.194466174E1
1.653685708E0,4.670288086E0,-1.146181503E1,-1.891167297E0,1.252043563E1
1.663764708E0,5.194348297E0,-1.205982147E1,-6.454577637E-1,1.314675488E1
1.673843708E0,5.609435120E0,-1.246443008E1,5.370831299E-1,1.367904375E1
1.683921708E0,5.524262238E0,-1.256187744E1,9.815089417E-1,1.375796489E1
1.694000708E0,5.444627838E0,-1.227537323E1,7.595205688E-1,1.345011642E1
1.704079708E0,5.268294525E0,-1.170221512E1,7.140151978E-2,1.283362241E1
1.714157708E0,4.668791199E0,-1.127126129E1,-8.393046570E-1,1.222879285E1
1.724236708E0,4.319268036E0,-1.099508560E1,-1.518292694E0,1.191021396E1
1.734315708E0,4.500092010E0,-1.061876816E1,-2.074236603E0,1.171799995E1
1.744394708E0,4.926854553E0,-1.098251175E1,-3.491639099E0,1.253319607E1
1.754472708E0,5.958658905E0,-1.300914734E1,-8.314609680E0,1.654920737E1
1.764551708E0,6.685697021E0,-1.450334015E1,-1.209080704E1,2.003080215E1
1.774630708E0,6.916367340E0,-1.320449112E1,-8.780291290E0,1.729994908E1
1.784708708E0,6.092480621E0,-1.014829651E1,-1.843865662E0,1.197940244E1
1.794787708E0,4.197421417E0,-8.430768127E0,1.858385468E0,9.599468439E0
1.804866708E0,2.566413116E0,-7.734865265E0,2.298470306E0,8.467442512E0
1.814944708E0,9.792636108E-1,-7.751031647E0,2.178719330E0,8.110750072E0
1.825023708E0,-4.939727783E-1,-8.490194550E0,1.829645233E0,8.699138709E0
1.835102708E0,-1.285676422E0,-9.804012451E0,1.468895416E0,9.996463262E0
1.845181708E0,-1.468596039E0,-1.143217667E1,8.958869934E-1,1.156088453E1
1.855259708E0,-1.594484253E0,-1.310434937E1,3.333567810E-1,1.320520651E1
1.865338708E0,-1.909878387E0,-1.452519470E1,-3.287164307E-1,1.465390634E1
1.875417708E0,-1.914818115E0,-1.540686127E1,-5.304968262E-1,1.553445620E1
1.885495708E0,-1.076261902E0,-1.569635925E1,1.216969299E-1,1.573368500E1
1.895574708E0,1.300794983E-1,-1.533411255E1,-5.373825073E-2,1.533475843E1
1.905653708E0,1.944755859E0,-1.322754318E1,-1.653012543E0,1.347154128E1
1.915732708E0,3.245700531E0,-1.027104126E1,-3.030298462E0,1.118979755E1
1.925810708E0,3.986210632E0,-8.625962219E0,-3.072510681E0,9.986862435E0
1.935889708E0,4.279001770E0,-7.942034454E0,-2.396217041E0,9.334217885E0
1.945968708E0,3.998485107E0,-7.475155334E0,-1.538650360E0,8.615873453E0
1.956046708E0,4.326453094E0,-7.219786377E0,-6.976991272E-1,8.445726480E0
1.966125708E0,5.114564209E0,-6.893614655E0,1.240919495E-1,8.584642617E0
1.976204708E0,5.314847717E0,-6.707701263E0,7.791297913E-1,8.593480420E0
1.986282708E0,4.793481903E0,-6.708449707E0,1.472188568E0,8.375446580E0
1.996361708E0,3.566633148E0,-6.934928741E0,1.856589203E0,8.016297907E0
2.006440708E0,2.112706604E0,-7.051536255E0,1.911524963E0,7.605367870E0
2.016519708E0,9.837542725E-1,-6.963818665E0,1.822160797E0,7.265178100E0
2.026597708E0,3.532653809E-1,-6.912625122E0,1.748663635E0,7.139118084E0
2.036676708E0,-1.787283325E-1,-7.138056335E0,1.785487061E0,7.360146473E0
2.046755708E0,-4.219725037E-1,-7.459737396E0,1.833836517E0,7.693419213E0
2.056833708E0,-1.948947144E-1,-7.528444519E0,1.820663910E0,7.747920876E0
2.066912708E0,1.913021851E-1,-7.320975952E0,1.814826050E0,7.544990325E0
2.076992917E0,3.508703613E-1,-6.991660767E0,1.731449432E0,7.211403984E0
2.087070917E0,8.104147339E-1,-7.070546722E0,1.678160248E0,7.312019202E0
2.097149917E0,2.131118317E0,-8.094567261E0,1.804198151E0,8.562640678E0
2.107228917E0,3.543581085E0,-9.735005951E0,1.781445465E0,1.051193872E1
2.117307917E0,4.582869873E0,-1.132365234E1,1.763482819E0,1.234251475E1
2.127385917E0,5.216202850E0,-1.384231476E1,9.840536499E-1,1.482520865E1
2.137464917E0,5.098547516E0,-1.529654068E1,-7.785310364E-1,1.614265945E1
2.147543917E0,4.332740021E0,-1.353081253E1,-3.082090759E0,1.453804689E1
2.157621917E0,4.160448303E0,-1.068987030E1,-4.607269135E0,1.236161745E1
2.167700917E0,5.335504761E0,-7.833809509E0,-4.078119507E0,1.031829643E1
2.177779917E0,7.011719055E0,-5.722749481E0,-1.272054749E0,9.139594576E0
2.187857917E0,7.129823456E0,-6.117628326E0,1.969604187E0,9.598911371E0
2.197936917E0,5.469326477E0,-7.191345520E0,4.030967560E0,9.893315014E0
2.208015917E0,3.352428589E0,-8.515641632E0,5.133424988E0,1.049318741E1
2.218094917E0,2.215093689E0,-9.354048157E0,5.001848602E0,1.083620535E1
2.228172917E0,2.022294617E0,-9.683662720E0,3.910917206E0,1.063758772E1
2.238251917E0,1.993853760E0,-9.797276459E0,2.234253845E0,1.024470444E1
2.248330917E0,2.034419403E0,-1.000684067E1,-7.020401001E-2,1.021178981E1
2.258408917E0,2.743345184E0,-1.017703674E1,-2.564766541E0,1.084785910E1
2.268487917E0,3.920946350E0,-1.043644730E1,-5.604196014E0,1.247799124E1
2.278566917E0,5.149890747E0,-1.109926895E1,-9.527687073E0,1.550780342E1
2.288644917E0,6.524182892E0,-1.205024139E1,-1.331436264E1,1.910616478E1
2.298723917E0,7.783963165E0,-1.282293457E1,-1.506557098E1,2.126003675E1
2.308802917E0,7.937693481E0,-1.312800018E1,-1.466994370E1,2.122636603E1
2.318881917E0,6.341712341E0,-1.296064819E1,-1.243928238E1,1.905076017E1
2.328959917E0,3.920347595E0,-1.260468842E1,-9.534722443E0,1.628367979E1
2.339038917E0,2.063908081E0,-1.202793777E1,-8.136779480E0,1.466758958E1
2.349117917E0,9.755213928E-1,-1.120809265E1,-7.460485840E0,1.349932709E1
2.359195917E0,8.532257080E-3,-1.039303757E1,-5.356910248E0,1.169238171E1
2.369274917E0,-6.713539124E-1,-9.535171509E0,-2.650388489E0,9.919413839E0
2.379353917E0,-1.675765228E0,-8.371790771E0,-5.641767883E-1,8.556480893E0
2.389432917E0,-1.808239746E0,-7.281158752E0,1.750310211E0,7.703803580E0
2.399510917E0,-7.873626709E-1,-6.307433624E0,3.408262482E0,7.212483071E0
2.409589917E0,3.966751099E-1,-5.306465149E0,4.198169861E0,6.777946127E0
2.419668917E0,1.450783081E0,-4.466861115E0,4.525239716E0,6.521917988E0
2.429746917E0,2.392624512E0,-3.451223145E0,4.745581512E0,6.336887023E0
2.439825917E0,3.321443024E0,-2.440674591E0,4.643194427E0,6.208714095E0
2.449904917E0,3.968846741E0,-1.613045654E0,4.203858032E0,6.002173197E0
2.459982917E0,4.733307037E0,-1.171463928E0,3.292104034E0,5.883406515E0
2.470061917E0,5.447471924E0,-1.386865997E0,2.334844666E0,6.086858571E0
2.480140917E0,6.088588715E0,-1.979034576E0,1.619631958E0,6.603839646E0
2.490218917E0,7.013365631E0,-2.622995453E0,3.576063538E-1,7.496351441E0
2.500297917E0,8.233927460E0,-3.236270142E0,-2.265389099E0,9.132523945E0
2.510376917E0,8.499924316E0,-4.581672363E0,-2.525847473E0,9.980998972E0
2.520455917E0,7.514074402E0,-6.510261841E0,-2.016756134E0,1.014456153E1
2.530533917E0,6.463409271E0,-8.344248047E0,-1.782642975E0,1.070420249E1
2.540612917E0,5.926625519E0,-9.789043579E0,-1.224753113E0,1.150870472E1
2.550691917E0,5.246589661E0,-1.099059494E1,3.263214111E-2,1.217870868E1
2.560769917E0,4.135450287E0,-1.216430420E1,2.115401001E0,1.302102788E1
2.570848917E0,3.237317963E0,-1.352766907E1,4.432881775E0,1.459892115E1
2.580927917E0,2.511926422E0,-1.452833817E1,5.880820770E0,1.587345070E1
2.591006917E0,2.182311859E0,-1.475481720E1,6.028264160E0,1.608748223E1
2.601084917E0,2.557431793E0,-1.437700287E1,5.431006165E0,1.557993892E1
2.611163917E0,2.321971436E0,-1.342213852E1,4.673431549E0,1.440091373E1
2.621242917E0,2.449955292E0,-1.209395050E1,3.598367157E0,1.285356627E1
2.631320917E0,2.761607208E0,-1.080123871E1,2.642005920E0,1.145746164E1
2.641399917E0,2.993624725E0,-1.000504440E1,1.800156555E0,1.059732354E1
2.651478917E0,3.542682953E0,-9.691745911E0,7.755372620E-1,1.034804326E1
2.661556917E0,4.018992462E0,-9.648485870E0,-7.634124756E-3,1.045206383E1
2.671635917E0,4.403991852E0,-9.721983032E0,-2.716850281E-1,1.067641846E1
2.681714917E0,4.871918793E0,-9.857601013E0,-2.409988403E-1,1.099845311E1
2.691793917E0,5.465883636E0,-9.743987274E0,1.212478638E-2,1.117234617E1
2.701871917E0,6.107599182E0,-9.440268860E0,2.731819153E-1,1.124704727E1
2.711950917E0,6.956334229E0,-9.670340424E0,-8.352630615E-2,1.191272624E1
2.722029917E0,7.333699493E0,-1.038794815E1,-1.172511749E0,1.276978460E1
2.732107917E0,7.576195221E0,-1.104568039E1,-3.137026520E0,1.375669745E1
2.742186917E0,8.695417786E0,-1.142843445E1,-5.881868591E0,1.551824032E1
2.752265917E0,9.626481628E0,-1.042357407E1,-8.120912476E0,1.634837192E1
2.762343917E0,9.041797485E0,-8.794960785E0,-7.843389587E0,1.485342375E1
2.772422917E0,7.234455872E0,-8.446485443E0,-5.649701385E0,1.247395662E1
2.782501917E0,4.666845245E0,-9.609566803E0,-2.860551453E0,1.105920310E1
2.792580917E0,2.782264252E0,-1.166284698E1,-1.515598297E0,1.208552987E1
2.802658917E0,1.533411255E0,-1.382929184E1,-1.088985443E0,1.395659529E1
2.812737917E0,4.565505981E-1,-1.515718048E1,2.288740540E-1,1.516578194E1
2.822816917E0,-6.457571411E-1,-1.567225937E1,1.174158325E0,1.572944258E1
2.832894917E0,-1.541195068E0,-1.564516571E1,1.129700775E0,1.576143129E1
2.842973917E0,-2.157613220E0,-1.563453781E1,6.972500610E-1,1.579810827E1
2.853052917E0,-2.537822571E0,-1.560579758E1,4.230203247E-1,1.581646002E1
2.863130917E0,-2.159110107E0,-1.533560944E1,1.559756470E-1,1.548764029E1
2.873209917E0,-1.070424042E0,-1.467413498E1,5.987548828E-4,1.471312494E1
2.883288917E0,3.924838257E-1,-1.373289230E1,2.534230042E-1,1.374083687E1
2.893367917E0,1.488654327E0,-1.261606476E1,9.295669556E-1,1.273755378E1
2.903445917E0,1.940414886E0,-1.155731644E1,1.628313904E0,1.183166004E1
2.913524917E0,2.220632172E0,-1.051593201E1,1.972448273E0,1.092733203E1
2.923603917E0,2.196532288E0,-9.585915985E0,2.216440887E0,1.008102919E1
2.933681917E0,2.174977112E0,-8.649613037E0,2.364033966E0,9.226862290E0
2.943760917E0,2.367776184E0,-7.635771332E0,2.766846313E0,8.459716686E0
2.953839917E0,2.862647095E0,-6.823260956E0,3.223546600E0,8.071114616E0
2.963917917E0,3.543581085E0,-6.283483429E0,3.342249756E0,7.950456864E0
2.973996917E0,3.927083588E0,-5.830824738E0,3.412902832E0,7.814627846E0
2.984075917E0,4.080813904E0,-5.485492859E0,3.237018585E0,7.564520034E0
2.994154917E0,4.225413208E0,-5.279371490E0,2.802023163E0,7.319645751E0
3.004232917E0,4.522695007E0,-5.376070404E0,2.540067902E0,7.470531980E0
3.014311917E0,4.520299988E0,-5.876479797E0,2.427501984E0,7.801210975E0
3.024390917E0,4.205654297E0,-6.348598022E0,2.074236603E0,7.892698043E0
3.034468917E0,3.977378998E0,-6.617738342E0,1.609602814E0,7.887003593E0
3.044547917E0,3.829935608E0,-6.699618073E0,1.152154083E0,7.802611621E0
3.054626917E0,3.881578217E0,-6.637796631E0,7.921527100E-1,7.730103459E0
3.064704917E0,4.170627136E0,-6.659950562E0,5.281018066E-1,7.875783371E0
3.074783917E0,4.716541901E0,-6.871161346E0,5.894741821E-1,8.355004821E0
3.084862042E0,5.072501678E0,-7.069199524E0,1.046024780E0,8.763448124E0
3.094941042E0,5.402265930E0,-7.934699707E0,1.620081024E0,9.734916494E0
3.105019042E0,5.476361847E0,-9.398805084E0,1.919458466E0,1.104592218E1
3.115098042E0,5.446424103E0,-1.075827805E1,1.868564301E0,1.220227907E1
3.125177042E0,5.046306152E0,-1.180130905E1,1.834884338E0,1.296545031E1
3.135255042E0,4.038601685E0,-1.232536926E1,1.773661652E0,1.309087112E1
3.145334042E0,3.039429474E0,-1.218241653E1,1.645677795E0,1.266324048E1
3.155413042E0,2.056124268E0,-1.204111038E1,7.101232910E-1,1.223602310E1
3.165491042E0,1.249002686E0,-1.248448837E1,-1.752405853E0,1.266859834E1
3.175570042E0,2.273921356E0,-1.253852600E1,-2.292782135E0,1.294767170E1
3.185649042E0,4.667593689E0,-1.198093552E1,-1.553469543E0,1.295154486E1
3.195727042E0,6.301146698E0,-1.060260178E1,-2.224823456E0,1.253273528E1
3.205806042E0,7.551496582E0,-8.188272400E0,-3.766168213E0,1.175827064E1
3.215885042E0,8.325536957E0,-6.175258484E0,-7.147187347E0,1.259089631E1
3.225964042E0,7.408394165E0,-5.790408783E0,-1.189800797E1,1.516495076E1
3.236042042E0,4.293970642E0,-7.108268280E0,-1.536375092E1,1.746454992E1
3.246121042E0,2.263892212E0,-8.430618439E0,-1.397404083E1,1.647647876E1
3.256200042E0,2.781515808E0,-8.647966461E0,-9.178163910E0,1.291366899E1
3.266278042E0,3.544778595E0,-8.581504669E0,-5.153183899E0,1.061899157E1
3.276357042E0,3.854035492E0,-8.655301208E0,-2.767445068E0,9.870490403E0
3.286436042E0,4.380341034E0,-8.634045410E0,-8.818162537E-1,9.721714233E0
3.296514042E0,4.295766907E0,-8.377778320E0,1.684596863E0,9.564447161E0
3.306593042E0,3.546574860E0,-7.755073242E0,3.923191681E0,9.386734639E0
3.316672042E0,2.886148224E0,-7.021149445E0,5.272785187E0,9.242762288E0
3.326751042E0,2.243983612E0,-6.338269501E0,6.123316498E0,9.094180977E0
3.336829042E0,2.038161621E0,-5.727389832E0,6.359974365E0,8.798089054E0
3.346908042E0,2.117346954E0,-5.331014099E0,6.144272919E0,8.405650430E0
3.356987042E0,2.109413452E0,-5.223687286E0,5.854625244E0,8.124848966E0
3.367065042E0,2.287842407E0,-5.165458374E0,5.657335510E0,7.995100260E0
3.377144042E0,2.787952423E0,-5.381908264E0,5.233417053E0,8.007887944E0
3.387223042E0,3.945644989E0,-5.628595276E0,4.368665314E0,8.144595495E0
3.397301042E0,5.847739563E0,-5.533093872E0,1.606908417E0,8.209344703E0
3.407380042E0,8.078101501E0,-4.970264282E0,-4.173471222E0,1.036229284E1
3.417459042E0,8.773106232E0,-4.843328247E0,-6.103856964E0,1.173380975E1
3.427538042E0,7.843239899E0,-5.722749481E0,-4.445305939E0,1.067834344E1
3.437616042E0,6.646478577E0,-7.113507385E0,-2.840193787E0,1.014122111E1
3.447695042E0,5.631738739E0,-8.420888672E0,-8.710386658E-1,1.016791796E1
3.457774042E0,4.755760345E0,-9.878407745E0,1.552421722E0,1.107294944E1
3.467852042E0,4.099974060E0,-1.139325760E1,4.143533478E0,1.279785043E1
3.477931042E0,3.788621521E0,-1.196132629E1,5.708678741E0,1.378462886E1
3.488010042E0,4.270170135E0,-1.161509628E1,5.773344269E0,1.365563322E1
3.498088042E0,5.073100433E0,-1.104178848E1,4.593647461E0,1.299072892E1
3.508167042E0,5.658233643E0,-1.063074326E1,2.737507324E0,1.234999014E1
3.518246042E0,5.247038727E0,-1.015143997E1,3.781137085E-1,1.143355233E1
3.528325042E0,4.096231842E0,-9.731263733E0,-1.043929138E0,1.060973125E1
3.538403042E0,3.312910767E0,-9.849368134E0,-1.240470428E0,1.046538089E1
3.548482042E0,3.324736176E0,-1.012644196E1,-7.104226685E-1,1.068191919E1
3.558561042E0,3.632346497E0,-1.023017624E1,-2.149530029E-1,1.085802246E1
3.568639042E0,4.116888885E0,-1.021700363E1,4.939727783E-2,1.101537005E1
3.578718042E0,5.160069580E0,-1.011671219E1,2.695893860E-1,1.135987949E1
3.588797042E0,6.160139923E0,-1.017269577E1,3.547622681E-1,1.189776951E1
3.598875042E0,7.093898163E0,-1.064346680E1,1.046324158E-1,1.279131442E1
3.608954042E0,8.482261047E0,-1.196881073E1,-7.647596741E-1,1.468965759E1
3.619033042E0,1.032732422E1,-1.425216248E1,-2.776276703E0,1.781812204E1
3.629112042E0,1.148456772E1,-1.646950150E1,-6.237828369E0,2.102499175E1
3.639190042E0,1.075782898E1,-1.646052017E1,-1.027463379E1,2.218665608E1
3.649269042E0,9.079818420E0,-1.264914597E1,-8.714278564E0,1.784328017E1
3.659348042E0,7.130122833E0,-9.309141541E0,-1.519340515E0,1.182400793E1
3.669426042E0,5.534890137E0,-8.621920624E0,2.705623627E0,1.059683553E1
3.679505042E0,3.733835449E0,-8.772208099E0,4.020938416E0,1.034703377E1
3.689584042E0,1.626966705E0,-9.323212280E0,4.210444336E0,1.035843373E1
3.699662042E0,1.692979431E-1,-1.045276337E1,3.189716949E0,1.092992306E1
3.709741042E0,-3.640429688E-1,-1.159369080E1,1.929786987E0,1.175883801E1
3.719820042E0,-8.708889771E-1,-1.223091568E1,8.807684326E-1,1.229347384E1
3.729899042E0,-1.734742584E0,-1.253074219E1,2.013313293E-1,1.265185227E1
3.739977042E0,-2.729424133E0,-1.257220596E1,-5.897735596E-2,1.286520879E1
3.750056042E0,-3.473227386E0,-1.232896179E1,-1.155596924E-1,1.280937006E1
3.760135042E0,-3.788621521E0,-1.200982544E1,-2.195933533E-1,1.259514912E1
3.770213042E0,-3.322790222E0,-1.189426575E1,-4.712200928E-1,1.235866259E1
3.780292042E0,-1.564845886E0,-1.202209991E1,-7.755372620E-1,1.214829564E1
3.790371042E0,1.005010071E0,-1.234423004E1,-9.375004578E-1,1.242050593E1
3.800449042E0,2.753224640E0,-1.267129990E1,-9.946815491E-1,1.300505588E1
3.810528042E0,3.932023315E0,-1.251562363E1,-1.710942078E0,1.322985128E1
3.820607042E0,4.496798859E0,-1.106169708E1,-2.432441711E0,1.218602129E1
3.830685042E0,4.497846680E0,-8.934770050E0,-1.223106537E0,1.007753592E1
3.840764042E0,4.326602783E0,-7.248526611E0,2.324665833E-1,8.444801383E0
3.850843042E0,4.387226715E0,-6.076912994E0,1.045276337E0,7.567643782E0
3.860922042E0,4.516408081E0,-5.627996521E0,1.628762970E0,7.397645274E0
3.871000042E0,4.280199280E0,-5.926924896E0,2.049388275E0,7.592663360E0
3.881079042E0,3.953578491E0,-6.702761536E0,2.121089172E0,8.065780456E0
3.891158042E0,3.829486542E0,-7.627538452E0,2.014061737E0,8.769307538E0
3.901236042E0,3.838617554E0,-8.210426331E0,1.858834534E0,9.252099820E0
3.911315042E0,3.711382141E0,-8.265661469E0,1.688488770E0,9.216643165E0
3.921394042E0,3.401975555E0,-7.958500214E0,1.450184326E0,8.775773351E0
3.931472042E0,3.193159790E0,-7.780969391E0,1.113235016E0,8.484046576E0
3.941551042E0,2.906206512E0,-8.060587921E0,6.679110718E-1,8.594487718E0
3.951630042E0,2.625540161E0,-8.624615021E0,2.484832764E-1,9.018824166E0
3.961709042E0,2.503244476E0,-9.151968384E0,-6.601272583E-2,9.488367398E0
3.971787042E0,2.239942017E0,-9.553732910E0,-5.095404053E-1,9.826025859E0
3.981866042E0,1.827250214E0,-9.949659576E0,-1.191222839E0,1.018595017E1
3.991945042E0,1.755998383E0,-9.978699188E0,-2.034269714E0,1.033422571E1
4.002023042E0,2.458188171E0,-9.464668121E0,-1.648372192E0,9.916640692E0
4.012102042E0,3.421435089E0,-8.613538055E0,-2.008822632E-1,9.270361891E0
4.022181042E0,3.896547089E0,-8.238118744E0,8.836125183E-1,9.155897047E0
4.032259042E0,3.924239502E0,-8.288563843E0,1.854643250E0,9.356262492E0
4.042338042E0,4.427792358E0,-8.249794464E0,3.012186127E0,9.835533495E0
4.052417042E0,5.202132111E0,-8.678652649E0,3.977229309E0,1.087196134E1
4.062496042E0,5.313650208E0,-9.360634460E0,5.359754333E0,1.202428054E1
4.072574042E0,5.286706238E0,-9.844578094E0,6.617438965E0,1.298674244E1
4.082652542E0,5.174439697E0,-1.017928207E1,7.167395325E0,1.348199412E1
4.092731542E0,5.172942810E0,-1.016970200E1,6.893914032E0,1.333072491E1
4.102809542E0,5.692512360E0,-9.769434357E0,6.515500946E0,1.304983897E1
4.112888542E0,6.075865173E0,-8.817563782E0,5.960155792E0,1.225516323E1
4.122967542E0,5.973029022E0,-7.668702850E0,5.123246155E0,1.098789016E1
4.133045542E0,5.920039215E0,-6.343658295E0,3.277733917E0,9.275365464E0
4.143124542E0,6.384673004E0,-5.169350281E0,-2.065554657E0,8.470699365E0
4.153203542E0,6.746320953E0,-5.005740509E0,-1.131796417E1,1.409491389E1
4.163281542E0,6.727609863E0,-7.165000305E0,-1.826067673E1,2.073765364E1
4.173360542E0,6.831942902E0,-9.643845520E0,-1.487741226E1,1.900043673E1
4.183439542E0,6.817423096E0,-1.138098312E1,-1.085243225E1,1.713999184E1
4.193518542E0,6.359525299E0,-1.325358902E1,-9.790839844E0,1.766243836E1
4.203596542E0,4.566404114E0,-1.437760162E1,-1.026400589E1,1.824602126E1
4.213675542E0,2.577190704E0,-1.431323547E1,-1.004276596E1,1.767392910E1
4.223754542E0,2.122286682E0,-1.370834335E1,-8.735384674E0,1.639297788E1
4.233832542E0,1.655407562E0,-1.271126678E1,-7.400760040E0,1.480161905E1
4.243911542E0,9.728269958E-1,-1.166703827E1,-6.383026428E0,1.333451164E1
4.253990542E0,1.139131165E0,-1.049856812E1,-4.065994720E0,1.131591204E1
4.264068542E0,1.684147797E0,-8.756939850E0,-2.724334717E-1,8.921578859E0
4.274147542E0,2.597698059E0,-7.028484192E0,2.871329041E0,8.024472300E0
4.284226542E0,3.464844818E0,-5.080285492E0,5.211562500E0,8.060696867E0
4.294304542E0,4.865931244E0,-3.619473267E0,6.430777130E0,8.839274184E0
4.304383542E0,5.752088470E0,-2.884950714E0,6.800807648E0,9.362715795E0
4.314462542E0,6.616091766E0,-2.677631836E0,7.394622803E0,1.027729677E1
4.324541542E0,6.970404968E0,-2.725532227E0,6.630461884E0,9.998904746E0
4.334619542E0,7.531587982E0,-2.744542694E0,4.964426422E0,9.428831414E0
4.344698542E0,8.678203583E0,-2.493215332E0,3.794160004E0,9.794028295E0
4.354777542E0,9.858199768E0,-2.158960419E0,1.499282227E0,1.020260065E1
4.364855542E0,1.114402588E1,-1.314716034E0,-2.004032593E0,1.139885686E1
4.374934542E0,1.076187057E1,-1.349294128E0,-2.186054077E0,1.106423451E1
4.385013542E0,9.280850372E0,-2.728376312E0,-2.384541321E0,9.963144998E0
4.395091542E0,8.218210144E0,-4.955744476E0,-3.287613373E0,1.014429805E1
4.405170542E0,7.265890503E0,-6.958280182E0,-2.341880035E0,1.032933831E1
4.415249542E0,5.701793060E0,-8.573421478E0,-4.599934387E-1,1.030658013E1
4.425328542E0,3.815715179E0,-1.003737717E1,1.311871948E0,1.081802342E1
4.435406542E0,2.931653595E0,-1.142813507E1,3.181933136E0,1.221972023E1
4.445485542E0,2.602039032E0,-1.282458115E1,5.206323395E0,1.408354685E1
4.455564542E0,2.154619446E0,-1.421339310E1,6.439758453E0,1.575225118E1
4.465642542E0,1.373992767E0,-1.542033325E1,6.808142395E0,1.691228360E1
4.475721542E0,1.494192810E0,-1.635843246E1,6.387816467E0,1.762484394E1
4.485800542E0,1.062490540E0,-1.638762177E1,5.815107422E0,1.742120856E1
4.495878542E0,-1.956431580E-1,-1.577764023E1,5.418731689E0,1.668337078E1
4.505957542E0,-1.088835754E0,-1.499925888E1,4.726271667E0,1.576391367E1
4.516036542E0,-1.443148956E0,-1.437670349E1,3.582500153E0,1.488645658E1
4.526115542E0,-1.403780823E0,-1.344354401E1,6.882687378E-1,1.353414903E1
4.536193542E0,-1.368154907E0,-1.160506714E1,-4.855303345E0,1.265398758E1
4.546272542E0,-7.861651611E-1,-1.051189041E1,-3.959416351E0,1.126032298E1
4.556351542E0,-2.565664673E-1,-1.049991531E1,-1.284179535E0,1.058126481E1
4.566429542E0,1.824705505E-1,-1.096664474E1,2.516267395E-1,1.097104865E1
4.576508542E0,6.012995911E-1,-1.143891266E1,7.831713867E-1,1.148144771E1
4.586587542E0,7.092251587E-1,-1.167901337E1,6.279441833E-1,1.171736606E1
4.596665542E0,1.039737854E0,-1.129670837E1,4.504133606E-1,1.135339364E1
4.606744542E0,2.077978821E0,-1.083372116E1,-1.552272034E-1,1.103229829E1
4.616823542E0,3.135080566E0,-1.170865173E1,-2.212998047E0,1.232146971E1
4.626901542E0,2.906954956E0,-1.308668610E1,-6.131100311E0,1.474117129E1
4.636980542E0,2.908002777E0,-1.313338898E1,-9.284442902E0,1.634451792E1
4.647059542E0,4.445755005E0,-1.128054199E1,-8.630602570E0,1.488296563E1
4.657138542E0,4.602778473E0,-9.431736603E0,-3.806883545E0,1.116403096E1
4.667216542E0,3.605252838E0,-8.827293549E0,7.593708801E-1,9.565333426E0
4.677295542E0,3.348836060E0,-8.734785919E0,2.151625671E0,9.598993751E0
4.687374542E0,3.340453491E0,-8.883726196E0,2.542612610E0,9.825685703E0
4.697452542E0,2.901566162E0,-9.717043304E0,2.921624451E0,1.055347839E1
4.707531542E0,1.991159363E0,-1.099538498E1,2.267335052E0,1.140193031E1
4.717610542E0,9.506730652E-1,-1.201701050E1,9.683363342E-1,1.209338645E1
4.727688542E0,-1.631607056E-1,-1.237476654E1,7.170089722E-2,1.237604983E1
4.737767542E0,-1.427132263E0,-1.263432678E1,-1.278790741E0,1.277881941E1
4.747846542E0,-2.391576691E0,-1.287188278E1,-2.308050385E0,1.329406266E1
4.757924542E0,-1.619482269E0,-1.277428574E1,-1.012195129E0,1.291625479E1
4.768003542E0,-2.619552612E-2,-1.268656815E1,4.625381470E-1,1.269502419E1
4.778082542E0,1.406325531E0,-1.277832733E1,1.184636536E0,1.290994828E1
4.788161542E0,2.752027130E0,-1.280661850E1,1.315165100E0,1.316483156E1
4.798239542E0,4.418062592E0,-1.276365784E1,1.229692841E0,1.356253601E1
4.808318542E0,6.127208405E0,-1.234931946E1,1.289867706E0,1.384601504E1
4.818397542E0,7.457791443E0,-1.143651764E1,1.439107361E0,1.372893364E1
4.828475542E0,7.946674805E0,-1.017509079E1,1.495090942E0,1.299682307E1
4.838554542E0,8.024962006E0,-8.941805420E0,1.398691406E0,1.209595953E1
4.848633542E0,7.891140289E0,-8.057145081E0,1.207239532E0,1.134218274E1
4.858711542E0,7.593259735E0,-7.435038757E0,1.196461945E0,1.069434037E1
4.868790542E0,7.000941467E0,-7.032376099E0,1.154249725E0,9.989984357E0
4.878869542E0,6.172863464E0,-6.923552399E0,1.061592407E0,9.336316169E0
4.888947542E0,5.505401459E0,-7.352260895E0,8.122109985E-1,9.220893243E0
4.899026542E0,5.475763092E0,-7.933502197E0,5.245092773E-1,9.653991327E0
4.909105542E0,5.007836151E0,-8.135132904E0,1.031355286E-1,9.553504447E0
4.919184542E0,4.007017365E0,-8.177195435E0,-1.666035461E-1,9.107714866E0
4.929262542E0,3.068469086E0,-8.071814575E0,-3.008743286E-2,8.635426933E0
4.939341542E0,2.316283264E0,-7.900420990E0,1.649569702E-1,8.234623900E0
4.949420542E0,1.652563477E0,-7.869585114E0,2.125579834E-1,8.044036101E0
4.959498542E0,9.445358276E-1,-7.861501923E0,5.358856201E-2,7.918221527E0
4.969577542E0,2.389031982E-1,-7.772736511E0,-3.845503235E-1,7.785909488E0
4.979656542E0,-2.489323425E-1,-7.512727203E0,-8.544232178E-1,7.565254548E0
4.989734542E0,-4.978646851E-1,-7.206164703E0,-1.055305481E0,7.300023879E0
4.999813542E0,-4.790039062E-1,-7.053033142E0,-9.204359436E-1,7.128949682E0
5.009892542E0,-1.938468933E-1,-7.221133575E0,-5.484594727E-1,7.244525832E0
5.019970542E0,1.728904724E-1,-7.782166901E0,9.639953613E-2,7.784684043E0
5.030049542E0,4.864883423E-1,-8.626560974E0,7.589218140E-1,8.673533736E0
5.040128542E0,7.580236816E-1,-9.447304230E0,1.203347626E0,9.553753326E0
5.050207542E0,1.019080811E0,-1.014006363E1,1.618584137E0,1.031887740E1
5.060285542E0,1.344504089E0,-1.045695465E1,2.033072205E0,1.073727034E1
5.070364542E0,1.969903564E0,-1.058583664E1,2.757864990E0,1.111513728E1
5.080443917E0,2.633473663E0,-1.072639435E1,3.631298676E0,1.162656653E1
5.090521917E0,3.095562744E0,-1.108938950E1,4.020339661E0,1.219508914E1
5.100600917E0,4.174668732E0,-1.142843445E1,3.884122925E0,1.277197651E1
5.110679917E0,5.607489166E0,-1.174532547E1,3.787124634E0,1.355503294E1
5.120757917E0,7.047644348E0,-1.213152237E1,3.806584167E0,1.453730404E1
5.130836917E0,8.594228210E0,-1.217178864E1,3.803889771E0,1.537799644E1
5.140915917E0,1.011895752E1,-1.124356888E1,1.794917450E0,1.523262522E1
5.150994917E0,1.156435181E1,-9.075028381E0,-5.904022522E0,1.584133374E1
5.161072917E0,1.310075684E1,-6.103258209E0,-1.822430237E1,2.325950961E1
5.171151917E0,1.094269455E1,-3.914360046E0,-1.639241180E1,2.009417685E1
5.181230917E0,7.118147736E0,-3.377875671E0,-1.374352020E1,1.584179342E1
5.191308917E0,4.824168091E0,-4.229305115E0,-9.295070801E0,1.129415604E1
5.201387917E0,4.531975708E0,-5.821544037E0,-3.716471558E0,8.260831655E0
5.211466917E0,5.610632629E0,-7.534731445E0,-4.007167053E-1,9.402762910E0
5.221544917E0,7.514673157E0,-8.857830048E0,1.101409607E0,1.166810048E1
5.231623917E0,8.579558716E0,-9.463320923E0,1.662293243E0,1.288124565E1
5.241702917E0,8.532107391E0,-9.326355743E0,2.960094452E0,1.298229283E1
5.251780917E0,6.934180298E0,-8.406069489E0,4.179309082E0,1.167096761E1
5.261859917E0,5.002147980E0,-7.313790894E0,5.066364441E0,1.020691287E1
5.271938917E0,3.057092743E0,-6.275250549E0,6.413113861E0,9.479061920E0
5.282017917E0,1.474733276E0,-5.480852509E0,7.681576080E0,9.550978669E0
5.292095917E0,1.165177002E0,-4.988526306E0,8.366252289E0,9.810056550E0
5.302174917E0,1.716630249E0,-4.388424225E0,8.030201111E0,9.310704402E0
5.312253917E0,2.298769684E0,-3.823498993E0,7.290289764E0,8.547035244E0
5.322331917E0,3.154390411E0,-3.803740082E0,6.256988525E0,7.972987074E0
5.332410917E0,4.161645813E0,-4.394561462E0,4.959935760E0,7.825115275E0
5.342489917E0,5.025499420E0,-5.081483002E0,3.441044312E0,7.932080425E0
5.352567917E0,5.743107147E0,-5.842650146E0,-1.140777740E0,8.271711691E0
5.362646917E0,5.203030243E0,-6.527026978E0,-8.375532990E0,1.182468426E1
5.372725917E0,4.214036865E0,-8.370144196E0,-5.023852844E0,1.063280386E1
5.382803917E0,3.201841736E0,-1.008318192E1,-3.199147339E0,1.105246089E1
5.392882917E0,2.358645172E0,-1.143262573E1,-3.785627747E-1,1.167953115E1
5.402961917E0,2.269430695E0,-1.256322464E1,3.276386719E0,1.318027462E1
5.413040917E0,2.911295929E0,-1.362167358E1,6.402485962E0,1.533027924E1
5.423118917E0,3.630849609E0,-1.436637497E1,7.241640930E0,1.649294279E1
5.433197917E0,3.287463684E0,-1.456067093E1,6.617738342E0,1.632835007E1
5.443276917E0,2.663411407E0,-1.431383423E1,5.713618469E0,1.564049381E1
5.453354917E0,2.601589966E0,-1.364188156E1,4.824168091E0,1.470176182E1
5.463433917E0,2.379152527E0,-1.304597076E1,3.739523621E0,1.377830747E1
5.473512917E0,2.565964050E0,-1.264106277E1,2.103126526E0,1.306919205E1
5.483590917E0,3.215014343E0,-1.182136734E1,1.007405090E-1,1.225117103E1
5.493669917E0,3.763324127E0,-1.090242828E1,-1.867366791E0,1.168386108E1
5.503748917E0,4.148622894E0,-1.018931122E1,-3.436553650E0,1.152575533E1
5.513826917E0,4.373754730E0,-9.565109253E0,-4.815037079E0,1.156743824E1
5.523905917E0,5.773344269E0,-9.079818420E0,-6.028862915E0,1.233376644E1
5.533984917E0,8.977431335E0,-9.039701843E0,-8.303682404E0,1.520728852E1
5.544063917E0,1.243284576E1,-1.006372238E1,-1.086904770E1,1.933883036E1
5.554141917E0,1.259585678E1,-1.108953918E1,-7.505841522E0,1.838399152E1
5.564220917E0,9.947563934E0,-1.079525116E1,-1.761686554E0,1.478495909E1
5.574299917E0,7.331454163E0,-1.001761826E1,1.642085266E0,1.252195431E1
5.584377917E0,5.384752350E0,-9.787546692E0,2.963986359E0,1.155754486E1
5.594456917E0,3.544179840E0,-1.032522858E1,3.402873688E0,1.143464495E1
5.604535917E0,1.674867096E0,-1.190055267E1,2.508932648E0,1.227693271E1
5.614613917E0,9.744735718E-2,-1.359787308E1,4.498146057E-1,1.360565990E1
5.624692917E0,-1.403032379E0,-1.477532455E1,-1.184636536E0,1.488899188E1
5.634771917E0,-2.554887085E0,-1.488699234E1,-1.531315613E0,1.518205903E1
5.644849917E0,-2.894231415E0,-1.398332153E1,-6.233038330E-1,1.429329788E1
5.654928917E0,-3.145109711E0,-1.310135559E1,2.454895020E-1,1.347581161E1
5.665007917E0,-3.659440155E0,-1.287008652E1,6.738986206E-1,1.339719256E1
5.675086917E0,-3.899989929E0,-1.282682648E1,6.391708374E-1,1.342184556E1
5.685164917E0,-3.131338348E0,-1.270153702E1,4.834945679E-2,1.308192112E1
5.695243917E0,-8.294252014E-1,-1.218256622E1,-2.939886475E-1,1.221430699E1
5.705322917E0,1.933978271E0,-1.171463928E1,-2.634521484E-2,1.187323627E1
5.715400917E0,3.648213501E0,-1.153995255E1,1.287322998E-2,1.210289768E1
5.725479917E0,4.333937531E0,-1.131841324E1,-3.203338623E-2,1.211983989E1
5.735558917E0,4.667144623E0,-1.060335022E1,5.298980713E-2,1.158516650E1
5.745636917E0,4.856351166E0,-9.389524384E0,2.791694641E-1,1.057474588E1
5.755715917E0,4.943919067E0,-8.142916718E0,4.511618042E-1,9.536926936E0
5.765794917E0,4.968318329E0,-6.941215668E0,3.752696228E-1,8.544324973E0
5.775872917E0,5.061424713E0,-6.055507507E0,1.119971008E0,7.971293895E0
5.785951917E0,4.824168091E0,-5.895041199E0,1.886976013E0,7.847597529E0
5.796030917E0,3.914360046E0,-6.570436707E0,2.666105804E0,8.099442774E0
5.806109917E0,3.560944977E0,-7.581284637E0,2.708318024E0,8.802908179E0
5.816187917E0,3.377725983E0,-8.390202484E0,2.333497467E0,9.340756980E0
5.826266917E0,3.126398621E0,-8.930878143E0,2.002835083E0,9.671933680E0
5.836345917E0,2.956352234E0,-9.015302582E0,1.752555542E0,9.648168225E0
5.846423917E0,2.805166626E0,-8.908574524E0,1.611399078E0,9.477777526E0
5.856502917E0,2.871029663E0,-8.890462189E0,1.558259583E0,9.471605048E0
5.866581917E0,3.190016327E0,-8.963210907E0,1.412911835E0,9.618298903E0
5.876659917E0,3.498824158E0,-9.088949432E0,1.001417542E0,9.790485655E0
5.886738917E0,3.576811981E0,-9.255702667E0,2.139051819E-1,9.925087971E0
5.896817917E0,3.375181274E0,-9.314979401E0,-8.722361755E-1,9.945928102E0
5.906895917E0,3.181484070E0,-9.191935272E0,-2.139351196E0,9.959434646E0
5.916974917E0,3.092868347E0,-9.031319275E0,-3.280428314E0,1.009414545E1
5.927053917E0,3.146606598E0,-8.853788452E0,-3.099005585E0,9.894166900E0
5.937132917E0,3.395838318E0,-8.550369415E0,-1.586101685E0,9.335751366E0
5.947210917E0,3.693718872E0,-8.145910492E0,3.397933960E-2,8.944303855E0
5.957289917E0,4.219275970E0,-8.008496246E0,1.243164825E0,9.136944819E0
5.967368917E0,4.476441193E0,-8.261021118E0,2.321672058E0,9.678489387E0
5.977446917E0,4.439168701E0,-8.560997314E0,3.481310577E0,1.025262977E1
5.987525917E0,4.132606201E0,-8.988208923E0,4.986131287E0,1.107825974E1
5.997604917E0,3.678151245E0,-9.437424774E0,6.469247131E0,1.201852493E1
6.007682917E0,3.227737885E0,-9.969268799E0,7.786807251E0,1.305522805E1
6.017761917E0,2.709365845E0,-1.043584854E1,9.187743988E0,1.416552991E1
6.027840917E0,2.542163544E0,-1.057925034E1,8.756191406E0,1.396617418E1
6.037918917E0,2.868634644E0,-1.005459137E1,7.181915131E0,1.268478527E1
6.047997917E0,3.356320496E0,-9.514664154E0,5.745352478E0,1.161046064E1
6.058076917E0,3.218307495E0,-9.069639587E0,4.489015045E0,1.061918648E1
6.068155917E0,3.028202820E0,-8.736133118E0,2.594554596E0,9.603215489E0
6.078233667E0,3.495680695E0,-8.486003265E0,-6.959028625E-1,9.204146660E0
6.088312667E0,4.597389679E0,-8.369994507E0,-5.357658691E0,1.094976285E1
6.098391667E0,6.066434784E0,-8.538993073E0,-1.042102936E1,1.477544878E1
6.108469667E0,7.577392731E0,-8.894354095E0,-1.432536026E1,1.848627496E1
6.118548667E0,8.886869659E0,-9.591005402E0,-1.526166321E1,2.009682066E1
6.128627667E0,9.887987823E0,-1.021326141E1,-1.348889969E1,1.959677082E1
6.138705667E0,1.098191299E1,-1.041010208E1,-1.158081757E1,1.905486746E1
6.148784667E0,1.213765961E1,-1.050051407E1,-1.102786743E1,1.947299249E1
6.158863667E0,1.219454132E1,-1.061577438E1,-1.090452393E1,1.950154214E1
6.168941667E0,9.467811584E0,-1.118713623E1,-9.261241150E0,1.733672578E1
6.179020667E0,5.932014313E0,-1.135927826E1,-7.267686768E0,1.473232050E1
6.189099667E0,3.339255981E0,-1.067430267E1,-6.378086700E0,1.287522264E1
6.199178667E0,2.450104980E0,-9.511221313E0,-5.493126984E0,1.125347899E1
6.209256667E0,2.187550964E0,-8.102650452E0,-3.568878479E0,9.120044800E0
6.219335667E0,1.620829468E0,-6.846612396E0,-4.873864746E-1,7.052711184E0
6.229414667E0,6.973997498E-1,-5.766009521E0,1.921254730E0,6.117552775E0
6.239492667E0,1.199605408E0,-4.560416565E0,3.943998413E0,6.147485328E0
6.249571667E0,2.406545563E0,-3.549868011E0,6.254593506E0,7.583730241E0
6.259650667E0,3.539240112E0,-2.557581482E0,7.643106079E0,8.802528849E0
6.269728667E0,3.595972137E0,-2.125130768E0,8.131390686E0,9.141482970E0
6.279807667E0,3.306025085E0,-2.344724121E0,7.914641418E0,8.892079726E0
6.289886667E0,3.350332947E0,-2.605332184E0,6.829547882E0,8.040846405E0
6.299964667E0,4.259841614E0,-2.817740479E0,5.119354248E0,7.231438301E0
6.310043667E0,5.756279755E0,-3.225342865E0,3.573818207E0,7.503983594E0
6.320122667E0,7.225773926E0,-3.564836884E0,1.013392639E0,8.120765695E0
6.330200667E0,7.812853088E0,-4.372407532E0,-2.917433167E0,9.416476904E0
6.340279667E0,6.628815308E0,-6.624624023E0,-5.642516327E0,1.093914194E1
6.350358667E0,5.275180206E0,-9.097781067E0,-6.008056183E0,1.211172513E1
6.360436667E0,4.193978577E0,-1.066921326E1,-5.437293091E0,1.268801497E1
6.370515667E0,3.113974457E0,-1.126003464E1,-3.689377899E0,1.225139691E1
6.380594667E0,2.682421875E0,-1.114612152E1,-5.382806396E-1,1.147698384E1
6.390673667E0,2.740052032E0,-1.121123611E1,3.297043762E0,1.200292456E1
6.400751667E0,3.005899200E0,-1.200907700E1,5.982309723E0,1.374923234E1
6.410830667E0,3.111130371E0,-1.312395859E1,6.822362823E0,1.511496132E1
6.420909667E0,2.823278961E0,-1.384949982E1,6.328839111E0,1.548656688E1
6.430987667E0,2.299368439E0,-1.403855667E1,4.741539917E0,1.499501148E1
6.441066667E0,1.587748260E0,-1.365894608E1,1.125210114E0,1.379687828E1
6.451145667E0,1.047970734E0,-1.284044815E1,-3.184178467E0,1.327080796E1
6.461223667E0,4.930746460E-1,-1.212703171E1,-4.271816711E0,1.286687369E1
6.471302667E0,1.032852173E0,-1.149893784E1,-2.882555695E0,1.189964211E1
6.481381667E0,2.151775360E0,-1.117007172E1,-5.287005615E-1,1.138771986E1
6.491459667E0,2.626138916E0,-1.082758392E1,1.118174744E0,1.119747713E1
6.501538667E0,2.400108948E0,-1.010159363E1,1.382525024E0,1.047444950E1
6.511617667E0,1.742526398E0,-9.206754456E0,8.072712708E-1,9.404914288E0
6.521696667E0,1.122216339E0,-8.149353333E0,-3.288661194E-1,8.232829536E0
6.531774667E0,1.080902252E0,-7.633226624E0,-3.410956879E0,8.430250601E0
6.541853667E0,1.000669098E0,-1.033121613E1,-7.932903442E0,1.306393211E1
6.551932667E0,7.194039917E-1,-1.316706894E1,-7.735464020E0,1.528812121E1
6.562010667E0,1.445843353E0,-1.485600677E1,-7.915689240E0,1.689525189E1
6.572089667E0,3.188519440E0,-1.606339600E1,-9.599986725E0,1.898312651E1
6.582168667E0,5.235512695E0,-1.581566116E1,-7.810757446E0,1.839982780E1
6.592246667E0,5.243296509E0,-1.422506882E1,-2.760110321E0,1.540983290E1
6.602325667E0,4.307742004E0,-1.260783188E1,1.576222229E-1,1.332437280E1
6.612404667E0,3.698209534E0,-1.139969421E1,1.063688049E0,1.203167545E1
6.622482667E0,2.392923889E0,-1.075513458E1,1.646575928E0,1.114047651E1
6.632561667E0,8.828640747E-1,-1.077384567E1,1.217268677E0,1.087827848E1
6.642640667E0,-2.077679443E-1,-1.117426300E1,1.167572021E-2,1.117620049E1
6.652719667E0,-8.122109985E-1,-1.181148788E1,-8.126600647E-1,1.186723848E1
6.662797667E0,-4.689747620E-1,-1.243988113E1,-4.577481079E-1,1.245713102E1
6.672876667E0,5.718109131E-1,-1.282353333E1,4.561015320E-1,1.284437633E1
6.682955667E0,1.944306793E0,-1.312111450E1,1.203048248E0,1.331883252E1
6.693033667E0,3.519331512E0,-1.328981369E1,1.479373627E0,1.382726974E1
6.703112667E0,5.109474792E0,-1.301648209E1,1.529968414E0,1.406685259E1
6.713191667E0,6.493347015E0,-1.202195023E1,1.686991882E0,1.376723590E1
6.723269667E0,7.198979645E0,-1.044677582E1,1.880389709E0,1.282561103E1
6.733348667E0,7.395820313E0,-8.838071136E0,1.844763794E0,1.167102450E1
6.743427667E0,7.307653656E0,-7.311096497E0,1.709594879E0,1.047743521E1
6.753505667E0,7.381300507E0,-6.075865173E0,1.338516541E0,9.653567284E0
6.763584667E0,7.326364746E0,-5.103786621E0,1.037342834E0,8.988900846E0
6.773663667E0,7.216044159E0,-4.419260101E0,6.879693604E-1,8.489667543E0
6.783741667E0,7.339237976E0,-4.105512543E0,3.168910217E-1,8.415465954E0
6.793820667E0,7.100334778E0,-4.328698425E0,3.902384949E-1,8.324942648E0
6.803899667E0,6.037993927E0,-5.271437988E0,5.792953491E-1,8.036231220E0
6.813978667E0,4.695136414E0,-5.977968750E0,6.701564026E-1,7.630827342E0
6.824056667E0,3.639082489E0,-6.442153473E0,7.029382324E-1,7.432253016E0
6.834135667E0,2.947819977E0,-6.937024384E0,8.476872253E-1,7.584887840E0
6.844214667E0,2.576891327E0,-7.401209106E0,9.747729492E-1,7.897369654E0
6.854292667E0,2.446362762E0,-7.912246399E0,1.026265869E0,8.345151615E0
6.864371667E0,2.384990387E0,-8.490194550E0,1.109492798E0,8.888338253E0
6.874450667E0,2.302811279E0,-9.106163635E0,1.162931671E0,9.464542567E0
6.884528667E0,2.187850342E0,-9.485624542E0,1.181792450E0,9.806140702E0
6.894607667E0,1.729353790E0,-9.333989868E0,1.172062683E0,9.564923540E0
6.904686667E0,1.226250000E0,-9.041947174E0,1.100212097E0,9.190808692E0
6.914764667E0,1.162931671E0,-9.157207489E0,1.122665405E0,9.298776085E0
6.924843667E0,1.346749420E0,-9.649533691E0,1.039139099E0,9.798318454E0
6.934922667E0,1.437011719E0,-1.050934570E1,1.247655487E0,1.068026189E1
6.945000667E0,1.290765839E0,-1.147543671E1,1.615590363E0,1.166026828E1
6.955079667E0,8.195457458E-1,-1.216056198E1,1.817071381E0,1.232285159E1
6.965158667E0,9.599537659E-1,-1.231279541E1,2.041454773E0,1.251774659E1
6.975237667E0,1.375190277E0,-1.156450150E1,2.458786926E0,1.190270878E1
6.985315667E0,1.785636749E0,-1.070798264E1,3.892056427E0,1.153245394E1
6.995394667E0,2.121837616E0,-1.031235535E1,4.335883484E0,1.138625282E1
7.005473667E0,2.458637238E0,-9.764195251E0,3.594924316E0,1.069148665E1
7.015551667E0,3.015778656E0,-9.244925079E0,3.174897766E0,1.022954234E1
7.025630667E0,4.349205780E0,-8.668324127E0,3.114722900E0,1.018611471E1
7.035709667E0,6.102360077E0,-7.733967133E0,3.399281158E0,1.042152381E1
7.045787667E0,6.737040253E0,-6.968908081E0,3.586541748E0,1.033521518E1
7.055866667E0,6.594985657E0,-6.040688324E0,2.798879700E0,9.371098058E0
7.065945667E0,6.700665894E0,-5.415438538E0,2.197430420E-1,8.618247210E0
7.076023667E0,7.634723511E0,-5.612129517E0,-5.437293091E0,1.092470398E1
7.086102708E0,9.156309357E0,-6.525679779E0,-1.414753006E1,1.807138911E1
7.096181708E0,9.739047546E0,-8.328830109E0,-1.824391159E1,2.229481483E1
7.106259708E0,7.764653320E0,-1.048030609E1,-1.692739929E1,2.136968656E1
7.116338708E0,4.774920502E0,-1.210412933E1,-1.328726898E1,1.859734738E1
7.126417708E0,2.985092468E0,-1.340447525E1,-8.290210419E0,1.604114468E1
7.136496708E0,2.184108124E0,-1.442984299E1,-4.689597931E0,1.532915607E1
7.146574708E0,2.146835632E0,-1.423479858E1,-2.801125031E0,1.466576610E1
7.156653708E0,2.767145691E0,-1.286903870E1,-5.745053101E-1,1.317570904E1
7.166732708E0,3.145259399E0,-1.119551880E1,8.587641907E-1,1.166060778E1
7.176810708E0,3.503614197E0,-9.864486694E0,1.817969513E0,1.062489639E1
7.186889708E0,3.594924316E0,-8.750353546E0,2.783761139E0,9.861110186E0
7.196968708E0,3.602857819E0,-7.323520660E0,3.155737610E0,8.750612504E0
7.207046708E0,4.174069977E0,-5.607189789E0,2.733914795E0,7.505846228E0
7.217125708E0,4.854704590E0,-4.012555847E0,1.501527557E0,6.474824020E0
7.227204708E0,5.756429443E0,-2.683320007E0,-1.610650635E-1,6.353158911E0
7.237282708E0,6.840924225E0,-1.581012268E0,-7.984396362E-1,7.066494880E0
7.247361708E0,7.502248993E0,-1.162931671E0,-3.260220337E-1,7.598844675E0
7.257440708E0,7.645501099E0,-1.294957123E0,3.963757324E-1,7.764516387E0
7.267518708E0,7.817643127E0,-1.715432739E0,8.881031799E-1,8.052762309E0
7.277597708E0,8.201445007E0,-2.704875183E0,1.068627777E0,8.701839765E0
7.287676708E0,8.307274933E0,-4.179458771E0,1.160985718E0,9.371583658E0
7.297755708E0,7.930658112E0,-5.705086212E0,8.987310791E-1,9.810762678E0
7.307833708E0,7.692353668E0,-7.116501160E0,9.714797974E-2,1.047980589E1
7.317912708E0,7.187752991E0,-8.608598328E0,7.768844604E-2,1.121506994E1
7.327991708E0,6.267017670E0,-1.003962250E1,1.678908691E0,1.195358795E1
7.338069708E0,5.117258606E0,-1.153156998E1,3.533252563E0,1.310142418E1
7.348148708E0,3.728147278E0,-1.247550705E1,4.066593475E0,1.364091422E1
7.358227708E0,2.421514435E0,-1.293999115E1,3.268453217E0,1.356428728E1
7.368305708E0,8.288264465E-1,-1.367406464E1,2.035317535E0,1.384953120E1
7.378384708E0,-1.603166199E-1,-1.420276520E1,1.015488281E0,1.423992476E1
7.388463708E0,-9.654922485E-2,-1.366179016E1,2.664459229E-1,1.366472925E1
7.398541708E0,9.960287476E-1,-1.233090775E1,-1.703457642E-1,1.237224219E1
7.408620708E0,2.164947968E0,-1.128892456E1,-5.242098999E-1,1.150659000E1
7.418699708E0,2.801125031E0,-1.079614929E1,-6.902146912E-1,1.117495133E1
7.428777708E0,2.866838379E0,-1.043584854E1,-4.822970581E-1,1.083320394E1
7.438856708E0,2.812052307E0,-9.782906342E0,-3.243754578E-1,1.018420906E1
7.448935708E0,2.782264252E0,-9.295070801E0,-2.478845215E-1,9.705708748E0
7.459014708E0,2.506088562E0,-8.983718262E0,-2.649490356E-1,9.330480785E0
7.469092708E0,2.293231201E0,-8.720565491E0,-3.754193115E-1,9.024860746E0
7.479171708E0,2.059866486E0,-8.445437622E0,-4.526586914E-1,8.704789857E0
7.489250708E0,1.700164490E0,-7.977660370E0,-8.265811157E-1,8.198588940E0
7.499328708E0,1.878294067E0,-7.725135498E0,-1.485211487E0,8.087741355E0
7.509407708E0,2.898871765E0,-8.438402252E0,-2.796784058E0,9.350512881E0
7.519486708E0,3.676953735E0,-1.013377670E1,-3.923041992E0,1.147186460E1
7.529564708E0,4.312532043E0,-1.147618515E1,-4.323159943E0,1.299963346E1
7.539643708E0,5.028493195E0,-1.208661575E1,-5.181475067E0,1.407905210E1
7.549722708E0,5.338348846E0,-1.221879089E1,-5.413342896E0,1.439100763E1
7.559800708E0,4.902305603E0,-1.240006393E1,-4.626728668E0,1.411385149E1
7.569879708E0,3.801644440E0,-1.264315842E1,-3.245700531E0,1.359545980E1
7.579958708E0,2.474204865E0,-1.270722519E1,-1.648821259E0,1.305043575E1
7.590036708E0,1.466201019E0,-1.251936584E1,-5.851332092E-1,1.261850417E1
7.600115708E0,7.376660156E-1,-1.238165222E1,2.445913696E-1,1.240601821E1
7.610194708E0,-1.318757629E-1,-1.220965988E1,7.604187012E-1,1.223402723E1
7.620273708E0,-9.559121704E-1,-1.179651901E1,6.611750793E-1,1.185364001E1
7.630351708E0,-1.195414124E0,-1.138951538E1,5.465135193E-1,1.146511023E1
7.640430708E0,-6.033952332E-1,-1.130389343E1,5.122348022E-1,1.133156993E1
7.650509708E0,4.025129700E-1,-1.160162430E1,2.856060791E-1,1.161211754E1
7.660587708E0,1.545386353E0,-1.208017914E1,7.364685059E-2,1.217884932E1
7.670666708E0,2.715652771E0,-1.226399689E1,2.860551453E-1,1.256432319E1
7.680745708E0,3.683240662E0,-1.173873917E1,1.229094086E0,1.236426024E1
7.690823708E0,4.405339050E0,-1.104089035E1,2.096989288E0,1.207085896E1
7.700902708E0,4.873265991E0,-1.012404694E1,2.519859924E0,1.151497902E1
7.710981708E0,5.215155029E0,-8.983568573E0,2.610720978E0,1.071065872E1
7.721059708E0,5.557193756E0,-8.017926636E0,2.496658173E0,1.006989831E1
7.731138708E0,5.987548828E0,-7.361990662E0,2.145937500E0,9.729064458E0
7.741217708E0,6.506669312E0,-6.889573059E0,1.194665680E0,9.551449552E0
7.751295708E0,6.951693878E0,-6.768175507E0,-8.786727905E-1,9.741987135E0
7.761374708E0,6.997648315E0,-7.211254120E0,-2.871029663E0,1.045045833E1
7.771453708E0,6.587501221E0,-8.011789398E0,-3.269501038E0,1.087536568E1
7.781532708E0,5.666167145E0,-8.280929718E0,-2.270927582E0,1.028767997E1
7.791610708E0,4.452041931E0,-8.092920685E0,-1.221609650E0,9.317101089E0
7.801689708E0,3.435505829E0,-8.139473877E0,-3.936813354E-1,8.843569431E0
7.811768708E0,2.701282654E0,-8.312663727E0,2.321672058E-1,8.743638134E0
7.821846708E0,2.323618011E0,-8.454568634E0,6.806346130E-1,8.794441138E0
7.831925708E0,2.224673767E0,-8.469088440E0,9.460327148E-1,8.807361141E0
7.842004708E0,2.295326843E0,-8.367749176E0,1.072369995E0,8.742867321E0
7.852082708E0,2.448308716E0,-8.293802948E0,1.132544861E0,8.721470104E0
7.862161708E0,2.607427826E0,-8.389903107E0,1.048719177E0,8.848105216E0
7.872240708E0,2.824177094E0,-8.763526154E0,8.125103760E-1,9.243134750E0
7.882318708E0,3.013683014E0,-9.280101929E0,2.683918762E-1,9.760871442E0
7.892397708E0,3.130739594E0,-9.687554626E0,-6.676116943E-1,1.020274230E1
7.902476708E0,3.345093842E0,-9.936486969E0,-1.729802856E0,1.062617730E1
7.912554708E0,3.624862061E0,-1.018976028E1,-2.370620270E0,1.107206756E1
7.922633708E0,3.868854675E0,-1.008153534E1,-2.256856842E0,1.103171764E1
7.932712708E0,3.775448914E0,-9.536518707E0,-1.451681213E0,1.035888903E1
7.942791708E0,3.737727356E0,-9.123677216E0,-3.432362366E-1,9.865591864E0
7.952869708E0,3.922742615E0,-9.014853516E0,6.821315002E-1,9.854988428E0
7.962948708E0,4.226610718E0,-8.521778870E0,1.373094635E0,9.610949076E0
7.973027708E0,4.719535675E0,-8.134833527E0,1.946402435E0,9.604062470E0
7.983105708E0,4.749024353E0,-8.133935394E0,2.371219025E0,9.712714192E0
7.993184708E0,4.416865082E0,-8.289611664E0,2.760858765E0,9.790234921E0
8.003263708E0,3.848646698E0,-8.578959961E0,3.387455750E0,9.994272954E0
8.013341708E0,3.230282593E0,-8.874894562E0,4.167932739E0,1.032328157E1
8.023420708E0,2.730022888E0,-9.493707733E0,4.506828003E0,1.085794687E1
8.033499708E0,2.414479065E0,-1.036055511E1,3.912414093E0,1.133480461E1
8.043577708E0,2.464026031E0,-1.084749252E1,2.003882904E0,1.130287862E1
8.053656708E0,2.711910553E0,-1.050904633E1,1.002914429E-2,1.085332272E1
8.063735708E0,3.049907684E0,-9.450896759E0,-1.195863190E0,1.000257343E1
8.073813708E0,3.687282257E0,-8.317753143E0,-1.650617523E0,9.246924137E0
8.083893167E0,4.525389404E0,-7.675289154E0,-1.708846436E0,9.072451102E0
8.093972167E0,5.429958344E0,-7.344177704E0,-1.874551849E0,9.323912183E0
8.104050167E0,6.219566345E0,-7.223378906E0,-2.366728363E0,9.821487234E0
8.114129167E0,6.907086639E0,-7.311246185E0,-3.271596680E0,1.057664935E1
8.124208167E0,7.578440552E0,-7.602540436E0,-4.539609833E0,1.165501779E1
8.134287167E0,8.189769287E0,-8.048463135E0,-6.175408173E0,1.303785818E1
8.144365167E0,8.488248596E0,-8.569978638E0,-7.867788849E0,1.440128465E1
8.154444167E0,8.490344238E0,-9.228758698E0,-8.853788452E0,1.535074924E1
8.164523167E0,8.076754303E0,-9.847721558E0,-8.711135101E0,1.543034202E1
8.174601167E0,7.085066528E0,-1.026340714E1,-8.209677887E0,1.493099142E1
8.184680167E0,5.589376831E0,-1.054152878E1,-7.757019196E0,1.423152519E1
8.194759167E0,4.029620361E0,-1.064795746E1,-7.232958984E0,1.348823687E1
8.204837167E0,3.309916992E0,-1.036324951E1,-6.360872498E0,1.260211053E1
8.214916167E0,3.273392944E0,-9.618697815E0,-5.983058167E0,1.179115915E1
8.224995167E0,3.016527100E0,-8.586444397E0,-5.565576324E0,1.066780685E1
8.235073167E0,2.887495422E0,-7.746540985E0,-4.981790314E0,9.652189481E0
8.245152167E0,2.520758057E0,-6.924899597E0,-4.413122864E0,8.589767693E0
8.255231167E0,1.658850403E0,-6.436315613E0,-3.096311188E0,7.332467954E0
8.265309167E0,8.931925964E-1,-6.348448334E0,-1.558858337E0,6.597774517E0
8.275388167E0,2.502795410E-1,-6.482120361E0,-4.296066284E-2,6.487092557E0
8.285467167E0,4.266128540E-2,-6.757098541E0,1.124461670E0,6.850154358E0
8.295545167E0,3.059637451E-1,-6.984026642E0,1.684746552E0,7.190870107E0
8.305624167E0,6.286926270E-1,-7.082671509E0,1.765728149E0,7.326478419E0
8.315703167E0,1.012045441E0,-6.944658508E0,1.637893982E0,7.206609082E0
8.325782167E0,1.696571960E0,-6.685996399E0,1.365909576E0,7.031828584E0
8.335860167E0,2.532882843E0,-6.524482269E0,7.384144592E-1,7.037728347E0
8.345939167E0,3.218457184E0,-6.602470093E0,1.074765015E-1,7.345926025E0
8.356018167E0,3.390748901E0,-7.136260071E0,-5.954617310E-1,7.923254419E0
8.366096167E0,3.342998199E0,-7.504045258E0,-7.855664063E-1,8.252481249E0
8.376175167E0,4.533173218E0,-7.809859314E0,-1.527872772E0,9.158490986E0
8.386254167E0,4.909041595E0,-8.446335754E0,-2.273771667E0,1.003041947E1
8.396332167E0,5.392985229E0,-8.600365448E0,-2.367327118E0,1.042376195E1
8.406411167E0,5.819149017E0,-8.796607361E0,-2.522704010E0,1.084466836E1
8.416490167E0,6.034700775E0,-8.723559265E0,-2.163151703E0,1.082577133E1
8.426568167E0,6.445746002E0,-8.723110199E0,-1.531465302E0,1.095379747E1
8.436647167E0,6.530769196E0,-8.874595184E0,-3.499722290E-1,1.102414924E1
8.446726167E0,6.177503815E0,-8.847202148E0,8.671467590E-1,1.082527056E1
8.456804167E0,5.700445862E0,-8.826096039E0,1.668580170E0,1.063857199E1
8.466883167E0,5.051245880E0,-8.939410400E0,1.961071930E0,1.045341793E1
8.476962167E0,4.339925079E0,-9.048084412E0,1.767225037E0,1.018949781E1
8.487040167E0,3.577560425E0,-8.929980011E0,1.080303497E0,9.680420303E0
8.497119167E0,2.840193787E0,-8.807834015E0,5.180726624E-1,9.268928744E0
8.507198167E0,2.387535095E0,-8.781788177E0,4.231700134E-1,9.110389689E0
8.517277167E0,2.243384857E0,-8.787326660E0,4.278103638E-1,9.079256972E0
8.527355167E0,2.440375214E0,-8.701854401E0,3.622467041E-1,9.044828570E0
8.537434167E0,2.957549744E0,-8.758436737E0,2.621049500E-1,9.248027550E0
8.547513167E0,3.621269531E0,-9.182355194E0,2.465373230E-1,9.873703489E0
8.557591167E0,4.190535736E0,-9.614207153E0,1.215472412E-1,1.048848620E1
8.567670167E0,4.811743927E0,-1.003558090E1,-2.585124207E-1,1.113250162E1
8.577749167E0,5.554349670E0,-1.065604065E1,-1.209185486E0,1.207742241E1
8.587827167E0,6.524182892E0,-1.144310394E1,-2.874023438E0,1.348219570E1
8.597906167E0,7.447163544E0,-1.196716415E1,-4.027824097E0,1.465935298E1
8.607985167E0,7.408094788E0,-1.189755890E1,-3.999383240E0,1.457487024E1
8.618063167E0,6.519841919E0,-1.150747009E1,-3.390599213E0,1.365380422E1
8.628142167E0,5.441035309E0,-1.106723557E1,-2.352807312E0,1.255485048E1
8.638221167E0,4.126768341E0,-1.079644867E1,-1.133293304E0,1.161369341E1
8.648299167E0,2.766546936E0,-1.064930466E1,-3.345542908E-1,1.100787891E1
8.658378167E0,1.636397095E0,-1.015069153E1,1.948947144E-1,1.028359460E1
8.668457167E0,9.967771912E-1,-9.435628510E0,5.541476440E-1,9.504300592E0
8.678536167E0,9.675878906E-1,-8.660240936E0,7.512876892E-1,8.746452572E0
8.688614167E0,1.297950897E0,-8.117020569E0,9.524693298E-1,8.275137296E0
8.698693167E0,1.628014526E0,-7.881560211E0,1.241218872E0,8.143098117E0
8.708772167E0,1.944606171E0,-7.956254883E0,1.566492462E0,8.338907815E0
8.718850167E0,2.359543304E0,-8.443491669E0,1.902843018E0,8.971109614E0
8.728929167E0,2.621049500E0,-9.299411774E0,1.876497803E0,9.842266193E0
8.739008167E0,2.345472565E0,-1.008767258E1,1.273551636E0,1.043476465E1
8.749086167E0,2.134710846E0,-1.056353302E1,5.981561279E-1,1.079365605E1
8.759165167E0,2.204765167E0,-1.078656921E1,1.324745178E-1,1.101038666E1
8.769244167E0,2.327958984E0,-1.090302704E1,-6.227050781E-2,1.114895821E1
8.779322167E0,2.401156769E0,-1.081740509E1,8.382568359E-3,1.108069840E1
8.789401167E0,2.528841248E0,-1.065678909E1,1.706451416E-1,1.095405457E1
8.799480167E0,2.772235107E0,-1.043674667E1,2.653981018E-1,1.080191672E1
8.809558167E0,3.151396637E0,-1.001597168E1,2.987786865E-1,1.050429713E1
8.819637167E0,3.632795563E0,-9.527537384E0,3.643423462E-1,1.020313273E1
8.829716167E0,3.810027008E0,-9.004824371E0,4.605921936E-1,9.788529661E0
8.839794167E0,3.801943817E0,-8.579708405E0,6.536906433E-1,9.407097563E0
8.849873167E0,3.778592377E0,-8.429271240E0,8.999285889E-1,9.281176943E0
8.859952167E0,3.752845917E0,-8.426726532E0,1.209634552E0,9.303590074E0
8.870031167E0,3.764521637E0,-8.343649292E0,1.516795807E0,9.278403752E0
8.880109167E0,3.800297241E0,-8.251890106E0,1.783241730E0,9.258288206E0
8.890188167E0,3.846101990E0,-8.172854462E0,1.974843292E0,9.245975157E0
8.900267167E0,3.775598602E0,-8.150401154E0,2.089205475E0,9.222199482E0
8.910345167E0,3.667822723E0,-8.199648743E0,2.139500885E0,9.233884723E0
8.920424167E0,3.518433380E0,-8.466244354E0,2.040107574E0,9.392481346E0
8.930503167E0,3.199596405E0,-8.826545105E0,1.908231812E0,9.580535700E0
8.940581167E0,2.875819702E0,-9.095535736E0,1.842967529E0,9.715741794E0
8.950660167E0,2.655477905E0,-9.278754730E0,1.902843018E0,9.837055647E0
8.960739167E0,2.422412567E0,-9.430988159E0,1.955533447E0,9.931552314E0
8.970817167E0,2.200424194E0,-9.631271667E0,1.947001190E0,1.006946246E1
8.980896167E0,2.091151428E0,-9.885293427E0,1.883383484E0,1.027808707E1
8.990975167E0,2.122586060E0,-1.017793488E1,1.692380676E0,1.053374968E1
9.001053167E0,2.418221283E0,-1.044078827E1,1.479673004E0,1.081883940E1
9.011132167E0,2.950214996E0,-1.049587372E1,1.288370819E0,1.097848045E1
9.021211167E0,3.559747467E0,-1.033450928E1,9.987231445E-1,1.097594333E1
9.031289167E0,4.046684875E0,-1.005638763E1,6.331832886E-1,1.085852254E1
9.041368167E0,4.275708618E0,-9.720785522E0,1.848655701E-1,1.062118311E1
9.051447167E0,4.455484772E0,-9.306147766E0,-1.963916016E-1,1.031960757E1
9.061526167E0,4.610262909E0,-8.807085571E0,-3.237767029E-1,9.946060110E0
9.071604167E0,4.745431824E0,-8.330326996E0,-8.786727905E-2,9.587554000E0
9.081683542E0,4.887785797E0,-8.098010101E0,4.351451111E-1,9.468768075E0
9.091762542E0,4.946463776E0,-8.149503021E0,1.073567505E0,9.593458738E0
9.101840542E0,4.889731750E0,-8.206684113E0,1.702559509E0,9.703496772E0
9.111919542E0,4.826712799E0,-8.074059906E0,2.311493225E0,9.686619676E0
9.121998542E0,4.828658752E0,-7.857310638E0,2.824027405E0,9.645123462E0
9.132076542E0,4.825964355E0,-7.588320007E0,3.185375977E0,9.540395831E0
9.142155542E0,4.830155640E0,-7.402406616E0,3.302432556E0,9.435681640E0
9.152234542E0,4.822521515E0,-7.396868134E0,3.251388702E0,9.409670581E0
9.162312542E0,4.777465210E0,-7.602390747E0,3.163671112E0,9.519944002E0
9.172391542E0,4.717889099E0,-8.004604340E0,3.019670563E0,9.769881191E0
9.182470542E0,4.610562286E0,-8.474626923E0,2.929557953E0,1.008260363E1
9.192548542E0,4.544998627E0,-8.872349854E0,2.933000793E0,1.039125104E1
9.202627542E0,4.366270294E0,-9.096433868E0,3.026705933E0,1.053424768E1
9.212706542E0,4.090393982E0,-9.163943481E0,3.139271851E0,1.051495177E1
9.222784542E0,3.855682068E0,-9.117090912E0,3.213068390E0,1.040727819E1
9.232863542E0,3.651656342E0,-9.035809937E0,3.196602631E0,1.025664290E1
9.242942542E0,3.526366882E0,-9.037606201E0,3.044668579E0,1.016777242E1
9.253020542E0,3.487896881E0,-9.166488190E0,2.683320007E0,1.016809405E1
9.263099542E0,3.459306335E0,-9.339378662E0,2.226170654E0,1.020522562E1
9.273178542E0,3.479664001E0,-9.468859406E0,1.785936127E0,1.024484884E1
9.283257542E0,3.553610229E0,-9.507179718E0,1.280587006E0,1.023007893E1
9.293335542E0,3.619473267E0,-9.399553528E0,6.107299805E-1,1.009084656E1
9.303414542E0,3.642076263E0,-9.211544495E0,-1.724414062E-1,9.906917155E0
9.313493542E0,3.611390076E0,-9.005722504E0,-8.842112732E-1,9.743049095E0
9.323571542E0,3.589834900E0,-8.888516235E0,-1.344354401E0,9.679872118E0
9.333650542E0,3.689377899E0,-8.826994171E0,-1.392105103E0,9.667744928E0
9.343729542E0,3.982767792E0,-8.754245453E0,-8.045768738E-1,9.651248452E0
9.353807542E0,4.184248810E0,-8.616082764E0,1.182540894E-1,9.579081601E0
9.363886542E0,4.198618927E0,-8.445886688E0,9.283694458E-1,9.477514056E0
9.373965542E0,4.007915497E0,-8.435258789E0,1.506467285E0,9.459726272E0
9.384043542E0,3.813918915E0,-8.504265289E0,2.024539948E0,9.537676216E0
9.394122542E0,3.658092957E0,-8.629854126E0,2.455493774E0,9.689451790E0
9.404201542E0,3.519780579E0,-8.783734131E0,2.765349426E0,9.858498773E0
9.414279542E0,3.395538940E0,-8.951086121E0,2.959795074E0,1.002057954E1
9.424358542E0,3.340154114E0,-9.086704102E0,3.006497955E0,1.013725066E1
9.434437542E0,3.300336914E0,-9.166637878E0,2.914888458E0,1.016936814E1
9.444516542E0,3.264261932E0,-9.191635895E0,2.725681915E0,1.012773016E1
9.454594542E0,3.278182983E0,-9.176816711E0,2.501897278E0,1.006081203E1
9.464673542E0,3.375330963E0,-9.088799744E0,2.248773651E0,9.952694250E0
9.474752542E0,3.500021667E0,-9.020691376E0,1.989812164E0,9.878379271E0
9.484830542E0,3.664379883E0,-8.986262970E0,1.736838226E0,9.858864494E0
9.494909542E0,3.786974945E0,-8.995543671E0,1.455872498E0,9.868158384E0
9.504988542E0,3.904181213E0,-9.019194489E0,1.153950348E0,9.895458634E0
9.515066542E0,3.924538879E0,-9.013356628E0,7.984396362E-1,9.863067929E0
9.525145542E0,3.835773468E0,-8.959768066E0,4.602928162E-1,9.757175379E0
9.535224542E0,3.661984863E0,-8.948840790E0,1.504371643E-1,9.670290376E0
9.545302542E0,3.514092407E0,-8.975485382E0,-8.681945801E-3,9.638893021E0
9.555381542E0,3.471131744E0,-8.987310791E0,9.804611206E-2,9.634839069E0
9.565460542E0,3.458557892E0,-8.988657990E0,5.185217285E-1,9.645022547E0
9.575538542E0,3.467539215E0,-8.961863708E0,1.024020538E0,9.663718094E0
9.585617542E0,3.525468750E0,-8.982221375E0,1.466051331E0,9.760048014E0
9.595696542E0,3.583098907E0,-8.954828339E0,1.816921692E0,9.814721228E0
9.605774542E0,3.623664551E0,-8.910670166E0,2.057621155E0,9.836909698E0
9.615853542E0,3.605552216E0,-8.859177246E0,2.206262054E0,9.815937067E0
9.625932542E0,3.608246613E0,-8.820557556E0,2.278262329E0,9.798579410E0
9.636010542E0,3.653452606E0,-8.808283081E0,2.325713654E0,9.815422089E0
9.646089542E0,3.691772919E0,-8.809330902E0,2.283052368E0,9.820683598E0
9.656168542E0,3.765270081E0,-8.824299774E0,2.147434387E0,9.831429181E0
9.666247542E0,3.844605103E0,-8.792565765E0,1.928439789E0,9.788211336E0
9.676325542E0,3.903133392E0,-8.750952301E0,1.736688538E0,9.738054402E0
9.686404542E0,3.994144135E0,-8.760382690E0,1.568737793E0,9.754918273E0
9.696483542E0,4.047133942E0,-8.793463898E0,1.397942963E0,9.780518646E0
9.706561542E0,4.106260986E0,-8.820258179E0,1.247954865E0,9.808961462E0
9.716640542E0,4.101620636E0,-8.807384949E0,1.151555328E0,9.783629242E0
9.726719542E0,4.029770050E0,-8.764873352E0,1.131047974E0,9.712946054E0
9.736797542E0,3.929179230E0,-8.765771484E0,1.222058716E0,9.683523462E0
9.746876542E0,3.836671600E0,-8.795110474E0,1.419947205E0,9.700013777E0
9.756955542E0,3.757336578E0,-8.824000397E0,1.664987640E0,9.734102167E0
9.767033542E0,3.754492493E0,-8.875193939E0,1.866019592E0,9.815666582E0
9.777112542E0,3.776047668E0,-8.824299774E0,2.007325745E0,9.805924696E0
9.787191542E0,3.854634247E0,-8.794062653E0,2.098186798E0,9.828333071E0
9.797269542E0,3.901636505E0,-8.882828064E0,2.053130493E0,9.916791147E0
9.807348542E0,3.886368256E0,-8.954379272E0,1.948198700E0,9.953905995E0
9.817427542E0,3.966152344E0,-8.923244019E0,1.861678619E0,9.940849838E0
9.827505542E0,3.951183472E0,-8.888516235E0,1.864971771E0,9.904326903E0
9.837584542E0,3.869154053E0,-8.869655457E0,1.831441498E0,9.848620155E0
9.847663542E0,3.842659149E0,-8.883426819E0,1.718276825E0,9.830248045E0
9.857742542E0,3.778592377E0,-8.915609894E0,1.597627716E0,9.814187406E0
9.867820542E0,3.722010040E0,-8.909472656E0,1.490151215E0,9.769985281E0
9.877899542E0,3.623814240E0,-8.889114990E0,1.374741211E0,9.697335116E0
9.887978542E0,3.597469025E0,-8.932973785E0,1.277144165E0,9.714468655E0
9.898056542E0,3.653452606E0,-8.976383514E0,1.328786774E0,9.782067840E0
9.908135542E0,3.652704163E0,-8.976084137E0,1.442849579E0,9.797660386E0
9.918214542E0,3.829636230E0,-8.998537445E0,1.720372467E0,9.929726644E0
9.928292542E0,3.862268372E0,-9.057514801E0,1.912273407E0,1.003057730E1
9.938371542E0,3.948938141E0,-9.258696442E0,2.051783295E0,1.027265238E1
9.948450542E0,4.124073944E0,-9.302255859E0,2.341430969E0,1.044137199E1
9.958528542E0,4.166884918E0,-9.132508850E0,2.460283813E0,1.033531055E1
9.968607542E0,3.836821289E0,-8.850046234E0,2.047292633E0,9.860827707E0
9.978686542E0,3.603306885E0,-8.722212067E0,1.544488220E0,9.562753145E0
9.988764542E0,3.799099731E0,-8.904083862E0,1.351988525E0,9.774647880E0